"Time (s)","Acceleration x (m/s^2)","Acceleration y (m/s^2)","Acceleration z (m/s^2)"
3.985240500E-2,-2.499694824E-1,9.654159546E0,-8.502731323E0
4.488780600E-2,-2.655944824E-1,9.650283813E0,-8.434875488E0
4.992320600E-2,-2.504577637E-1,9.654403687E0,-8.401321411E0
5.495860600E-2,-3.336486816E-1,9.662521362E0,-8.485702515E0
5.999400700E-2,-3.758239746E-1,9.673965454E0,-8.501541138E0
6.502940700E-2,-3.838500977E-1,9.678085327E0,-8.443771362E0
7.006480800E-2,-4.436035156E-1,9.665084839E0,-8.396057129E0
7.510020800E-2,-4.941711426E-1,9.650650024E0,-8.454803467E0
8.013560800E-2,-5.116882324E-1,9.633224487E0,-8.548065186E0
8.517100900E-2,-5.108489990E-1,9.626052856E0,-8.558395386E0
9.020640900E-2,-4.569091797E-1,9.630661011E0,-8.509094238E0
9.524181000E-2,-5.086669922E-1,9.629089355E0,-8.507766724E0
1.002772100E-1,-6.030120850E-1,9.613739014E0,-8.439102173E0
1.053126100E-1,-6.320953369E-1,9.616333008E0,-8.428100586E0
1.103480110E-1,-6.855926514E-1,9.632949829E0,-8.443313599E0
1.153834110E-1,-6.754608154E-1,9.633911133E0,-8.411285400E0
1.204188110E-1,-6.972961426E-1,9.619400024E0,-8.416046143E0
1.254542120E-1,-7.491912842E-1,9.601974487E0,-8.438385010E0
1.304896120E-1,-8.229827881E-1,9.599060059E0,-8.402114868E0
1.355250130E-1,-8.565673828E-1,9.591033936E0,-8.408477783E0
1.405604130E-1,-8.714904785E-1,9.605529785E0,-8.448242188E0
1.455958130E-1,-8.279113770E-1,9.621154785E0,-8.387176514E0
1.506312140E-1,-7.952728271E-1,9.603012085E0,-8.456253052E0
1.556666140E-1,-8.155517578E-1,9.610885620E0,-8.443984985E0
1.607020150E-1,-8.481903076E-1,9.626617432E0,-8.399688721E0
1.657374150E-1,-9.157562256E-1,9.614257812E0,-8.383163452E0
1.707728150E-1,-9.512329102E-1,9.628280640E0,-8.407882690E0
1.758082160E-1,-9.256591797E-1,9.642303467E0,-8.437255859E0
1.808436160E-1,-9.148254395E-1,9.627395630E0,-8.460174561E0
1.858790170E-1,-9.208068848E-1,9.629196167E0,-8.512634277E0
1.909144170E-1,-9.853210449E-1,9.618072510E0,-8.467163086E0
1.959498170E-1,-1.055297852E0,9.613677979E0,-8.466079712E0
2.009852180E-1,-1.005554199E0,9.595413208E0,-8.487136841E0
2.060206180E-1,-1.015411377E0,9.607864380E0,-8.490341187E0
2.110560180E-1,-1.001464844E0,9.639816284E0,-8.537017822E0
2.160914190E-1,-1.007568359E0,9.627792358E0,-8.527786255E0
2.211268190E-1,-1.113433838E0,9.589691162E0,-8.391235352E0
2.261622200E-1,-1.186798096E0,9.560897827E0,-8.435333252E0
2.311976200E-1,-1.165405273E0,9.592453003E0,-8.487686157E0
2.362330200E-1,-1.143707275E0,9.539443970E0,-8.389221191E0
2.412684210E-1,-1.092437744E0,9.566131592E0,-8.369110107E0
2.463038210E-1,-1.101730347E0,9.579162598E0,-8.474060059E0
2.513392220E-1,-1.177780151E0,9.543060303E0,-8.571624756E0
2.563746220E-1,-1.132751465E0,9.590393066E0,-8.526046753E0
2.614100220E-1,-1.161560059E0,9.621658325E0,-8.543548584E0
2.664454230E-1,-1.149108887E0,9.604583740E0,-8.378890991E0
2.714808230E-1,-1.125656128E0,9.587860107E0,-8.319000244E0
2.765162240E-1,-1.072677612E0,9.616470337E0,-8.455841064E0
2.815516240E-1,-1.026565552E0,9.656814575E0,-8.460678101E0
2.865870240E-1,-1.073272705E0,9.637710571E0,-8.397369385E0
2.916224250E-1,-1.107727051E0,9.594436646E0,-8.396453857E0
2.966578250E-1,-1.048706055E0,9.610031128E0,-8.418701172E0
3.016932260E-1,-1.083908081E0,9.601287842E0,-8.554779053E0
3.067286260E-1,-1.048858643E0,9.649612427E0,-8.426010132E0
3.117640260E-1,-1.032470703E0,9.612106323E0,-8.471038818E0
3.167994270E-1,-9.903564453E-1,9.630203247E0,-8.485641479E0
3.218348270E-1,-1.070266724E0,9.613311768E0,-8.440917969E0
3.268702270E-1,-1.126953125E0,9.593826294E0,-8.318054199E0
3.319056280E-1,-1.100051880E0,9.572326660E0,-8.298934937E0
3.369410280E-1,-1.064270020E0,9.646881104E0,-8.289352417E0
3.419764290E-1,-1.019088745E0,9.552215576E0,-8.478897095E0
3.470118290E-1,-1.000915527E0,9.597213745E0,-8.486434937E0
3.520472290E-1,-9.932861328E-1,9.592529297E0,-8.417114258E0
3.570826300E-1,-1.025772095E0,9.615676880E0,-8.454650879E0
3.621180300E-1,-9.364929199E-1,9.613739014E0,-8.370223999E0
3.671534310E-1,-9.145050049E-1,9.628021240E0,-8.602981567E0
3.721888310E-1,-9.447784424E-1,9.554626465E0,-8.529525757E0
3.772242310E-1,-8.931579590E-1,9.587890625E0,-8.554412842E0
3.822596320E-1,-9.878845215E-1,9.600860596E0,-8.419967651E0
3.872950320E-1,-9.126586914E-1,9.576812744E0,-8.367263794E0
3.923304330E-1,-8.719635010E-1,9.599838257E0,-8.408996582E0
3.973658330E-1,-7.951660156E-1,9.606430054E0,-8.367233276E0
4.024012330E-1,-7.978973389E-1,9.604583740E0,-8.625198364E0
4.074366340E-1,-8.767242432E-1,9.612625122E0,-8.571441650E0
4.124720340E-1,-8.364868164E-1,9.644592285E0,-8.483673096E0
4.175074350E-1,-8.895416260E-1,9.574005127E0,-8.452331543E0
4.225428350E-1,-6.889038086E-1,9.584274292E0,-8.581436157E0
4.275782350E-1,-6.421356201E-1,9.620361328E0,-8.365158081E0
4.326136360E-1,-6.828460693E-1,9.666717529E0,-8.406906128E0
4.376490360E-1,-7.808532715E-1,9.648483276E0,-8.587783813E0
4.426844360E-1,-7.923889160E-1,9.621398926E0,-8.664962769E0
4.477198370E-1,-7.809143066E-1,9.654708862E0,-8.451400757E0
4.527552370E-1,-7.312622070E-1,9.611831665E0,-8.338760376E0
4.577906380E-1,-6.749725342E-1,9.620376587E0,-8.548843384E0
4.628260380E-1,-6.653900146E-1,9.601715088E0,-8.628814697E0
4.678614380E-1,-6.165771484E-1,9.607864380E0,-8.660263062E0
4.728968390E-1,-6.502990723E-1,9.560684204E0,-8.542922974E0
4.779322390E-1,-6.571502686E-1,9.583694458E0,-8.458648682E0
4.829676400E-1,-5.769042969E-1,9.614120483E0,-8.399261475E0
4.880030400E-1,-5.190124512E-1,9.632598877E0,-8.532943726E0
4.930384400E-1,-5.068817139E-1,9.654022217E0,-8.532318115E0
4.980738410E-1,-6.088867188E-1,9.628372192E0,-8.575424194E0
5.031092410E-1,-6.492004395E-1,9.628601074E0,-8.461730957E0
5.081446420E-1,-5.329132080E-1,9.658615112E0,-8.539779663E0
5.131800420E-1,-4.577331543E-1,9.652511597E0,-8.636505127E0
5.182154420E-1,-4.445190430E-1,9.648361206E0,-8.684326172E0
5.232508430E-1,-5.135650635E-1,9.647232056E0,-8.536437988E0
5.282862430E-1,-4.512481689E-1,9.663955688E0,-8.562606812E0
5.333216430E-1,-5.163116455E-1,9.658325195E0,-8.472656250E0
5.383570440E-1,-5.402679443E-1,9.686798096E0,-8.460968018E0
5.433924440E-1,-5.281372070E-1,9.686508179E0,-8.578704834E0
5.484278450E-1,-4.722747803E-1,9.681259155E0,-8.748901367E0
5.534632450E-1,-4.959106445E-1,9.659362793E0,-8.741531372E0
5.584986450E-1,-5.310974121E-1,9.619949341E0,-8.677581787E0
5.635340460E-1,-4.693908691E-1,9.619445801E0,-8.706283569E0
5.685694460E-1,-4.068145752E-1,9.619903564E0,-8.702850342E0
5.736048470E-1,-3.881225586E-1,9.632400513E0,-8.681900024E0
5.786402470E-1,-4.874267578E-1,9.628311157E0,-8.663497925E0
5.836756470E-1,-5.385284424E-1,9.591842651E0,-8.659637451E0
5.887110480E-1,-5.300903320E-1,9.603286743E0,-8.638031006E0
5.937464480E-1,-4.691925049E-1,9.639877319E0,-8.633880615E0
5.987818490E-1,-4.494171143E-1,9.656585693E0,-8.652816772E0
6.038172490E-1,-4.321289062E-1,9.638351440E0,-8.729385376E0
6.088526490E-1,-4.338073730E-1,9.641860962E0,-8.817077637E0
6.138880500E-1,-4.098663330E-1,9.653015137E0,-8.798171997E0
6.189234500E-1,-4.332122803E-1,9.614456177E0,-8.763488770E0
6.239588510E-1,-4.891357422E-1,9.596130371E0,-8.689529419E0
6.289942510E-1,-4.381561279E-1,9.608139038E0,-8.613998413E0
6.340296510E-1,-3.570861816E-1,9.621444702E0,-8.644287109E0
6.390650520E-1,-3.056030273E-1,9.643783569E0,-8.730148315E0
6.441004520E-1,-3.136749268E-1,9.665924072E0,-8.801651001E0
6.491358520E-1,-3.693695068E-1,9.647430420E0,-8.796844482E0
6.541712530E-1,-4.171905518E-1,9.646041870E0,-8.741058350E0
6.592066530E-1,-3.910064697E-1,9.706832886E0,-8.765106201E0
6.642420540E-1,-3.012084961E-1,9.699813843E0,-8.716583252E0
6.692774540E-1,-2.622833252E-1,9.689300537E0,-8.634735107E0
6.743128540E-1,-2.785797119E-1,9.677215576E0,-8.688323975E0
6.793482550E-1,-3.005065918E-1,9.677261353E0,-8.824768066E0
6.843836550E-1,-3.258056641E-1,9.654663086E0,-8.859283447E0
6.894190560E-1,-2.540435791E-1,9.648376465E0,-8.744445801E0
6.944544560E-1,-2.288513184E-1,9.649459839E0,-8.732833862E0
6.994898560E-1,-2.963104248E-1,9.674362183E0,-8.840454102E0
7.045252570E-1,-3.501892090E-1,9.664764404E0,-8.738418579E0
7.095606570E-1,-2.933807373E-1,9.655838013E0,-8.647399902E0
7.145960580E-1,-1.890411377E-1,9.668228149E0,-8.666259766E0
7.196314580E-1,-1.846618652E-1,9.649520874E0,-8.801116943E0
7.246668580E-1,-2.180480957E-1,9.658874512E0,-8.841918945E0
7.297022590E-1,-2.143249512E-1,9.627548218E0,-8.701950073E0
7.347376590E-1,-1.801757812E-1,9.606735229E0,-8.605728149E0
7.397730600E-1,-1.730346680E-1,9.625671387E0,-8.692443848E0
7.448084600E-1,-2.159423828E-1,9.634582520E0,-8.746704102E0
7.498438600E-1,-2.308044434E-1,9.629638672E0,-8.699569702E0
7.548792610E-1,-2.443542480E-1,9.602005005E0,-8.654174805E0
7.599146610E-1,-1.406250000E-1,9.653091431E0,-8.587417603E0
7.649500610E-1,-1.295471191E-1,9.674224854E0,-8.539505005E0
7.699854620E-1,-7.197570801E-2,9.662109375E0,-8.662826538E0
7.750208620E-1,-2.627563477E-2,9.682434082E0,-8.669952393E0
7.800562630E-1,-7.510375977E-2,9.643829346E0,-8.643020630E0
7.850916630E-1,-1.622619629E-1,9.679214478E0,-8.618652344E0
7.901270630E-1,-1.705017090E-1,9.636779785E0,-8.643295288E0
7.951624640E-1,-1.509246826E-1,9.710372925E0,-8.662612915E0
8.001978640E-1,-9.199523926E-2,9.729461670E0,-8.644104004E0
8.052332650E-1,-1.678771973E-1,9.684112549E0,-8.569564819E0
8.102686650E-1,-2.194824219E-1,9.665206909E0,-8.592102051E0
8.153040650E-1,-2.306518555E-1,9.678756714E0,-8.509902954E0
8.203394660E-1,-2.944488525E-1,9.686904907E0,-8.526733398E0
8.253748660E-1,-2.320251465E-1,9.647827148E0,-8.489486694E0
8.304102670E-1,-2.421264648E-1,9.658004761E0,-8.508544922E0
8.354456670E-1,-3.264617920E-1,9.598236084E0,-8.543869019E0
8.404810670E-1,-2.743682861E-1,9.642532349E0,-8.550399780E0
8.455164680E-1,-3.291473389E-1,9.640090942E0,-8.536849976E0
8.505518680E-1,-2.729187012E-1,9.618896484E0,-8.414840698E0
8.555872680E-1,-2.647552490E-1,9.651412964E0,-8.431350708E0
8.606226690E-1,-2.813262939E-1,9.661346436E0,-8.348281860E0
8.656580690E-1,-3.791961670E-1,9.628128052E0,-8.317962646E0
8.706934700E-1,-4.007873535E-1,9.638366699E0,-8.371719360E0
8.757288700E-1,-4.249572754E-1,9.680938721E0,-8.478240967E0
8.807642700E-1,-4.472045898E-1,9.624053955E0,-8.453399658E0
8.857996710E-1,-3.774719238E-1,9.641372681E0,-8.560546875E0
8.908350710E-1,-4.048004150E-1,9.621536255E0,-8.358718872E0
8.958704720E-1,-5.110626221E-1,9.635482788E0,-8.371429443E0
9.009058720E-1,-3.703308105E-1,9.676223755E0,-8.334655762E0
9.059412720E-1,-4.703369141E-1,9.711257935E0,-8.406082153E0
9.109766730E-1,-4.458160400E-1,9.684219360E0,-8.445693970E0
9.160120730E-1,-3.796234131E-1,9.676849365E0,-8.498550415E0
9.210474740E-1,-5.421142578E-1,9.684082031E0,-8.383712769E0
9.260828740E-1,-4.747009277E-1,9.650482178E0,-8.284713745E0
9.311182740E-1,-4.853668213E-1,9.613464355E0,-8.409454346E0
9.361536750E-1,-6.360778809E-1,9.635986328E0,-8.445022583E0
9.411890750E-1,-6.627502441E-1,9.601715088E0,-8.398590088E0
9.462244760E-1,-7.300262451E-1,9.611358643E0,-8.326049805E0
9.512598760E-1,-7.250366211E-1,9.595657349E0,-8.331466675E0
9.562952760E-1,-6.697082520E-1,9.579772949E0,-8.354324341E0
9.613306770E-1,-6.568298340E-1,9.602493286E0,-8.497940063E0
9.663660770E-1,-7.013854980E-1,9.646942139E0,-8.451843262E0
9.714014770E-1,-7.764587402E-1,9.576660156E0,-8.430221558E0
9.764368780E-1,-7.718353271E-1,9.564483643E0,-8.444778442E0
9.814722780E-1,-6.692199707E-1,9.592651367E0,-8.478179932E0
9.865076790E-1,-6.735534668E-1,9.579055786E0,-8.456192017E0
9.915430790E-1,-6.909484863E-1,9.594390869E0,-8.410415649E0
9.965784790E-1,-7.401123047E-1,9.605072021E0,-8.380676270E0
1.001613880E0,-6.846923828E-1,9.692276001E0,-8.371414185E0
1.006649280E0,-7.189483643E-1,9.642303467E0,-8.372924805E0
1.011684681E0,-6.932830811E-1,9.660522461E0,-8.459121704E0
1.016720081E0,-7.247619629E-1,9.678634644E0,-8.359954834E0
1.021755481E0,-7.557220459E-1,9.614074707E0,-8.393157959E0
1.026790882E0,-7.465820312E-1,9.600997925E0,-8.415527344E0
1.031826282E0,-7.907562256E-1,9.592971802E0,-8.404281616E0
1.036861683E0,-7.914123535E-1,9.577423096E0,-8.347381592E0
1.041897083E0,-7.587585449E-1,9.608139038E0,-8.361831665E0
1.046932483E0,-7.235717773E-1,9.637908936E0,-8.447082520E0
1.051967884E0,-7.503204346E-1,9.606994629E0,-8.532196045E0
1.057003284E0,-8.118438721E-1,9.571258545E0,-8.472091675E0
1.062038685E0,-9.049530029E-1,9.570892334E0,-8.417602539E0
1.067074085E0,-9.341888428E-1,9.568603516E0,-8.493804932E0
1.072109485E0,-9.136810303E-1,9.580612183E0,-8.480972290E0
1.077144886E0,-8.631591797E-1,9.612075806E0,-8.468643188E0
1.082180286E0,-8.988952637E-1,9.631088257E0,-8.420150757E0
1.087215686E0,-9.496459961E-1,9.597747803E0,-8.339035034E0
1.092251087E0,-9.003601074E-1,9.593353271E0,-8.450531006E0
1.097286487E0,-8.848876953E-1,9.592346191E0,-8.578872681E0
1.102321888E0,-9.069519043E-1,9.583419800E0,-8.501541138E0
1.107357288E0,-9.338836670E-1,9.615753174E0,-8.493209839E0
1.112392688E0,-1.033523560E0,9.601837158E0,-8.491104126E0
1.117428089E0,-1.056808472E0,9.567291260E0,-8.490188599E0
1.122463489E0,-1.061050415E0,9.588470459E0,-8.445800781E0
1.127498890E0,-1.094451904E0,9.603912354E0,-8.389862061E0
1.132534290E0,-1.104232788E0,9.595596313E0,-8.433715820E0
1.137569690E0,-1.075744629E0,9.621047974E0,-8.492950439E0
1.142605091E0,-9.946594238E-1,9.616775513E0,-8.551330566E0
1.147640491E0,-1.001495361E0,9.581100464E0,-8.613815308E0
1.152675892E0,-1.036911011E0,9.575027466E0,-8.457046509E0
1.157711292E0,-1.093383789E0,9.558395386E0,-8.312835693E0
1.162746692E0,-1.100585938E0,9.586196899E0,-8.400360107E0
1.167782093E0,-1.049728394E0,9.612274170E0,-8.405410767E0
1.172817493E0,-1.065078735E0,9.606933594E0,-8.444015503E0
1.177852893E0,-1.167129517E0,9.592178345E0,-8.543746948E0
1.182888294E0,-1.260162354E0,9.554687500E0,-8.498214722E0
1.187923694E0,-1.206909180E0,9.542205811E0,-8.449203491E0
1.192959095E0,-1.169189453E0,9.560470581E0,-8.453750610E0
1.197994495E0,-1.112518311E0,9.558929443E0,-8.494491577E0
1.203029895E0,-1.073791504E0,9.599609375E0,-8.561141968E0
1.208065296E0,-1.089035034E0,9.637374878E0,-8.508026123E0
1.213100696E0,-1.154556274E0,9.643005371E0,-8.537857056E0
1.218136097E0,-1.234634399E0,9.603332520E0,-8.441223145E0
1.223171497E0,-1.160781860E0,9.599609375E0,-8.447982788E0
1.228206897E0,-1.113540649E0,9.618148804E0,-8.467926025E0
1.233242298E0,-1.044326782E0,9.605575562E0,-8.469055176E0
1.238277698E0,-1.127609253E0,9.626388550E0,-8.467880249E0
1.243313099E0,-1.102203369E0,9.595245361E0,-8.556198120E0
1.248348499E0,-1.171844482E0,9.551513672E0,-8.635452271E0
1.253383899E0,-1.093093872E0,9.617095947E0,-8.476745605E0
1.258419300E0,-1.096557617E0,9.616775513E0,-8.346191406E0
1.263454700E0,-1.070510864E0,9.574996948E0,-8.454559326E0
1.268490101E0,-1.031021118E0,9.571945190E0,-8.534896851E0
1.273525501E0,-1.035766602E0,9.612457275E0,-8.565444946E0
1.278560901E0,-1.054183960E0,9.561294556E0,-8.563690186E0
1.283596302E0,-1.008972168E0,9.569610596E0,-8.538330078E0
1.288631702E0,-9.311218262E-1,9.613906860E0,-8.493301392E0
1.293667102E0,-8.966217041E-1,9.602340698E0,-8.546051025E0
1.298702503E0,-8.972625732E-1,9.611984253E0,-8.572067261E0
1.303737903E0,-8.620758057E-1,9.638992310E0,-8.618606567E0
1.308773304E0,-8.851013184E-1,9.597518921E0,-8.528457642E0
1.313808704E0,-7.521667480E-1,9.579345703E0,-8.564834595E0
1.318844104E0,-7.078857422E-1,9.636810303E0,-8.580535889E0
1.323879505E0,-8.175048828E-1,9.618041992E0,-8.682983398E0
1.328914905E0,-8.018646240E-1,9.589294434E0,-8.733505249E0
1.333950306E0,-7.278289795E-1,9.589813232E0,-8.799652100E0
1.338985706E0,-6.988677979E-1,9.615142822E0,-8.644729614E0
1.344021106E0,-6.295013428E-1,9.606994629E0,-8.620437622E0
1.349056507E0,-6.264801025E-1,9.646301270E0,-8.631317139E0
1.354091907E0,-6.758728027E-1,9.616485596E0,-8.772613525E0
1.359127308E0,-5.741119385E-1,9.611358643E0,-8.743423462E0
1.364162708E0,-5.547790527E-1,9.611724854E0,-8.773696899E0
1.369198108E0,-5.063323975E-1,9.671936035E0,-8.668243408E0
1.374233509E0,-4.442901611E-1,9.603988647E0,-8.722335815E0
1.379268909E0,-3.937377930E-1,9.689376831E0,-8.735305786E0
1.384304310E0,-4.066772461E-1,9.673065186E0,-8.711486816E0
1.389339710E0,-3.942413330E-1,9.623260498E0,-8.736953735E0
1.394375110E0,-4.591064453E-1,9.626129150E0,-8.701644897E0
1.399410511E0,-5.465393066E-1,9.665054321E0,-8.621292114E0
1.404445911E0,-5.231628418E-1,9.652435303E0,-8.668121338E0
1.409481311E0,-4.457550049E-1,9.655700684E0,-8.643493652E0
1.414516712E0,-2.969665527E-1,9.627624512E0,-8.793197632E0
1.419552112E0,-3.294982910E-1,9.641906738E0,-8.737243652E0
1.424587513E0,-3.495483398E-1,9.621475220E0,-8.646972656E0
1.429622913E0,-4.526672363E-1,9.627243042E0,-8.709976196E0
1.434658313E0,-4.224700928E-1,9.636840820E0,-8.654861450E0
1.439693714E0,-4.076690674E-1,9.637680054E0,-8.671920776E0
1.444729114E0,-3.016052246E-1,9.662933350E0,-8.560119629E0
1.449764515E0,-2.891693115E-1,9.655151367E0,-8.569488525E0
1.454799915E0,-3.626556396E-1,9.636642456E0,-8.564941406E0
1.459835315E0,-3.425750732E-1,9.627639771E0,-8.584625244E0
1.464870716E0,-3.719787598E-1,9.605102539E0,-8.553100586E0
1.469906116E0,-3.440399170E-1,9.608337402E0,-8.593109131E0
1.474941517E0,-2.936096191E-1,9.645324707E0,-8.541091919E0
1.479976917E0,-1.527862549E-1,9.670516968E0,-8.570510864E0
1.485012317E0,-1.698455811E-1,9.698715210E0,-8.611129761E0
1.490047718E0,-1.744995117E-1,9.701904297E0,-8.431762695E0
1.495083118E0,-3.313751221E-1,9.663131714E0,-8.447311401E0
1.500118518E0,-2.284851074E-1,9.676345825E0,-8.562484741E0
1.505153919E0,-2.406463623E-1,9.668334961E0,-8.428909302E0
1.510189319E0,-2.147827148E-1,9.714447021E0,-8.350875854E0
1.515224720E0,-3.231658936E-1,9.677520752E0,-8.394683838E0
1.520260120E0,-3.513488770E-1,9.645477295E0,-8.496902466E0
1.525295520E0,-2.592163086E-1,9.679626465E0,-8.549942017E0
1.530330921E0,-2.046966553E-1,9.675643921E0,-8.519546509E0
1.535366321E0,-1.656188965E-1,9.675384521E0,-8.488128662E0
1.540401722E0,-2.268829346E-1,9.668670654E0,-8.458068848E0
1.545437122E0,-2.068023682E-1,9.660095215E0,-8.459014893E0
1.550472522E0,-1.887359619E-1,9.654739380E0,-8.476135254E0
1.555507923E0,-2.138671875E-1,9.676254272E0,-8.488662720E0
1.560543323E0,-2.808074951E-1,9.663253784E0,-8.521087646E0
1.565578724E0,-2.826385498E-1,9.661895752E0,-8.538253784E0
1.570614124E0,-2.103271484E-1,9.670104980E0,-8.563888550E0
1.575649524E0,-1.734619141E-1,9.656311035E0,-8.512725830E0
1.580684925E0,-2.084503174E-1,9.637695312E0,-8.469863892E0
1.585720325E0,-2.529754639E-1,9.638458252E0,-8.481277466E0
1.590755726E0,-2.492370605E-1,9.632400513E0,-8.470916748E0
1.595791126E0,-2.015228271E-1,9.640914917E0,-8.459350586E0
1.600826526E0,-2.348937988E-1,9.650405884E0,-8.492279053E0
1.605861927E0,-2.869567871E-1,9.651901245E0,-8.526245117E0
1.610897327E0,-3.326873779E-1,9.624298096E0,-8.505462646E0
1.615932727E0,-3.172149658E-1,9.646942139E0,-8.570861816E0
1.620968128E0,-2.703704834E-1,9.692382812E0,-8.591079712E0
1.626003528E0,-2.633972168E-1,9.673065186E0,-8.572509766E0
1.631038929E0,-2.920074463E-1,9.673568726E0,-8.593383789E0
1.636074329E0,-2.999572754E-1,9.688583374E0,-8.583007812E0
1.641109729E0,-2.847595215E-1,9.662155151E0,-8.571563721E0
1.646145130E0,-2.944488525E-1,9.649002075E0,-8.595565796E0
1.651180530E0,-3.948822021E-1,9.611572266E0,-8.574371338E0
1.656215931E0,-4.059295654E-1,9.622650146E0,-8.539779663E0
1.661251331E0,-3.384094238E-1,9.657546997E0,-8.528213501E0
1.666286731E0,-3.077392578E-1,9.646728516E0,-8.534637451E0
1.671322132E0,-3.566284180E-1,9.658264160E0,-8.557373047E0
1.676357532E0,-4.013671875E-1,9.645294189E0,-8.576293945E0
1.681392933E0,-4.105529785E-1,9.607391357E0,-8.569290161E0
1.686428333E0,-4.215698242E-1,9.635070801E0,-8.565612793E0
1.691463733E0,-3.918457031E-1,9.621887207E0,-8.507339478E0
1.696499134E0,-3.982696533E-1,9.628311157E0,-8.528213501E0
1.701534534E0,-3.984985352E-1,9.635040283E0,-8.570861816E0
1.706569935E0,-4.212646484E-1,9.655883789E0,-8.546173096E0
1.711605335E0,-4.420166016E-1,9.679458618E0,-8.479812622E0
1.716640735E0,-4.320220947E-1,9.615692139E0,-8.520446777E0
1.721676136E0,-3.765563965E-1,9.658203125E0,-8.607879639E0
1.726711536E0,-4.188385010E-1,9.658859253E0,-8.631546021E0
1.731746936E0,-4.638366699E-1,9.619338989E0,-8.612060547E0
1.736782337E0,-4.915161133E-1,9.612564087E0,-8.511947632E0
1.741817737E0,-4.924774170E-1,9.641113281E0,-8.488876343E0
1.746853138E0,-5.166168213E-1,9.656814575E0,-8.511367798E0
1.751888538E0,-5.521697998E-1,9.692611694E0,-8.528503418E0
1.756923938E0,-5.978088379E-1,9.631561279E0,-8.548645020E0
1.761959339E0,-5.863647461E-1,9.642471313E0,-8.560653687E0
1.766994739E0,-5.812530518E-1,9.614471436E0,-8.539199829E0
1.772030140E0,-5.557861328E-1,9.657531738E0,-8.547653198E0
1.777065540E0,-6.158599854E-1,9.622802734E0,-8.504928589E0
1.782100940E0,-5.805053711E-1,9.587539673E0,-8.477722168E0
1.787136341E0,-6.144104004E-1,9.607177734E0,-8.450042725E0
1.792171741E0,-5.908355713E-1,9.566055298E0,-8.493225098E0
1.797207142E0,-6.549377441E-1,9.598663330E0,-8.460937500E0
1.802242542E0,-7.386779785E-1,9.631744385E0,-8.489273071E0
1.807277942E0,-7.629089355E-1,9.637298584E0,-8.517089844E0
1.812313343E0,-7.753601074E-1,9.648345947E0,-8.478576660E0
1.817348743E0,-7.173004150E-1,9.634109497E0,-8.410903931E0
1.822384143E0,-7.166137695E-1,9.646087646E0,-8.312179565E0
1.827419544E0,-8.391265869E-1,9.609283447E0,-8.309875488E0
1.832454944E0,-7.129211426E-1,9.640319824E0,-8.494598389E0
1.837490345E0,-7.665557861E-1,9.655960083E0,-8.345916748E0
1.842525745E0,-7.578430176E-1,9.638229370E0,-8.306640625E0
1.847561145E0,-7.852783203E-1,9.591094971E0,-8.321685791E0
1.852596546E0,-7.742156982E-1,9.634597778E0,-8.256256104E0
1.857631946E0,-7.859039307E-1,9.628051758E0,-8.366638184E0
1.862667347E0,-9.526519775E-1,9.623535156E0,-8.475402832E0
1.867702747E0,-9.621124268E-1,9.666870117E0,-8.628143311E0
1.872738147E0,-9.595489502E-1,9.580932617E0,-8.445175171E0
1.877773548E0,-8.588562012E-1,9.602264404E0,-8.417572021E0
1.882808948E0,-9.014282227E-1,9.614135742E0,-8.424346924E0
1.887844349E0,-9.851074219E-1,9.621810913E0,-8.426803589E0
1.892879749E0,-1.053863525E0,9.596267700E0,-8.496520996E0
1.897915149E0,-1.067840576E0,9.585922241E0,-8.345291138E0
1.902950550E0,-1.025238037E0,9.598983765E0,-8.405761719E0
1.907985950E0,-1.037124634E0,9.640258789E0,-8.535156250E0
1.913021351E0,-1.024154663E0,9.594726562E0,-8.510269165E0
1.918056751E0,-1.006637573E0,9.555603027E0,-8.396514893E0
1.923092151E0,-1.019546509E0,9.569778442E0,-8.458129883E0
1.928127552E0,-1.029663086E0,9.583770752E0,-8.465576172E0
1.933162952E0,-1.047851562E0,9.530227661E0,-8.426452637E0
1.938198352E0,-8.704681396E-1,9.624496460E0,-8.570846558E0
1.943233753E0,-9.569396973E-1,9.613754272E0,-8.359558105E0
1.948269153E0,-9.787750244E-1,9.591171265E0,-8.527587891E0
1.953304554E0,-9.738159180E-1,9.593338013E0,-8.493377686E0
1.958339954E0,-9.539489746E-1,9.580322266E0,-8.537078857E0
1.963375354E0,-9.717254639E-1,9.596481323E0,-8.557952881E0
1.968410755E0,-9.867858887E-1,9.587203979E0,-8.473754883E0
1.973446155E0,-1.001937866E0,9.594696045E0,-8.484680176E0
1.978481556E0,-9.693908691E-1,9.597518921E0,-8.568618774E0
1.983516956E0,-9.386444092E-1,9.608932495E0,-8.567214966E0
1.988552356E0,-9.718933105E-1,9.619796753E0,-8.494522095E0
1.993587757E0,-9.536437988E-1,9.617614746E0,-8.526565552E0
1.998623157E0,-9.915008545E-1,9.585418701E0,-8.459304810E0
2.003658558E0,-9.907684326E-1,9.606719971E0,-8.408813477E0
2.008693958E0,-1.035827637E0,9.625946045E0,-8.532409668E0
2.013729358E0,-1.057418823E0,9.590469360E0,-8.571014404E0
2.018764759E0,-9.680023193E-1,9.595550537E0,-8.502746582E0
2.023800159E0,-9.341125488E-1,9.597015381E0,-8.508941650E0
2.028835560E0,-9.884796143E-1,9.598556519E0,-8.562362671E0
2.033870960E0,-9.945373535E-1,9.580307007E0,-8.545318604E0
2.038906360E0,-9.508972168E-1,9.571411133E0,-8.514556885E0
2.043941761E0,-9.241790771E-1,9.588272095E0,-8.460006714E0
2.048977161E0,-8.853607178E-1,9.615997314E0,-8.515014648E0
2.054012561E0,-8.947753906E-1,9.604263306E0,-8.580108643E0
2.059047962E0,-9.211273193E-1,9.613754272E0,-8.597412109E0
2.064083362E0,-9.668579102E-1,9.601394653E0,-8.535125732E0
2.069118763E0,-9.878997803E-1,9.603210449E0,-8.542663574E0
2.074154163E0,-9.525604248E-1,9.607955933E0,-8.567337036E0
2.079189563E0,-9.156799316E-1,9.623428345E0,-8.611740112E0
2.084224964E0,-8.879394531E-1,9.616790771E0,-8.620529175E0
2.089260364E0,-8.888092041E-1,9.600357056E0,-8.647247314E0
2.094295765E0,-9.178619385E-1,9.586334229E0,-8.643341064E0
2.099331165E0,-9.205169678E-1,9.584350586E0,-8.592498779E0
2.104366565E0,-8.959045410E-1,9.605377197E0,-8.554244995E0
2.109401966E0,-9.049835205E-1,9.600646973E0,-8.610122681E0
2.114437366E0,-9.564971924E-1,9.603179932E0,-8.650238037E0
2.119472767E0,-9.653930664E-1,9.617523193E0,-8.636474609E0
2.124508167E0,-9.322357178E-1,9.618225098E0,-8.598358154E0
2.129543567E0,-9.058990479E-1,9.589309692E0,-8.574264526E0
2.134578968E0,-8.855285645E-1,9.564559937E0,-8.621795654E0
2.139614368E0,-8.997039795E-1,9.577392578E0,-8.642562866E0
2.144649768E0,-9.039916992E-1,9.579055786E0,-8.619995117E0
2.149685169E0,-8.518676758E-1,9.612503052E0,-8.667388916E0
2.154720569E0,-8.311004639E-1,9.626815796E0,-8.660812378E0
2.159755970E0,-8.316650391E-1,9.617538452E0,-8.638229370E0
2.164791370E0,-8.070526123E-1,9.617034912E0,-8.663238525E0
2.169826770E0,-7.739410400E-1,9.614639282E0,-8.705352783E0
2.174862171E0,-7.666778564E-1,9.615234375E0,-8.724380493E0
2.179897571E0,-7.769317627E-1,9.611541748E0,-8.751800537E0
2.184932972E0,-7.564392090E-1,9.579559326E0,-8.740905762E0
2.189968372E0,-7.604675293E-1,9.560592651E0,-8.739364624E0
2.195003772E0,-7.532501221E-1,9.579864502E0,-8.753829956E0
2.200039173E0,-7.016143799E-1,9.622436523E0,-8.770706177E0
2.205074573E0,-6.416320801E-1,9.658981323E0,-8.697540283E0
2.210109974E0,-6.308288574E-1,9.643295288E0,-8.675918579E0
2.215145374E0,-6.030578613E-1,9.614089966E0,-8.710388184E0
2.220180774E0,-6.390380859E-1,9.642776489E0,-8.654785156E0
2.225216175E0,-6.171264648E-1,9.651321411E0,-8.681732178E0
2.230251575E0,-5.300903320E-1,9.610473633E0,-8.656295776E0
2.235286976E0,-5.176696777E-1,9.616821289E0,-8.689559937E0
2.240322376E0,-5.144500732E-1,9.648803711E0,-8.685256958E0
2.245357776E0,-4.753570557E-1,9.634460449E0,-8.675460815E0
2.250393177E0,-4.664916992E-1,9.663528442E0,-8.625778198E0
2.255428577E0,-4.557495117E-1,9.646987915E0,-8.636871338E0
2.260463977E0,-4.181213379E-1,9.638000488E0,-8.622299194E0
2.265499378E0,-4.098663330E-1,9.643402100E0,-8.601608276E0
2.270534778E0,-3.940887451E-1,9.646652222E0,-8.602157593E0
2.275570179E0,-3.668212891E-1,9.659057617E0,-8.542953491E0
2.280605579E0,-3.481445312E-1,9.633087158E0,-8.553756714E0
2.285640979E0,-3.946685791E-1,9.609619141E0,-8.598632812E0
2.290676380E0,-3.488159180E-1,9.621109009E0,-8.624023438E0
2.295711780E0,-3.366699219E-1,9.619079590E0,-8.532730103E0
2.300747181E0,-2.813568115E-1,9.666900635E0,-8.494400024E0
2.305799726E0,-2.635345459E-1,9.632736206E0,-8.599838257E0
2.310835126E0,-2.429504395E-1,9.666687012E0,-8.515823364E0
2.315870527E0,-2.299804688E-1,9.651275635E0,-8.527145386E0
2.320905927E0,-2.136230469E-1,9.664779663E0,-8.474395752E0
2.325941328E0,-2.344970703E-1,9.674972534E0,-8.531829834E0
2.330976728E0,-2.630920410E-1,9.653137207E0,-8.527328491E0
2.336012128E0,-1.803741455E-1,9.674591064E0,-8.380996704E0
2.341047529E0,-1.949462891E-1,9.687088013E0,-8.500595093E0
2.346082929E0,-2.188568115E-1,9.589996338E0,-8.500732422E0
2.351118330E0,-1.888732910E-1,9.669830322E0,-8.547637939E0
2.356153730E0,-1.695709229E-1,9.659027100E0,-8.444122314E0
2.361189130E0,-2.613677979E-1,9.597320557E0,-8.438949585E0
2.366224531E0,-1.137695312E-1,9.637969971E0,-8.477172852E0
2.371259931E0,-1.900024414E-1,9.660751343E0,-8.622406006E0
2.376295331E0,-1.564788818E-1,9.637969971E0,-8.540939331E0
2.381330732E0,-1.939392090E-1,9.648513794E0,-8.469009399E0
2.386366132E0,-2.591400146E-1,9.632080078E0,-8.355895996E0
2.391401533E0,-2.027740479E-1,9.697494507E0,-8.481872559E0
2.396436933E0,-1.697998047E-1,9.637542725E0,-8.410751343E0
2.401472333E0,-1.766662598E-1,9.643661499E0,-8.305435181E0
2.406507734E0,-2.125396729E-1,9.703369141E0,-8.375564575E0
2.411543134E0,-2.928314209E-1,9.655044556E0,-8.327651978E0
2.416578535E0,-2.150268555E-1,9.682769775E0,-8.399215698E0
2.421613935E0,-2.788238525E-1,9.678192139E0,-8.420181274E0
2.426649335E0,-3.204498291E-1,9.648666382E0,-8.394653320E0
2.431684736E0,-2.844848633E-1,9.658615112E0,-8.414154053E0
2.436720136E0,-2.971038818E-1,9.656951904E0,-8.387573242E0
2.441755537E0,-2.761230469E-1,9.665664673E0,-8.360855103E0
2.446790937E0,-3.260040283E-1,9.689743042E0,-8.424682617E0
2.451826337E0,-3.504180908E-1,9.640731812E0,-8.307067871E0
2.456861738E0,-3.759918213E-1,9.628387451E0,-8.293136597E0
2.461897138E0,-4.036407471E-1,9.644973755E0,-8.383682251E0
2.466932538E0,-4.332733154E-1,9.633239746E0,-8.404296875E0
2.471967939E0,-3.909454346E-1,9.658843994E0,-8.423248291E0
2.477003339E0,-3.845672607E-1,9.664642334E0,-8.410095215E0
2.482038740E0,-4.308929443E-1,9.613601685E0,-8.323486328E0
2.487074140E0,-4.192504883E-1,9.641860962E0,-8.391235352E0
2.492109540E0,-4.684906006E-1,9.653182983E0,-8.407913208E0
2.497144941E0,-4.435272217E-1,9.635650635E0,-8.414932251E0
2.502180341E0,-4.500885010E-1,9.646713257E0,-8.403335571E0
2.507215742E0,-5.223083496E-1,9.629394531E0,-8.354125977E0
2.512251142E0,-5.202636719E-1,9.618087769E0,-8.305435181E0
2.517286542E0,-5.399169922E-1,9.648681641E0,-8.321273804E0
2.522321943E0,-5.168609619E-1,9.637771606E0,-8.387924194E0
2.527357343E0,-4.917755127E-1,9.636856079E0,-8.419464111E0
2.532392744E0,-5.683135986E-1,9.655242920E0,-8.365447998E0
2.537428144E0,-5.806579590E-1,9.620025635E0,-8.380477905E0
2.542463544E0,-5.373077393E-1,9.608917236E0,-8.340438843E0
2.547498945E0,-5.446319580E-1,9.602111816E0,-8.321502686E0
2.552534345E0,-5.835418701E-1,9.615737915E0,-8.365005493E0
2.557569746E0,-6.135559082E-1,9.602035522E0,-8.430541992E0
2.562605146E0,-6.089324951E-1,9.607421875E0,-8.411544800E0
2.567640546E0,-6.110382080E-1,9.624618530E0,-8.376785278E0
2.572675947E0,-6.309356689E-1,9.609634399E0,-8.332534790E0
2.577711347E0,-6.427764893E-1,9.626174927E0,-8.395736694E0
2.582746747E0,-6.573638916E-1,9.628433228E0,-8.418472290E0
2.587782148E0,-6.651306152E-1,9.617889404E0,-8.406570435E0
2.592817548E0,-6.905975342E-1,9.620086670E0,-8.407638550E0
2.597852949E0,-6.897277832E-1,9.605758667E0,-8.382003784E0
2.602888349E0,-7.068939209E-1,9.594741821E0,-8.410400391E0
2.607923749E0,-7.335815430E-1,9.600585938E0,-8.426971436E0
2.612959150E0,-7.771453857E-1,9.584732056E0,-8.435745239E0
2.617994550E0,-8.342742920E-1,9.593444824E0,-8.403137207E0
2.623029951E0,-8.413238525E-1,9.611953735E0,-8.396255493E0
2.628065351E0,-7.979888916E-1,9.632476807E0,-8.440933228E0
2.633100751E0,-7.849121094E-1,9.638168335E0,-8.402343750E0
2.638136152E0,-7.819213867E-1,9.635482788E0,-8.419921875E0
2.643171552E0,-8.331451416E-1,9.621246338E0,-8.464569092E0
2.648206953E0,-8.646392822E-1,9.608718872E0,-8.472427368E0
2.653242353E0,-8.484191895E-1,9.594100952E0,-8.489852905E0
2.658277753E0,-8.127593994E-1,9.608856201E0,-8.482131958E0
2.663313154E0,-8.109741211E-1,9.596206665E0,-8.468231201E0
2.668348554E0,-8.520812988E-1,9.596298218E0,-8.477615356E0
2.673383955E0,-8.902130127E-1,9.626907349E0,-8.489929199E0
2.678419355E0,-8.874206543E-1,9.613235474E0,-8.472213745E0
2.683454755E0,-8.480377197E-1,9.568679810E0,-8.558609009E0
2.688490156E0,-8.468322754E-1,9.592468262E0,-8.642181396E0
2.693525556E0,-8.263549805E-1,9.593032837E0,-8.616333008E0
2.698560956E0,-8.459930420E-1,9.613403320E0,-8.547500610E0
2.703596357E0,-8.539733887E-1,9.601837158E0,-8.512969971E0
2.708631757E0,-8.402557373E-1,9.568283081E0,-8.600982666E0
2.713667158E0,-8.511199951E-1,9.601074219E0,-8.659576416E0
2.718702558E0,-8.676300049E-1,9.649246216E0,-8.602310181E0
2.723737958E0,-8.681945801E-1,9.638748169E0,-8.543777466E0
2.728773359E0,-8.704223633E-1,9.595275879E0,-8.600051880E0
2.733808759E0,-8.966064453E-1,9.645141602E0,-8.592330933E0
2.738844160E0,-8.760223389E-1,9.637130737E0,-8.626815796E0
2.743879560E0,-8.393096924E-1,9.594894409E0,-8.617141724E0
2.748914960E0,-9.022369385E-1,9.613204956E0,-8.640029907E0
2.753950361E0,-8.688201904E-1,9.615219116E0,-8.604797363E0
2.758985761E0,-9.066619873E-1,9.609909058E0,-8.622146606E0
2.764021162E0,-9.620056152E-1,9.607025146E0,-8.629165649E0
2.769056562E0,-9.559631348E-1,9.600708008E0,-8.601730347E0
2.774091962E0,-8.930206299E-1,9.607391357E0,-8.617675781E0
2.779127363E0,-8.912658691E-1,9.576721191E0,-8.642166138E0
2.784162763E0,-9.398193359E-1,9.609497070E0,-8.584854126E0
2.789198163E0,-9.601898193E-1,9.597579956E0,-8.615585327E0
2.794233564E0,-9.203491211E-1,9.582153320E0,-8.592788696E0
2.799268964E0,-9.187164307E-1,9.618286133E0,-8.624465942E0
2.804304365E0,-9.768371582E-1,9.587005615E0,-8.663269043E0
2.809339765E0,-9.295043945E-1,9.563339233E0,-8.639144897E0
2.814375165E0,-9.716339111E-1,9.602478027E0,-8.670928955E0
2.819410566E0,-9.829711914E-1,9.604400635E0,-8.652481079E0
2.824445966E0,-9.169464111E-1,9.601989746E0,-8.675003052E0
2.829481367E0,-9.344787598E-1,9.653244019E0,-8.674530029E0
2.834516767E0,-9.495239258E-1,9.642990112E0,-8.642700195E0
2.839552167E0,-9.662628174E-1,9.607910156E0,-8.663986206E0
2.844587568E0,-9.853363037E-1,9.601974487E0,-8.655639648E0
2.849622968E0,-9.695739746E-1,9.604171753E0,-8.709075928E0
2.854658369E0,-9.219512939E-1,9.616043091E0,-8.655685425E0
2.859693769E0,-9.168853760E-1,9.632781982E0,-8.641067505E0
2.864729169E0,-9.049835205E-1,9.616119385E0,-8.667251587E0
2.869764570E0,-9.202575684E-1,9.623260498E0,-8.665679932E0
2.874799970E0,-9.585723877E-1,9.623474121E0,-8.698410034E0
2.879835371E0,-9.213409424E-1,9.630081177E0,-8.702972412E0
2.884870771E0,-9.132080078E-1,9.621429443E0,-8.649536133E0
2.889906171E0,-8.882293701E-1,9.590225220E0,-8.632858276E0
2.894941572E0,-8.526763916E-1,9.594512939E0,-8.654525757E0
2.899976972E0,-8.860321045E-1,9.594390869E0,-8.674957275E0
2.905012372E0,-9.110107422E-1,9.618270874E0,-8.680435181E0
2.910047773E0,-8.722076416E-1,9.614868164E0,-8.665649414E0
2.915083173E0,-8.354034424E-1,9.607513428E0,-8.640090942E0
2.920118574E0,-8.379211426E-1,9.633651733E0,-8.701538086E0
2.925153974E0,-8.849945068E-1,9.635757446E0,-8.667999268E0
2.930189374E0,-8.808288574E-1,9.608291626E0,-8.632827759E0
2.935224775E0,-8.731384277E-1,9.597671509E0,-8.679428101E0
2.940260175E0,-7.674865723E-1,9.567062378E0,-8.718704224E0
2.945295576E0,-7.995758057E-1,9.598709106E0,-8.650131226E0
2.950330976E0,-8.210449219E-1,9.605712891E0,-8.710556030E0
2.955366376E0,-8.184051514E-1,9.594589233E0,-8.729827881E0
2.960401777E0,-7.750396729E-1,9.573867798E0,-8.699935913E0
2.965437177E0,-7.747650146E-1,9.619827271E0,-8.650588989E0
2.970472578E0,-7.682037354E-1,9.635986328E0,-8.670028687E0
2.975507978E0,-7.984313965E-1,9.612075806E0,-8.729278564E0
2.980543378E0,-7.837371826E-1,9.606597900E0,-8.695343018E0
2.985578779E0,-7.306213379E-1,9.607788086E0,-8.678497314E0
2.990614179E0,-7.207336426E-1,9.616973877E0,-8.641616821E0
2.995649580E0,-6.978912354E-1,9.623138428E0,-8.617111206E0
3.000684980E0,-6.831207275E-1,9.606475830E0,-8.673477173E0
3.005720380E0,-6.552886963E-1,9.631790161E0,-8.700805664E0
3.010755781E0,-6.774291992E-1,9.635864258E0,-8.643890381E0
3.015791181E0,-6.651611328E-1,9.630081177E0,-8.596405029E0
3.020826581E0,-6.570739746E-1,9.614501953E0,-8.582138062E0
3.025861982E0,-6.709899902E-1,9.616119385E0,-8.646621704E0
3.030897382E0,-6.429290771E-1,9.606292725E0,-8.656524658E0
3.035932783E0,-6.305541992E-1,9.603546143E0,-8.700881958E0
3.040968183E0,-6.103668213E-1,9.622436523E0,-8.712142944E0
3.046003583E0,-5.577850342E-1,9.608657837E0,-8.618850708E0
3.051038984E0,-5.630950928E-1,9.618850708E0,-8.544006348E0
3.056074384E0,-5.895996094E-1,9.636337280E0,-8.557327271E0
3.061109785E0,-5.905609131E-1,9.640197754E0,-8.562622070E0
3.066145185E0,-5.990295410E-1,9.633880615E0,-8.552108765E0
3.071180585E0,-5.518646240E-1,9.636795044E0,-8.517288208E0
3.076215986E0,-5.281829834E-1,9.623077393E0,-8.545104980E0
3.081251386E0,-5.199279785E-1,9.640472412E0,-8.589965820E0
3.086286787E0,-5.167541504E-1,9.626556396E0,-8.602737427E0
3.091322187E0,-5.215606689E-1,9.621582031E0,-8.568115234E0
3.096357587E0,-5.319976807E-1,9.607772827E0,-8.512054443E0
3.101392988E0,-5.063934326E-1,9.621856689E0,-8.502822876E0
3.106428388E0,-4.763946533E-1,9.656661987E0,-8.492568970E0
3.111463788E0,-4.836578369E-1,9.645828247E0,-8.510345459E0
3.116499189E0,-4.970703125E-1,9.638702393E0,-8.537368774E0
3.121534589E0,-4.949493408E-1,9.626358032E0,-8.498046875E0
3.126569990E0,-4.686584473E-1,9.632522583E0,-8.473602295E0
3.131605390E0,-4.510498047E-1,9.626495361E0,-8.498474121E0
3.136640790E0,-4.390106201E-1,9.599777222E0,-8.520156860E0
3.141676191E0,-4.203186035E-1,9.609664917E0,-8.504394531E0
3.146711591E0,-4.465484619E-1,9.621887207E0,-8.477844238E0
3.151746992E0,-4.699859619E-1,9.650009155E0,-8.437759399E0
3.156782392E0,-4.543304443E-1,9.648330688E0,-8.399444580E0
3.161817792E0,-4.527282715E-1,9.619888306E0,-8.433105469E0
3.166853193E0,-4.589233398E-1,9.614242554E0,-8.489944458E0
3.171888593E0,-4.642639160E-1,9.660186768E0,-8.485717773E0
3.176923994E0,-4.880676270E-1,9.652923584E0,-8.446487427E0
3.181959394E0,-4.589233398E-1,9.632781982E0,-8.436187744E0
3.186994794E0,-4.189758301E-1,9.657623291E0,-8.430969238E0
3.192030195E0,-3.972625732E-1,9.650360107E0,-8.455215454E0
3.197065595E0,-4.390258789E-1,9.631881714E0,-8.432723999E0
3.202100996E0,-4.377136230E-1,9.657455444E0,-8.413284302E0
3.207136396E0,-4.298706055E-1,9.682510376E0,-8.420867920E0
3.212171796E0,-4.262084961E-1,9.657028198E0,-8.409194946E0
3.217207197E0,-4.224395752E-1,9.642959595E0,-8.413299561E0
3.222242597E0,-3.887634277E-1,9.633605957E0,-8.424255371E0
3.227277997E0,-3.625030518E-1,9.649719238E0,-8.411026001E0
3.232313398E0,-3.806610107E-1,9.635192871E0,-8.442810059E0
3.237348798E0,-3.848266602E-1,9.633453369E0,-8.411926270E0
3.242384199E0,-4.168090820E-1,9.653549194E0,-8.368820190E0
3.247419599E0,-3.856658936E-1,9.668243408E0,-8.388046265E0
3.252454999E0,-3.722839355E-1,9.667098999E0,-8.384582520E0
3.257490400E0,-3.622283936E-1,9.631668091E0,-8.383514404E0
3.262525800E0,-3.811187744E-1,9.629043579E0,-8.426452637E0
3.267561201E0,-4.193420410E-1,9.661697388E0,-8.475479126E0
3.272596601E0,-4.046936035E-1,9.628753662E0,-8.444229126E0
3.277632001E0,-4.163818359E-1,9.634887695E0,-8.434341431E0
3.282667402E0,-4.113311768E-1,9.641571045E0,-8.387557983E0
3.287702802E0,-3.730773926E-1,9.644332886E0,-8.369003296E0
3.292738203E0,-3.793945312E-1,9.650863647E0,-8.437393188E0
3.297773603E0,-4.063720703E-1,9.664352417E0,-8.412750244E0
3.302809003E0,-4.225769043E-1,9.630096436E0,-8.392959595E0
3.307844404E0,-4.220275879E-1,9.625640869E0,-8.480728149E0
3.312879804E0,-3.936767578E-1,9.658050537E0,-8.478134155E0
3.317915205E0,-3.755035400E-1,9.628479004E0,-8.450531006E0
3.322950605E0,-3.653411865E-1,9.656524658E0,-8.390884399E0
3.327986005E0,-3.825225830E-1,9.665664673E0,-8.451156616E0
3.333021406E0,-4.402770996E-1,9.632141113E0,-8.446334839E0
3.338056806E0,-4.910583496E-1,9.630401611E0,-8.393463135E0
3.343092206E0,-4.770355225E-1,9.607315063E0,-8.428039551E0
3.348127607E0,-4.533081055E-1,9.646072388E0,-8.399017334E0
3.353163007E0,-4.221496582E-1,9.663513184E0,-8.475845337E0
3.358198408E0,-3.884429932E-1,9.668487549E0,-8.533950806E0
3.363233808E0,-4.149322510E-1,9.628448486E0,-8.527587891E0
3.368269208E0,-4.383087158E-1,9.663192749E0,-8.399398804E0
3.373304609E0,-4.315338135E-1,9.634460449E0,-8.458404541E0
3.378340009E0,-4.390716553E-1,9.608612061E0,-8.390930176E0
3.383375410E0,-3.978576660E-1,9.660415649E0,-8.452194214E0
3.388410810E0,-4.902648926E-1,9.640975952E0,-8.526687622E0
3.393446210E0,-5.204620361E-1,9.618652344E0,-8.481384277E0
3.398481611E0,-5.040283203E-1,9.620300293E0,-8.446441650E0
3.403517011E0,-5.207977295E-1,9.619049072E0,-8.457305908E0
3.408552412E0,-5.318298340E-1,9.668838501E0,-8.508605957E0
3.413587812E0,-4.939727783E-1,9.613647461E0,-8.549682617E0
3.418623212E0,-5.003204346E-1,9.667526245E0,-8.468795776E0
3.423658613E0,-5.012512207E-1,9.641677856E0,-8.499465942E0
3.428694013E0,-5.141448975E-1,9.637542725E0,-8.510437012E0
3.433729413E0,-5.515747070E-1,9.636489868E0,-8.525405884E0
3.438764814E0,-5.335540771E-1,9.637603760E0,-8.525634766E0
3.443800214E0,-5.500183105E-1,9.669525146E0,-8.568435669E0
3.448835615E0,-5.764007568E-1,9.635253906E0,-8.551498413E0
3.453871015E0,-5.965728760E-1,9.614181519E0,-8.519058228E0
3.458906415E0,-5.940551758E-1,9.615646362E0,-8.593078613E0
3.463941816E0,-6.134033203E-1,9.610260010E0,-8.578979492E0
3.468977216E0,-6.324005127E-1,9.601196289E0,-8.598648071E0
3.474012617E0,-6.281433105E-1,9.619216919E0,-8.569229126E0
3.479048017E0,-6.620941162E-1,9.623565674E0,-8.578506470E0
3.484083417E0,-6.651611328E-1,9.606597900E0,-8.657730103E0
3.489118818E0,-6.710662842E-1,9.620254517E0,-8.632217407E0
3.494154218E0,-7.125244141E-1,9.615921021E0,-8.630783081E0
3.499189619E0,-6.839141846E-1,9.606964111E0,-8.609649658E0
3.504225019E0,-6.969299316E-1,9.605255127E0,-8.639129639E0
3.509260419E0,-7.214813232E-1,9.610870361E0,-8.645294189E0
3.514295820E0,-7.446136475E-1,9.612350464E0,-8.595352173E0
3.519331220E0,-7.577514648E-1,9.631149292E0,-8.618469238E0
3.524366621E0,-7.819824219E-1,9.613845825E0,-8.653640747E0
3.529402021E0,-7.899780273E-1,9.586212158E0,-8.668350220E0
3.534437421E0,-7.831268311E-1,9.612411499E0,-8.641647339E0
3.539472822E0,-7.800598145E-1,9.612045288E0,-8.657104492E0
3.544508222E0,-8.189086914E-1,9.614440918E0,-8.661148071E0
3.549543622E0,-8.374328613E-1,9.649093628E0,-8.671127319E0
3.554579023E0,-8.331756592E-1,9.635391235E0,-8.644256592E0
3.559614423E0,-8.383178711E-1,9.618026733E0,-8.675735474E0
3.564649824E0,-8.497009277E-1,9.609848022E0,-8.712036133E0
3.569685224E0,-8.534240723E-1,9.607192993E0,-8.687042236E0
3.574720624E0,-8.624877930E-1,9.604202271E0,-8.647186279E0
3.579756025E0,-8.785705566E-1,9.604095459E0,-8.621780396E0
3.584791425E0,-8.951416016E-1,9.616119385E0,-8.623046875E0
3.589826826E0,-9.023742676E-1,9.607345581E0,-8.664672852E0
3.594862226E0,-9.115905762E-1,9.594833374E0,-8.672836304E0
3.599897626E0,-9.207305908E-1,9.595718384E0,-8.680282593E0
3.604933027E0,-9.186859131E-1,9.597122192E0,-8.655975342E0
3.609968427E0,-9.072875977E-1,9.612426758E0,-8.624420166E0
3.615003828E0,-9.398345947E-1,9.604934692E0,-8.623275757E0
3.620039228E0,-9.672241211E-1,9.576705933E0,-8.639114380E0
3.625074628E0,-9.713745117E-1,9.592102051E0,-8.670669556E0
3.630110029E0,-9.450378418E-1,9.605117798E0,-8.683532715E0
3.635145429E0,-9.381713867E-1,9.575698853E0,-8.690902710E0
3.640180830E0,-9.239196777E-1,9.584793091E0,-8.683288574E0
3.645216230E0,-8.941192627E-1,9.598098755E0,-8.692718506E0
3.650251630E0,-9.038696289E-1,9.611984253E0,-8.699066162E0
3.655287031E0,-9.267120361E-1,9.604187012E0,-8.664413452E0
3.660322431E0,-9.306945801E-1,9.619033813E0,-8.657272339E0
3.665357831E0,-9.287872314E-1,9.631210327E0,-8.683731079E0
3.670393232E0,-9.228973389E-1,9.606460571E0,-8.684005737E0
3.675428632E0,-9.118041992E-1,9.611129761E0,-8.666305542E0
3.680464033E0,-9.302978516E-1,9.593368530E0,-8.692199707E0
3.685499433E0,-9.026947021E-1,9.592010498E0,-8.644866943E0
3.690534833E0,-8.906555176E-1,9.577362061E0,-8.641662598E0
3.695570234E0,-8.938598633E-1,9.566131592E0,-8.675399780E0
3.700605634E0,-8.833312988E-1,9.577499390E0,-8.656265259E0
3.705641035E0,-8.936614990E-1,9.589385986E0,-8.626937866E0
3.710676435E0,-8.716735840E-1,9.587265015E0,-8.641464233E0
3.715711835E0,-8.240966797E-1,9.612335205E0,-8.694732666E0
3.720747236E0,-8.166656494E-1,9.623260498E0,-8.678009033E0
3.725782636E0,-8.489074707E-1,9.658081055E0,-8.645706177E0
3.730818037E0,-8.244171143E-1,9.617843628E0,-8.642211914E0
3.735853437E0,-8.247375488E-1,9.603042603E0,-8.638046265E0
3.740888837E0,-7.925262451E-1,9.606018066E0,-8.645370483E0
3.745924238E0,-7.904052734E-1,9.636032104E0,-8.668441772E0
3.750959638E0,-7.987213135E-1,9.622238159E0,-8.622039795E0
3.755995038E0,-7.721252441E-1,9.629241943E0,-8.622741699E0
3.761030439E0,-7.417755127E-1,9.600494385E0,-8.583114624E0
3.766065839E0,-7.456207275E-1,9.588455200E0,-8.631790161E0
3.771101240E0,-7.323303223E-1,9.630340576E0,-8.622482300E0
3.776136640E0,-6.918334961E-1,9.610702515E0,-8.652313232E0
3.781172040E0,-7.095642090E-1,9.628158569E0,-8.564300537E0
3.786207441E0,-6.883392334E-1,9.592422485E0,-8.644699097E0
3.791242841E0,-6.836090088E-1,9.615829468E0,-8.642044067E0
3.796278242E0,-7.043609619E-1,9.602203369E0,-8.597198486E0
3.801313642E0,-7.032470703E-1,9.603622437E0,-8.522094727E0
3.806349042E0,-6.560821533E-1,9.610565186E0,-8.504043579E0
3.811384443E0,-6.202392578E-1,9.641403198E0,-8.548080444E0
3.816419843E0,-5.866851807E-1,9.620880127E0,-8.555145264E0
3.821455244E0,-6.559295654E-1,9.649154663E0,-8.478698730E0
3.826490644E0,-5.955963135E-1,9.651824951E0,-8.500915527E0
3.831526044E0,-5.572509766E-1,9.625000000E0,-8.556640625E0
3.836561445E0,-5.414886475E-1,9.611938477E0,-8.503540039E0
3.841596845E0,-5.774841309E-1,9.627395630E0,-8.500625610E0
3.846632246E0,-5.858001709E-1,9.639556885E0,-8.472930908E0
3.851667646E0,-5.626525879E-1,9.635238647E0,-8.448684692E0
3.856703046E0,-4.936065674E-1,9.644622803E0,-8.429321289E0
3.861738447E0,-4.741363525E-1,9.618499756E0,-8.433975220E0
3.866773847E0,-5.116119385E-1,9.635162354E0,-8.452484131E0
3.871809247E0,-4.625396729E-1,9.635498047E0,-8.412246704E0
3.876844648E0,-4.745025635E-1,9.648056030E0,-8.493392944E0
3.881880048E0,-4.850006104E-1,9.604385376E0,-8.413436890E0
3.886915449E0,-4.573669434E-1,9.610260010E0,-8.374343872E0
3.891950849E0,-4.535064697E-1,9.633560181E0,-8.374694824E0
3.896986249E0,-4.313201904E-1,9.612182617E0,-8.409622192E0
3.902021650E0,-4.674682617E-1,9.653915405E0,-8.344528198E0
3.907057050E0,-5.007629395E-1,9.624130249E0,-8.427627563E0
3.912092451E0,-5.011138916E-1,9.630432129E0,-8.325271606E0
3.917127851E0,-4.617309570E-1,9.610549927E0,-8.394577026E0
3.922163251E0,-4.419250488E-1,9.619186401E0,-8.370452881E0
3.927198652E0,-4.651641846E-1,9.592987061E0,-8.404037476E0
3.932234052E0,-4.557495117E-1,9.611373901E0,-8.362213135E0
3.937269453E0,-4.741363525E-1,9.603607178E0,-8.358718872E0
3.942304853E0,-4.710998535E-1,9.638778687E0,-8.347610474E0
3.947340253E0,-4.498138428E-1,9.631149292E0,-8.330398560E0
3.952375654E0,-4.203491211E-1,9.627914429E0,-8.324478149E0
3.957411054E0,-4.058990479E-1,9.653961182E0,-8.334884644E0
3.962446455E0,-4.189147949E-1,9.665100098E0,-8.368682861E0
3.967481855E0,-4.353790283E-1,9.630294800E0,-8.340759277E0
3.972517255E0,-4.982604980E-1,9.635070801E0,-8.379302979E0
3.977552656E0,-4.669799805E-1,9.673553467E0,-8.337509155E0
3.982588056E0,-4.232635498E-1,9.628890991E0,-8.371765137E0
3.987623456E0,-3.604888916E-1,9.617355347E0,-8.395294189E0
3.992658857E0,-3.628845215E-1,9.640426636E0,-8.391906738E0
3.997694257E0,-3.620758057E-1,9.633224487E0,-8.364746094E0
4.002729658E0,-3.752746582E-1,9.628021240E0,-8.359146118E0
4.007765058E0,-4.244537354E-1,9.635681152E0,-8.402969360E0
4.012800458E0,-4.186859131E-1,9.667083740E0,-8.483444214E0
4.017835859E0,-4.110565186E-1,9.682144165E0,-8.441253662E0
4.022871259E0,-3.956604004E-1,9.660980225E0,-8.440200806E0
4.027906660E0,-3.853149414E-1,9.656753540E0,-8.456924438E0
4.032942060E0,-3.749847412E-1,9.617324829E0,-8.460617065E0
4.037977460E0,-3.915252686E-1,9.636840820E0,-8.414825439E0
4.043012861E0,-3.952636719E-1,9.614135742E0,-8.382659912E0
4.048048261E0,-3.839263916E-1,9.620574951E0,-8.440399170E0
4.053083662E0,-4.433746338E-1,9.620681763E0,-8.492965698E0
4.058119062E0,-4.410858154E-1,9.633621216E0,-8.407882690E0
4.063154462E0,-4.203491211E-1,9.657623291E0,-8.375503540E0
4.068189863E0,-4.178619385E-1,9.656906128E0,-8.429565430E0
4.073225263E0,-3.962249756E-1,9.627258301E0,-8.456405640E0
4.078260663E0,-3.984069824E-1,9.622680664E0,-8.457839966E0
4.083296064E0,-4.302673340E-1,9.615173340E0,-8.444839478E0
4.088331464E0,-4.514770508E-1,9.628616333E0,-8.409530640E0
4.093366865E0,-4.953308105E-1,9.642822266E0,-8.471969604E0
4.098402265E0,-4.954986572E-1,9.641693115E0,-8.516616821E0
4.103437665E0,-4.902038574E-1,9.631546021E0,-8.505096436E0
4.108473066E0,-4.911193848E-1,9.618759155E0,-8.461669922E0
4.113508466E0,-4.943695068E-1,9.635162354E0,-8.474441528E0
4.118543867E0,-5.037078857E-1,9.650344849E0,-8.527191162E0
4.123579267E0,-4.460144043E-1,9.623977661E0,-8.509750366E0
4.128614667E0,-5.050201416E-1,9.628890991E0,-8.470642090E0
4.133650068E0,-5.685577393E-1,9.664138794E0,-8.450592041E0
4.138685468E0,-5.324096680E-1,9.661727905E0,-8.462631226E0
4.143720869E0,-4.989166260E-1,9.643325806E0,-8.451705933E0
4.148756269E0,-5.128631592E-1,9.640930176E0,-8.488601685E0
4.153791669E0,-5.486450195E-1,9.634307861E0,-8.501693726E0
4.158827070E0,-5.631408691E-1,9.641769409E0,-8.480621338E0
4.163862470E0,-5.857696533E-1,9.658111572E0,-8.441101074E0
4.168897871E0,-5.684204102E-1,9.631271362E0,-8.432617188E0
4.173933271E0,-5.607757568E-1,9.615829468E0,-8.485351562E0
4.178968671E0,-5.548248291E-1,9.607864380E0,-8.517730713E0
4.184004072E0,-5.694732666E-1,9.594131470E0,-8.472808838E0
4.189039472E0,-5.968933105E-1,9.608673096E0,-8.467742920E0
4.194074872E0,-6.162109375E-1,9.604171753E0,-8.482376099E0
4.199110273E0,-6.606292725E-1,9.606796265E0,-8.506652832E0
4.204145673E0,-6.181793213E-1,9.640869141E0,-8.514007568E0
4.209181074E0,-6.140899658E-1,9.637542725E0,-8.565795898E0
4.214216474E0,-6.628265381E-1,9.610183716E0,-8.573532104E0
4.219251874E0,-6.891021729E-1,9.641128540E0,-8.613403320E0
4.224287275E0,-7.069549561E-1,9.632400513E0,-8.558990479E0
4.229322675E0,-6.578521729E-1,9.607482910E0,-8.594650269E0
4.234358076E0,-6.472473145E-1,9.646102905E0,-8.567672729E0
4.239393476E0,-6.931304932E-1,9.620285034E0,-8.532760620E0
4.244428876E0,-7.037963867E-1,9.604782104E0,-8.548538208E0
4.249464277E0,-7.689056396E-1,9.602371216E0,-8.524093628E0
4.254499677E0,-8.162231445E-1,9.631561279E0,-8.630081177E0
4.259535078E0,-8.523101807E-1,9.619186401E0,-8.605972290E0
4.264570478E0,-7.755889893E-1,9.613739014E0,-8.629333496E0
4.269605878E0,-7.164154053E-1,9.629180908E0,-8.657989502E0
4.274641279E0,-7.720031738E-1,9.622985840E0,-8.664443970E0
4.279676679E0,-8.096618652E-1,9.632720947E0,-8.700393677E0
4.284712080E0,-7.785186768E-1,9.613143921E0,-8.647689819E0
4.289747480E0,-7.960510254E-1,9.629272461E0,-8.622085571E0
4.294782880E0,-7.675170898E-1,9.630722046E0,-8.633956909E0
4.299818281E0,-7.725372314E-1,9.640762329E0,-8.696441650E0
4.304853681E0,-8.266448975E-1,9.574996948E0,-8.701126099E0
4.309889081E0,-8.547668457E-1,9.583084106E0,-8.681503296E0
4.314924482E0,-8.552398682E-1,9.583023071E0,-8.666259766E0
4.319959882E0,-8.136596680E-1,9.593673706E0,-8.693145752E0
4.324995283E0,-8.032073975E-1,9.585922241E0,-8.682662964E0
4.330030683E0,-7.937622070E-1,9.629562378E0,-8.688186646E0
4.335066083E0,-8.892211914E-1,9.643951416E0,-8.713256836E0
4.340101484E0,-8.524627686E-1,9.599411011E0,-8.692214966E0
4.345136884E0,-8.798675537E-1,9.567443848E0,-8.670532227E0
4.350172285E0,-8.258056641E-1,9.591506958E0,-8.748077393E0
4.355207685E0,-7.516326904E-1,9.650726318E0,-8.650085449E0
4.360243085E0,-7.761383057E-1,9.574218750E0,-8.808090210E0
4.365278486E0,-7.907257080E-1,9.630401611E0,-8.679153442E0
4.370313886E0,-8.073883057E-1,9.623062134E0,-8.707489014E0
4.375349287E0,-8.047943115E-1,9.592742920E0,-8.672668457E0
4.380384687E0,-7.942657471E-1,9.615890503E0,-8.707275391E0
4.385420087E0,-8.324432373E-1,9.609024048E0,-8.693313599E0
4.390455488E0,-8.803710938E-1,9.610412598E0,-8.689132690E0
4.395490888E0,-8.677215576E-1,9.590270996E0,-8.700515747E0
4.400526288E0,-9.125518799E-1,9.564926147E0,-8.732894897E0
4.405561689E0,-8.566131592E-1,9.642318726E0,-8.684005737E0
4.410597089E0,-8.973846436E-1,9.589065552E0,-8.664260864E0
4.415632490E0,-8.487548828E-1,9.600234985E0,-8.722824097E0
4.420667890E0,-8.808898926E-1,9.568969727E0,-8.666687012E0
4.425703290E0,-8.909149170E-1,9.609130859E0,-8.684020996E0
4.430738691E0,-8.457031250E-1,9.591995239E0,-8.689147949E0
4.435774091E0,-9.008178711E-1,9.589599609E0,-8.606185913E0
4.440809492E0,-9.384613037E-1,9.594207764E0,-8.667877197E0
4.445844892E0,-9.623565674E-1,9.631271362E0,-8.661117554E0
4.450880292E0,-9.268798828E-1,9.616943359E0,-8.681900024E0
4.455915693E0,-8.777618408E-1,9.593215942E0,-8.688613892E0
4.460951093E0,-9.065399170E-1,9.626800537E0,-8.653549194E0
4.465986494E0,-8.672790527E-1,9.606216431E0,-8.655166626E0
4.471021894E0,-8.694610596E-1,9.596084595E0,-8.682510376E0
4.476057294E0,-7.937011719E-1,9.623428345E0,-8.638977051E0
4.481092695E0,-7.799072266E-1,9.587860107E0,-8.636398315E0
4.486128095E0,-7.971801758E-1,9.637542725E0,-8.650695801E0
4.491163496E0,-8.576660156E-1,9.638702393E0,-8.632339478E0
4.496198896E0,-8.925781250E-1,9.638000488E0,-8.593307495E0
4.501234296E0,-8.322448730E-1,9.623718262E0,-8.596405029E0
4.506269697E0,-7.743835449E-1,9.619155884E0,-8.653961182E0
4.511305097E0,-7.091979980E-1,9.622924805E0,-8.649261475E0
4.516340497E0,-7.354888916E-1,9.618774414E0,-8.577468872E0
4.521375898E0,-7.644958496E-1,9.596343994E0,-8.586334229E0
4.526411298E0,-7.975311279E-1,9.602279663E0,-8.542861938E0
4.531446699E0,-7.905578613E-1,9.629470825E0,-8.530349731E0
4.536482099E0,-7.775268555E-1,9.638961792E0,-8.583724976E0
4.541517499E0,-6.889038086E-1,9.617874146E0,-8.568801880E0
4.546552900E0,-6.790161133E-1,9.609542847E0,-8.574172974E0
4.551588300E0,-7.142791748E-1,9.598800659E0,-8.541320801E0
4.556623701E0,-7.696533203E-1,9.628585815E0,-8.560821533E0
4.561659101E0,-7.527008057E-1,9.624710083E0,-8.543350220E0
4.566694501E0,-7.145690918E-1,9.626098633E0,-8.572433472E0
4.571729902E0,-6.986694336E-1,9.620666504E0,-8.581039429E0
4.576765302E0,-6.859893799E-1,9.609573364E0,-8.535919189E0
4.581800703E0,-6.900634766E-1,9.626937866E0,-8.521026611E0
4.586836103E0,-6.747741699E-1,9.638458252E0,-8.525878906E0
4.591871503E0,-6.489715576E-1,9.643112183E0,-8.548782349E0
4.596906904E0,-6.286773682E-1,9.622222900E0,-8.558624268E0
4.601942304E0,-6.148986816E-1,9.601333618E0,-8.541564941E0
4.606977705E0,-6.300048828E-1,9.631408691E0,-8.552062988E0
4.612013105E0,-6.266326904E-1,9.627075195E0,-8.501663208E0
4.617048505E0,-6.039886475E-1,9.625595093E0,-8.481231689E0
4.622083906E0,-5.617828369E-1,9.646102905E0,-8.461181641E0
4.627119306E0,-5.260772705E-1,9.652786255E0,-8.376403809E0
4.632154706E0,-4.920043945E-1,9.644546509E0,-8.371215820E0
4.637190107E0,-4.884643555E-1,9.644866943E0,-8.423095703E0
4.642225507E0,-4.478454590E-1,9.632690430E0,-8.466445923E0
4.647260908E0,-4.319610596E-1,9.622207642E0,-8.437774658E0
4.652296308E0,-4.225006104E-1,9.630050659E0,-8.367721558E0
4.657331708E0,-4.434814453E-1,9.654464722E0,-8.343643188E0
4.662367109E0,-3.924102783E-1,9.676895142E0,-8.373092651E0
4.667402509E0,-3.451538086E-1,9.674179077E0,-8.388748169E0
4.672437910E0,-3.672637939E-1,9.661224365E0,-8.308914185E0
4.677473310E0,-3.750762939E-1,9.628555298E0,-8.256347656E0
4.682508710E0,-3.592224121E-1,9.605377197E0,-8.381011963E0
4.687544111E0,-3.323669434E-1,9.654342651E0,-8.401382446E0
4.692579511E0,-2.713775635E-1,9.682083130E0,-8.329971313E0
4.697614912E0,-2.432403564E-1,9.647766113E0,-8.315567017E0
4.702650312E0,-2.984466553E-1,9.654052734E0,-8.228240967E0
4.707685712E0,-3.345947266E-1,9.658065796E0,-8.236267090E0
4.712721113E0,-3.124542236E-1,9.650939941E0,-8.282089233E0
4.717756513E0,-2.871704102E-1,9.684097290E0,-8.226791382E0
4.722791913E0,-2.628631592E-1,9.667510986E0,-8.233581543E0
4.727827314E0,-3.111877441E-1,9.662689209E0,-8.297546387E0
4.732862714E0,-2.820129395E-1,9.652313232E0,-8.257019043E0
4.737898115E0,-2.622833252E-1,9.668090820E0,-8.232269287E0
4.742933515E0,-2.676086426E-1,9.659683228E0,-8.277679443E0
4.747968915E0,-2.550659180E-1,9.645217896E0,-8.300704956E0
4.753004316E0,-2.395019531E-1,9.673141479E0,-8.283096313E0
4.758039716E0,-2.324218750E-1,9.645965576E0,-8.267669678E0
4.763075117E0,-2.685089111E-1,9.614715576E0,-8.281677246E0
4.768110517E0,-2.733001709E-1,9.635345459E0,-8.275085449E0
4.773145917E0,-2.488555908E-1,9.651855469E0,-8.321838379E0
4.778181318E0,-2.355194092E-1,9.663848877E0,-8.333999634E0
4.783216718E0,-2.552490234E-1,9.628921509E0,-8.326171875E0
4.788252119E0,-3.036041260E-1,9.634780884E0,-8.348297119E0
4.793287519E0,-2.241516113E-1,9.641540527E0,-8.461196899E0
4.798322919E0,-2.278442383E-1,9.674774170E0,-8.321212769E0
4.803358320E0,-2.743225098E-1,9.659912109E0,-8.291473389E0
4.808393720E0,-3.062133789E-1,9.637908936E0,-8.374099731E0
4.813429121E0,-2.657318115E-1,9.662490845E0,-8.344299316E0
4.818464521E0,-2.705078125E-1,9.672454834E0,-8.342987061E0
4.823499921E0,-2.782592773E-1,9.651779175E0,-8.384307861E0
4.828535322E0,-3.529357910E-1,9.649444580E0,-8.408325195E0
4.833570722E0,-3.620758057E-1,9.629714966E0,-8.372909546E0
4.838606122E0,-3.556060791E-1,9.645767212E0,-8.396331787E0
4.843641523E0,-3.908843994E-1,9.609054565E0,-8.362503052E0
4.848676923E0,-3.637847900E-1,9.638275146E0,-8.353378296E0
4.853712324E0,-3.622589111E-1,9.653671265E0,-8.403472900E0
4.858747724E0,-3.899536133E-1,9.603424072E0,-8.414627075E0
4.863783124E0,-4.398956299E-1,9.629867554E0,-8.473342896E0
4.868818525E0,-4.549255371E-1,9.698577881E0,-8.432113647E0
4.873853925E0,-4.979400635E-1,9.611358643E0,-8.517288208E0
4.878889326E0,-4.810180664E-1,9.627746582E0,-8.521545410E0
4.883924726E0,-4.600830078E-1,9.607208252E0,-8.483200073E0
4.888960126E0,-4.708251953E-1,9.639328003E0,-8.568771362E0
4.893995527E0,-4.435272217E-1,9.622268677E0,-8.541427612E0
4.899030927E0,-5.149536133E-1,9.659301758E0,-8.550842285E0
4.904066328E0,-5.250854492E-1,9.664505005E0,-8.553771973E0
4.909101728E0,-5.803527832E-1,9.640075684E0,-8.527740479E0
4.914137128E0,-6.247100830E-1,9.640777588E0,-8.510421753E0
4.919172529E0,-5.263214111E-1,9.623260498E0,-8.541091919E0
4.924207929E0,-5.733795166E-1,9.624191284E0,-8.542251587E0
4.929243330E0,-5.926055908E-1,9.634094238E0,-8.552459717E0
4.934278730E0,-6.311340332E-1,9.643218994E0,-8.554611206E0
4.939314130E0,-6.538391113E-1,9.630935669E0,-8.594467163E0
4.944349531E0,-5.866394043E-1,9.623199463E0,-8.556686401E0
4.949384931E0,-6.280517578E-1,9.648910522E0,-8.575546265E0
4.954420331E0,-6.715393066E-1,9.630874634E0,-8.553848267E0
4.959455732E0,-6.569061279E-1,9.619247437E0,-8.551132202E0
4.964491132E0,-7.075195312E-1,9.615585327E0,-8.570007324E0
4.969526533E0,-6.895904541E-1,9.632904053E0,-8.546798706E0
4.974561933E0,-7.129821777E-1,9.619979858E0,-8.603042603E0
4.979597333E0,-7.365722656E-1,9.612045288E0,-8.678131104E0
4.984632734E0,-6.995239258E-1,9.626510620E0,-8.622894287E0
4.989668134E0,-6.985168457E-1,9.609542847E0,-8.596862793E0
4.994703535E0,-7.357788086E-1,9.620407104E0,-8.589904785E0
4.999738935E0,-7.489624023E-1,9.603454590E0,-8.622970581E0
5.004774335E0,-7.699890137E-1,9.629776001E0,-8.678436279E0
5.009809736E0,-7.832946777E-1,9.636322021E0,-8.726287842E0
5.014845136E0,-8.033752441E-1,9.644500732E0,-8.716400146E0
5.019880537E0,-8.082733154E-1,9.623062134E0,-8.684310913E0
5.024915937E0,-7.799835205E-1,9.655181885E0,-8.715042114E0
5.029951337E0,-7.918701172E-1,9.629318237E0,-8.742691040E0
5.034986738E0,-7.697601318E-1,9.621429443E0,-8.744827271E0
5.040022138E0,-7.906799316E-1,9.619445801E0,-8.756851196E0
5.045057538E0,-8.074340820E-1,9.596298218E0,-8.748870850E0
5.050092939E0,-8.453979492E-1,9.597671509E0,-8.723770142E0
5.055128339E0,-8.924102783E-1,9.586868286E0,-8.750671387E0
5.060163740E0,-8.954620361E-1,9.590805054E0,-8.765426636E0
5.065199140E0,-8.865661621E-1,9.589630127E0,-8.737777710E0
5.070234540E0,-8.808593750E-1,9.583328247E0,-8.773132324E0
5.075269941E0,-9.096221924E-1,9.603988647E0,-8.792037964E0
5.080305341E0,-9.331054688E-1,9.610031128E0,-8.719329834E0
5.085340742E0,-9.566650391E-1,9.565139771E0,-8.746383667E0
5.090376142E0,-9.748382568E-1,9.576843262E0,-8.762649536E0
5.095411542E0,-9.555664062E-1,9.599899292E0,-8.759292603E0
5.100446943E0,-9.641876221E-1,9.594772339E0,-8.775787354E0
5.105482343E0,-9.647369385E-1,9.576019287E0,-8.843154907E0
5.110517744E0,-9.778747559E-1,9.593231201E0,-8.843429565E0
5.115553144E0,-9.518432617E-1,9.604827881E0,-8.810577393E0
5.120588544E0,-9.218902588E-1,9.580642700E0,-8.806289673E0
5.125623945E0,-9.656524658E-1,9.584991455E0,-8.800720215E0
5.130659345E0,-9.584808350E-1,9.597061157E0,-8.786270142E0
5.135694746E0,-9.429626465E-1,9.600784302E0,-8.796020508E0
5.140730146E0,-9.767913818E-1,9.585494995E0,-8.785446167E0
5.145765546E0,-1.033569336E0,9.588851929E0,-8.762161255E0
5.150800947E0,-9.870300293E-1,9.580703735E0,-8.769256592E0
5.155836347E0,-9.574584961E-1,9.580261230E0,-8.780441284E0
5.160871747E0,-9.814605713E-1,9.576751709E0,-8.812210083E0
5.165907148E0,-9.604492188E-1,9.598373413E0,-8.790069580E0
5.170942548E0,-9.777526855E-1,9.597488403E0,-8.758087158E0
5.175977949E0,-9.758300781E-1,9.591125488E0,-8.836105347E0
5.181013349E0,-9.888458252E-1,9.617568970E0,-8.842819214E0
5.186048749E0,-1.025695801E0,9.603332520E0,-8.758743286E0
5.191084150E0,-9.946136475E-1,9.590499878E0,-8.770095825E0
5.196119550E0,-9.498291016E-1,9.593795776E0,-8.787704468E0
5.201154951E0,-9.777984619E-1,9.599243164E0,-8.722274780E0
5.206190351E0,-9.754333496E-1,9.572418213E0,-8.654617310E0
5.211225751E0,-9.480133057E-1,9.614593506E0,-8.699005127E0
5.216261152E0,-9.868621826E-1,9.625579834E0,-8.764938354E0
5.221296552E0,-9.902801514E-1,9.633941650E0,-8.757186890E0
5.226331953E0,-9.253997803E-1,9.594726562E0,-8.747436523E0
5.231367353E0,-9.118804932E-1,9.589920044E0,-8.698226929E0
5.236402753E0,-9.270019531E-1,9.593704224E0,-8.592590332E0
5.241438154E0,-8.952941895E-1,9.595718384E0,-8.663681030E0
5.246473554E0,-9.402770996E-1,9.588378906E0,-8.694900513E0
5.251508955E0,-9.392852783E-1,9.599212646E0,-8.661193848E0
5.256544355E0,-8.688201904E-1,9.623809814E0,-8.593566895E0
5.261579755E0,-8.424682617E-1,9.570999146E0,-8.502426147E0
5.266615156E0,-8.352508545E-1,9.586517334E0,-8.583236694E0
5.271650556E0,-8.317260742E-1,9.610046387E0,-8.568511963E0
5.276685956E0,-8.499298096E-1,9.615600586E0,-8.555374146E0
5.281721357E0,-8.208312988E-1,9.627502441E0,-8.591430664E0
5.286756757E0,-7.565917969E-1,9.615066528E0,-8.543121338E0
5.291792158E0,-7.392425537E-1,9.591934204E0,-8.498107910E0
5.296827558E0,-7.693328857E-1,9.573989868E0,-8.467864990E0
5.301862958E0,-8.002319336E-1,9.594665527E0,-8.470458984E0
5.306898359E0,-7.788238525E-1,9.607513428E0,-8.486160278E0
5.311933759E0,-7.252960205E-1,9.608978271E0,-8.466369629E0
5.316969160E0,-7.498931885E-1,9.598678589E0,-8.485183716E0
5.322004560E0,-7.111816406E-1,9.622131348E0,-8.457397461E0
5.327039960E0,-7.071380615E-1,9.638259888E0,-8.434066772E0
5.332075361E0,-7.031555176E-1,9.578079224E0,-8.403869629E0
5.337110761E0,-7.329254150E-1,9.590332031E0,-8.443862915E0
5.342146162E0,-6.271209717E-1,9.587951660E0,-8.413421631E0
5.347181562E0,-6.632690430E-1,9.627243042E0,-8.392517090E0
5.352216962E0,-6.557769775E-1,9.632629395E0,-8.379943848E0
5.357252363E0,-6.640472412E-1,9.603530884E0,-8.442214966E0
5.362287763E0,-6.850738525E-1,9.615493774E0,-8.354751587E0
5.367323163E0,-6.537017822E-1,9.639190674E0,-8.359878540E0
5.372358564E0,-6.549987793E-1,9.670104980E0,-8.355529785E0
5.377393964E0,-6.503448486E-1,9.602676392E0,-8.393035889E0
5.382429365E0,-6.050567627E-1,9.620880127E0,-8.348281860E0
5.387464765E0,-6.192016602E-1,9.630401611E0,-8.343643188E0
5.392500165E0,-5.951995850E-1,9.630966187E0,-8.365600586E0
5.397535566E0,-5.749816895E-1,9.659591675E0,-8.399124146E0
5.402570966E0,-5.271301270E-1,9.605087280E0,-8.349960327E0
5.407606367E0,-5.420074463E-1,9.627899170E0,-8.336029053E0
5.412641767E0,-5.217437744E-1,9.624969482E0,-8.419433594E0
5.417677167E0,-5.596618652E-1,9.614685059E0,-8.372375488E0
5.422712568E0,-5.200958252E-1,9.630111694E0,-8.343338013E0
5.427747968E0,-4.779663086E-1,9.654541016E0,-8.343383789E0
5.432783369E0,-5.675048828E-1,9.631851196E0,-8.369873047E0
5.437818769E0,-5.470886230E-1,9.625488281E0,-8.389770508E0
5.442854169E0,-5.196533203E-1,9.640792847E0,-8.366394043E0
5.447889570E0,-5.138244629E-1,9.613479614E0,-8.423049927E0
5.452924970E0,-4.611511230E-1,9.628662109E0,-8.361404419E0
5.457960371E0,-4.641571045E-1,9.630340576E0,-8.339447021E0
5.462995771E0,-4.402465820E-1,9.617935181E0,-8.350814819E0
5.468031171E0,-4.658813477E-1,9.628402710E0,-8.382843018E0
5.473066572E0,-4.131011963E-1,9.627029419E0,-8.333557129E0
5.478101972E0,-4.165802002E-1,9.618362427E0,-8.297409058E0
5.483137372E0,-4.244537354E-1,9.652236938E0,-8.293991089E0
5.488172773E0,-4.621582031E-1,9.659774780E0,-8.312683105E0
5.493208173E0,-4.470977783E-1,9.649780273E0,-8.372756958E0
5.498243574E0,-4.141082764E-1,9.666320801E0,-8.361038208E0
5.503278974E0,-3.683929443E-1,9.651031494E0,-8.360183716E0
5.508314374E0,-3.627624512E-1,9.643157959E0,-8.331436157E0
5.513349775E0,-3.856811523E-1,9.677413940E0,-8.361404419E0
5.518385175E0,-4.063873291E-1,9.622787476E0,-8.386016846E0
5.523420576E0,-4.078979492E-1,9.645751953E0,-8.420486450E0
5.528455976E0,-4.095611572E-1,9.667724609E0,-8.355407715E0
5.533491376E0,-4.132232666E-1,9.607986450E0,-8.348419189E0
5.538526777E0,-3.791198730E-1,9.627410889E0,-8.379898071E0
5.543562177E0,-3.794555664E-1,9.650131226E0,-8.412368774E0
5.548597578E0,-3.993377686E-1,9.623962402E0,-8.406478882E0
5.553632978E0,-4.289855957E-1,9.627197266E0,-8.433883667E0
5.558668378E0,-4.445495605E-1,9.631500244E0,-8.398040771E0
5.563703779E0,-4.152832031E-1,9.656082153E0,-8.391647339E0
5.568739179E0,-3.988037109E-1,9.652206421E0,-8.430191040E0
5.573774580E0,-4.176940918E-1,9.631866455E0,-8.474777222E0
5.578809980E0,-4.014587402E-1,9.636901855E0,-8.458755493E0
5.583845380E0,-3.907470703E-1,9.641357422E0,-8.411636353E0
5.588880781E0,-4.541015625E-1,9.651245117E0,-8.402359009E0
5.593916181E0,-4.677734375E-1,9.650192261E0,-8.432983398E0
5.598951581E0,-4.265136719E-1,9.610351562E0,-8.485382080E0
5.603986982E0,-4.309539795E-1,9.621215820E0,-8.503677368E0
5.609022382E0,-4.399719238E-1,9.647064209E0,-8.468627930E0
5.614057783E0,-4.316864014E-1,9.665435791E0,-8.488922119E0
5.619093183E0,-4.804840088E-1,9.661026001E0,-8.496185303E0
5.624128583E0,-4.920501709E-1,9.644790649E0,-8.474121094E0
5.629163984E0,-4.850311279E-1,9.652679443E0,-8.462310791E0
5.634199384E0,-4.765319824E-1,9.647155762E0,-8.483871460E0
5.639234785E0,-4.681243896E-1,9.643646240E0,-8.499435425E0
5.644270185E0,-4.303436279E-1,9.645538330E0,-8.516571045E0
5.649305585E0,-4.279785156E-1,9.661529541E0,-8.496398926E0
5.654340986E0,-4.782714844E-1,9.641723633E0,-8.468750000E0
5.659376386E0,-4.899291992E-1,9.627609253E0,-8.503250122E0
5.664411787E0,-4.905853271E-1,9.655029297E0,-8.525192261E0
5.669447187E0,-4.777069092E-1,9.661346436E0,-8.535537720E0
5.674482587E0,-5.061645508E-1,9.665451050E0,-8.533493042E0
5.679517988E0,-5.328369141E-1,9.636428833E0,-8.567611694E0
5.684553388E0,-5.727996826E-1,9.626480103E0,-8.613800049E0
5.689588788E0,-5.969085693E-1,9.643829346E0,-8.579574585E0
5.694624189E0,-5.607147217E-1,9.640594482E0,-8.585998535E0
5.699659589E0,-5.467681885E-1,9.654586792E0,-8.637634277E0
5.704694990E0,-5.503082275E-1,9.638763428E0,-8.659896851E0
5.709730390E0,-5.995483398E-1,9.635559082E0,-8.648635864E0
5.714765790E0,-5.999298096E-1,9.621978760E0,-8.600433350E0
5.719801191E0,-6.239929199E-1,9.641403198E0,-8.593414307E0
5.724836591E0,-6.367187500E-1,9.611602783E0,-8.607025146E0
5.729871992E0,-6.270904541E-1,9.596466064E0,-8.659179688E0
5.734907392E0,-6.141815186E-1,9.630889893E0,-8.671600342E0
5.739942792E0,-6.484527588E-1,9.611083984E0,-8.653808594E0
5.744978193E0,-6.662750244E-1,9.612442017E0,-8.646499634E0
5.750013593E0,-6.583251953E-1,9.618499756E0,-8.635452271E0
5.755048994E0,-6.567993164E-1,9.604476929E0,-8.666580200E0
5.760084394E0,-6.342773438E-1,9.601226807E0,-8.654205322E0
5.765119794E0,-6.750793457E-1,9.628829956E0,-8.671020508E0
5.770155195E0,-6.743316650E-1,9.621109009E0,-8.701049805E0
5.775190595E0,-7.045745850E-1,9.632797241E0,-8.674331665E0
5.780225996E0,-7.108154297E-1,9.620681763E0,-8.625549316E0
5.785261396E0,-6.357574463E-1,9.635101318E0,-8.728775024E0
5.790296796E0,-7.664031982E-1,9.639923096E0,-8.659988403E0
5.795332197E0,-6.725006104E-1,9.632141113E0,-8.710098267E0
5.800367597E0,-6.490325928E-1,9.646072388E0,-8.711074829E0
5.805402997E0,-6.880340576E-1,9.673263550E0,-8.673950195E0
5.810438398E0,-6.834259033E-1,9.631652832E0,-8.645080566E0
5.815473798E0,-7.259368896E-1,9.631378174E0,-8.659347534E0
5.820509199E0,-7.850799561E-1,9.603942871E0,-8.646011353E0
5.825544599E0,-7.659606934E-1,9.609893799E0,-8.587051392E0
5.830579999E0,-7.452239990E-1,9.655822754E0,-8.629989624E0
5.835615400E0,-7.345886230E-1,9.629333496E0,-8.608566284E0
5.840650800E0,-7.876434326E-1,9.612670898E0,-8.635620117E0
5.845686201E0,-8.062591553E-1,9.626678467E0,-8.717544556E0
5.850721601E0,-8.007812500E-1,9.586090088E0,-8.689071655E0
5.855757001E0,-7.779083252E-1,9.634170532E0,-8.634902954E0
5.860792402E0,-8.439483643E-1,9.653289795E0,-8.690032959E0
5.865827802E0,-8.159637451E-1,9.613189697E0,-8.627365112E0
5.870863203E0,-8.629913330E-1,9.602127075E0,-8.656692505E0
5.875898603E0,-8.154602051E-1,9.599487305E0,-8.653045654E0
5.880934003E0,-8.098297119E-1,9.599456787E0,-8.690582275E0
5.885969404E0,-7.883453369E-1,9.628021240E0,-8.719619751E0
5.891004804E0,-8.431549072E-1,9.601867676E0,-8.669723511E0
5.896040205E0,-8.532714844E-1,9.608398438E0,-8.686584473E0
5.901075605E0,-8.870544434E-1,9.578781128E0,-8.702026367E0
5.906111005E0,-8.357238770E-1,9.608917236E0,-8.666168213E0
5.911146406E0,-8.263244629E-1,9.607986450E0,-8.716644287E0
5.916181806E0,-8.253784180E-1,9.635818481E0,-8.703628540E0
5.921217206E0,-8.483428955E-1,9.645294189E0,-8.675186157E0
5.926252607E0,-8.563232422E-1,9.620117188E0,-8.681198120E0
5.931288007E0,-8.681945801E-1,9.612365723E0,-8.622222900E0
5.936323408E0,-8.321228027E-1,9.621627808E0,-8.628112793E0
5.941358808E0,-8.439483643E-1,9.606597900E0,-8.663970947E0
5.946394208E0,-8.711090088E-1,9.606872559E0,-8.677322388E0
5.951429609E0,-8.601989746E-1,9.605316162E0,-8.677566528E0
5.956465009E0,-8.222503662E-1,9.585540771E0,-8.652511597E0
5.961500410E0,-8.716583252E-1,9.617797852E0,-8.663818359E0
5.966535810E0,-8.734893799E-1,9.608261108E0,-8.657363892E0
5.971571210E0,-8.772583008E-1,9.576049805E0,-8.662445068E0
5.976606611E0,-8.463287354E-1,9.568237305E0,-8.693954468E0
5.981642011E0,-8.345031738E-1,9.579376221E0,-8.671234131E0
5.986677412E0,-7.837524414E-1,9.593109131E0,-8.656784058E0
5.991712812E0,-8.491516113E-1,9.617187500E0,-8.642532349E0
5.996748212E0,-8.432769775E-1,9.595611572E0,-8.605590820E0
6.001783613E0,-8.574676514E-1,9.624176025E0,-8.621322632E0
6.006819013E0,-8.280181885E-1,9.594696045E0,-8.627899170E0
6.011854413E0,-8.534240723E-1,9.601119995E0,-8.589645386E0
6.016889814E0,-8.247833252E-1,9.618438721E0,-8.619400024E0
6.021925214E0,-8.331909180E-1,9.607589722E0,-8.608657837E0
6.026960615E0,-8.147888184E-1,9.604293823E0,-8.625518799E0
6.031996015E0,-8.093261719E-1,9.619140625E0,-8.547943115E0
6.037031415E0,-7.866973877E-1,9.615417480E0,-8.547714233E0
6.042066816E0,-8.020324707E-1,9.635604858E0,-8.524139404E0
6.047102216E0,-7.847290039E-1,9.650909424E0,-8.570129395E0
6.052137617E0,-7.590179443E-1,9.648712158E0,-8.587127686E0
6.057173017E0,-7.713470459E-1,9.621505737E0,-8.584854126E0
6.062208417E0,-8.007812500E-1,9.603179932E0,-8.579284668E0
6.067243818E0,-7.815704346E-1,9.599090576E0,-8.563476562E0
6.072279218E0,-7.605438232E-1,9.620986938E0,-8.570922852E0
6.077314619E0,-7.500000000E-1,9.619537354E0,-8.507522583E0
6.082350019E0,-7.638549805E-1,9.602813721E0,-8.480392456E0
6.087385419E0,-7.541351318E-1,9.624206543E0,-8.488784790E0
6.092420820E0,-7.172698975E-1,9.620773315E0,-8.453018188E0
6.097456220E0,-7.213287354E-1,9.613739014E0,-8.468902588E0
6.102491621E0,-7.438049316E-1,9.621902466E0,-8.503356934E0
6.107527021E0,-7.363891602E-1,9.627548218E0,-8.479949951E0
6.112562421E0,-7.025146484E-1,9.625137329E0,-8.422805786E0
6.117597822E0,-6.635284424E-1,9.613967896E0,-8.412734985E0
6.122633222E0,-6.891174316E-1,9.611450195E0,-8.393402100E0
6.127668622E0,-7.121734619E-1,9.646347046E0,-8.379013062E0
6.132704023E0,-6.871185303E-1,9.631011963E0,-8.380477905E0
6.137739423E0,-6.550445557E-1,9.610168457E0,-8.375656128E0
6.142774824E0,-6.229858398E-1,9.617187500E0,-8.381729126E0
6.147810224E0,-6.264801025E-1,9.644866943E0,-8.372604370E0
6.152845624E0,-6.391143799E-1,9.645309448E0,-8.380523682E0
6.157881025E0,-6.322937012E-1,9.637771606E0,-8.422485352E0
6.162916425E0,-5.919952393E-1,9.635803223E0,-8.414825439E0
6.167951826E0,-6.024475098E-1,9.624877930E0,-8.406860352E0
6.172987226E0,-6.006774902E-1,9.617141724E0,-8.411865234E0
6.178022626E0,-6.076202393E-1,9.629776001E0,-8.398071289E0
6.183058027E0,-5.955200195E-1,9.636230469E0,-8.423507690E0
6.188093427E0,-5.698242188E-1,9.624664307E0,-8.421539307E0
6.193128828E0,-5.582122803E-1,9.619415283E0,-8.403945923E0
6.198164228E0,-5.275268555E-1,9.621459961E0,-8.407470703E0
6.203199628E0,-5.483245850E-1,9.606704712E0,-8.378570557E0
6.208235029E0,-5.497894287E-1,9.630187988E0,-8.396316528E0
6.213270429E0,-5.599365234E-1,9.623291016E0,-8.418838501E0
6.218305830E0,-5.827789307E-1,9.623168945E0,-8.392868042E0
6.223341230E0,-5.468902588E-1,9.639968872E0,-8.388793945E0
6.228376630E0,-5.167846680E-1,9.643051147E0,-8.395126343E0
6.233412031E0,-5.237884521E-1,9.652191162E0,-8.361221313E0
6.238447431E0,-5.238800049E-1,9.623199463E0,-8.359252930E0
6.243482831E0,-5.302276611E-1,9.612365723E0,-8.425918579E0
6.248518232E0,-5.078125000E-1,9.627517700E0,-8.471313477E0
6.253553632E0,-5.136260986E-1,9.625808716E0,-8.446105957E0
6.258589033E0,-4.928588867E-1,9.685104370E0,-8.377426147E0
6.263624433E0,-5.124053955E-1,9.656265259E0,-8.375762939E0
6.268659833E0,-4.981689453E-1,9.665313721E0,-8.336242676E0
6.273695234E0,-4.889678955E-1,9.638275146E0,-8.414093018E0
6.278730634E0,-5.146026611E-1,9.648574829E0,-8.396240234E0
6.283766035E0,-5.085449219E-1,9.669296265E0,-8.408508301E0
6.288801435E0,-4.763946533E-1,9.629241943E0,-8.426406860E0
6.293836835E0,-4.771575928E-1,9.653457642E0,-8.411727905E0
6.298872236E0,-4.632263184E-1,9.626068115E0,-8.450897217E0
6.303907636E0,-4.678039551E-1,9.670135498E0,-8.446243286E0
6.308943037E0,-4.734191895E-1,9.634033203E0,-8.427368164E0
6.313978437E0,-5.066528320E-1,9.645950317E0,-8.499633789E0
6.319013837E0,-4.751739502E-1,9.641204834E0,-8.535171509E0
6.324049238E0,-5.153198242E-1,9.648269653E0,-8.444732666E0
6.329084638E0,-4.649353027E-1,9.609451294E0,-8.494720459E0
6.334120038E0,-4.724121094E-1,9.602081299E0,-8.466751099E0
6.339155439E0,-4.611816406E-1,9.625610352E0,-8.451721191E0
6.344190839E0,-4.119567871E-1,9.645431519E0,-8.476760864E0
6.349226240E0,-4.361572266E-1,9.607360840E0,-8.441711426E0
6.354261640E0,-4.741821289E-1,9.604217529E0,-8.467773438E0
6.359297040E0,-4.247741699E-1,9.633453369E0,-8.539413452E0
6.364332441E0,-4.946746826E-1,9.635162354E0,-8.516128540E0
6.369367841E0,-5.048217773E-1,9.623687744E0,-8.542419434E0
6.374403242E0,-4.865112305E-1,9.613967896E0,-8.536499023E0
6.379438642E0,-4.813385010E-1,9.656051636E0,-8.562179565E0
6.384474042E0,-5.265045166E-1,9.637542725E0,-8.526809692E0
6.389509443E0,-5.737762451E-1,9.668228149E0,-8.571731567E0
6.394544843E0,-5.169525146E-1,9.628707886E0,-8.523773193E0
6.399580244E0,-5.136718750E-1,9.665405273E0,-8.489715576E0
6.404615644E0,-4.767913818E-1,9.637710571E0,-8.528488159E0
6.409651044E0,-4.843597412E-1,9.642059326E0,-8.512695312E0
6.414686445E0,-5.000457764E-1,9.636215210E0,-8.561325073E0
6.419721845E0,-5.373229980E-1,9.614852905E0,-8.547348022E0
6.424757246E0,-5.539398193E-1,9.628509521E0,-8.627502441E0
6.429792646E0,-5.381317139E-1,9.612518311E0,-8.553802490E0
6.434828046E0,-5.145263672E-1,9.668838501E0,-8.566711426E0
6.439863447E0,-5.619049072E-1,9.613388062E0,-8.607711792E0
6.444898847E0,-5.945892334E-1,9.665985107E0,-8.623718262E0
6.449934247E0,-5.742340088E-1,9.651626587E0,-8.603637695E0
6.454969648E0,-6.032714844E-1,9.677627563E0,-8.618286133E0
6.460005048E0,-5.814056396E-1,9.644683838E0,-8.587585449E0
6.465040449E0,-6.064147949E-1,9.639739990E0,-8.634017944E0
6.470075849E0,-5.843200684E-1,9.614135742E0,-8.618743896E0
6.475111249E0,-5.750427246E-1,9.617858887E0,-8.600799561E0
6.480146650E0,-6.208190918E-1,9.629257202E0,-8.607360840E0
6.485182050E0,-6.150512695E-1,9.642288208E0,-8.663360596E0
6.490217451E0,-6.084442139E-1,9.631774902E0,-8.618560791E0
6.495252851E0,-6.085205078E-1,9.629058838E0,-8.650588989E0
6.500288251E0,-6.066436768E-1,9.634445190E0,-8.663894653E0
6.505323652E0,-6.361389160E-1,9.631149292E0,-8.698944092E0
6.510359052E0,-6.206054688E-1,9.603607178E0,-8.673812866E0
6.515394453E0,-6.426391602E-1,9.606674194E0,-8.690658569E0
6.520429853E0,-6.484832764E-1,9.632705688E0,-8.715179443E0
6.525465253E0,-6.333007812E-1,9.655487061E0,-8.700653076E0
6.530500654E0,-6.469726562E-1,9.631576538E0,-8.715072632E0
6.535536054E0,-6.618041992E-1,9.628402710E0,-8.681655884E0
6.540571455E0,-6.309204102E-1,9.639175415E0,-8.662796021E0
6.545606855E0,-6.178131104E-1,9.633666992E0,-8.677597046E0
6.550642255E0,-6.692810059E-1,9.627227783E0,-8.678375244E0
6.555677656E0,-6.682891846E-1,9.633666992E0,-8.709182739E0
6.560713056E0,-7.077484131E-1,9.633132935E0,-8.698730469E0
6.565748456E0,-7.125854492E-1,9.628707886E0,-8.624984741E0
6.570783857E0,-6.934661865E-1,9.646743774E0,-8.687728882E0
6.575819257E0,-6.612091064E-1,9.643157959E0,-8.727508545E0
6.580854658E0,-6.502075195E-1,9.632232666E0,-8.729675293E0
6.585890058E0,-6.722869873E-1,9.644226074E0,-8.686843872E0
6.590925458E0,-6.836090088E-1,9.639160156E0,-8.632751465E0
6.595960859E0,-6.866455078E-1,9.633056641E0,-8.648574829E0
6.600996259E0,-6.824188232E-1,9.631576538E0,-8.673187256E0
6.606031660E0,-6.846008301E-1,9.610137939E0,-8.702224731E0
6.611067060E0,-6.871337891E-1,9.593780518E0,-8.736312866E0
6.616102460E0,-6.874542236E-1,9.600051880E0,-8.722991943E0
6.621137861E0,-6.842803955E-1,9.614807129E0,-8.723297119E0
6.626173261E0,-6.986389160E-1,9.623199463E0,-8.703155518E0
6.631208662E0,-7.240142822E-1,9.630401611E0,-8.698257446E0
6.636244062E0,-7.109680176E-1,9.620574951E0,-8.707656860E0
6.641279462E0,-7.197265625E-1,9.604003906E0,-8.747528076E0
6.646314863E0,-7.414703369E-1,9.610809326E0,-8.754699707E0
6.651350263E0,-7.526397705E-1,9.601593018E0,-8.707473755E0
6.656385663E0,-7.408142090E-1,9.610137939E0,-8.746246338E0
6.661421064E0,-7.565917969E-1,9.614364624E0,-8.792358398E0
6.666456464E0,-7.438507080E-1,9.614059448E0,-8.767593384E0
6.671491865E0,-7.675781250E-1,9.601196289E0,-8.730255127E0
6.676527265E0,-7.760009766E-1,9.600585938E0,-8.649932861E0
6.681562665E0,-7.631378174E-1,9.605621338E0,-8.600112915E0
6.686598066E0,-7.886962891E-1,9.582962036E0,-8.641754150E0
6.691633466E0,-7.937927246E-1,9.581207275E0,-8.685852051E0
6.696668867E0,-7.687988281E-1,9.608612061E0,-8.700317383E0
6.701704267E0,-7.696075439E-1,9.575149536E0,-8.669418335E0
6.706739667E0,-8.026123047E-1,9.598693848E0,-8.639816284E0
6.711775068E0,-8.012847900E-1,9.586563110E0,-8.594848633E0
6.716810468E0,-7.740173340E-1,9.593185425E0,-8.599884033E0
6.721845869E0,-7.725982666E-1,9.621093750E0,-8.575439453E0
6.726881269E0,-7.502746582E-1,9.644363403E0,-8.551208496E0
6.731916669E0,-7.816467285E-1,9.621856689E0,-8.618148804E0
6.736952070E0,-7.918395996E-1,9.619079590E0,-8.601058960E0
6.741987470E0,-7.781066895E-1,9.642044067E0,-8.547378540E0
6.747022871E0,-7.913360596E-1,9.614898682E0,-8.514938354E0
6.752058271E0,-7.733459473E-1,9.615844727E0,-8.498992920E0
6.757093671E0,-8.073120117E-1,9.644027710E0,-8.486953735E0
6.762129072E0,-8.506469727E-1,9.599304199E0,-8.502059937E0
6.767164472E0,-8.305053711E-1,9.621185303E0,-8.483978271E0
6.772199872E0,-7.899627686E-1,9.617843628E0,-8.474945068E0
6.777235273E0,-7.925262451E-1,9.609954834E0,-8.444244385E0
6.782270673E0,-8.050537109E-1,9.608978271E0,-8.436355591E0
6.787306074E0,-8.171081543E-1,9.589553833E0,-8.409149170E0
6.792341474E0,-7.996978760E-1,9.589080811E0,-8.428497314E0
6.797376874E0,-7.518005371E-1,9.607803345E0,-8.509445190E0
6.802412275E0,-8.378448486E-1,9.607315063E0,-8.482101440E0
6.807447675E0,-8.368225098E-1,9.566192627E0,-8.444137573E0
6.812483076E0,-8.049621582E-1,9.630538940E0,-8.471435547E0
6.817518476E0,-7.900085449E-1,9.630004883E0,-8.464523315E0
6.822553876E0,-7.987823486E-1,9.602981567E0,-8.466705322E0
6.827589277E0,-8.087310791E-1,9.601562500E0,-8.452468872E0
6.832624677E0,-7.818756104E-1,9.603973389E0,-8.487121582E0
6.837660078E0,-7.939758301E-1,9.604217529E0,-8.398101807E0
6.842695478E0,-7.823486328E-1,9.632690430E0,-8.371215820E0
6.847730878E0,-7.723388672E-1,9.608520508E0,-8.431854248E0
6.852766279E0,-8.253326416E-1,9.588714600E0,-8.384933472E0
6.857801679E0,-8.401336670E-1,9.616973877E0,-8.388397217E0
6.862837080E0,-7.925720215E-1,9.668930054E0,-8.418548584E0
6.867872480E0,-7.561187744E-1,9.615478516E0,-8.396606445E0
6.872907880E0,-7.176361084E-1,9.602050781E0,-8.398223877E0
6.877943281E0,-7.476959229E-1,9.589996338E0,-8.471603394E0
6.882978681E0,-7.074127197E-1,9.618499756E0,-8.488723755E0
6.888014081E0,-7.314605713E-1,9.597244263E0,-8.495452881E0
6.893049482E0,-7.508392334E-1,9.611221313E0,-8.461791992E0
6.898084882E0,-7.802581787E-1,9.605377197E0,-8.422729492E0
6.903120283E0,-7.488403320E-1,9.641067505E0,-8.442474365E0
6.908155683E0,-7.187805176E-1,9.613739014E0,-8.417449951E0
6.913191083E0,-7.478790283E-1,9.614532471E0,-8.378265381E0
6.918226484E0,-7.124633789E-1,9.624404907E0,-8.366516113E0
6.923261884E0,-6.904907227E-1,9.610397339E0,-8.383087158E0
6.928297285E0,-7.358093262E-1,9.623306274E0,-8.334335327E0
6.933332685E0,-7.121734619E-1,9.605560303E0,-8.210174561E0
6.938368085E0,-7.160644531E-1,9.631423950E0,-8.264266968E0
6.943403486E0,-7.449035645E-1,9.590042114E0,-8.366409302E0
6.948438886E0,-7.372131348E-1,9.628707886E0,-8.348617554E0
6.953474287E0,-7.138671875E-1,9.659881592E0,-8.280059814E0
6.958509687E0,-7.152709961E-1,9.632781982E0,-8.312576294E0
6.963545087E0,-7.423553467E-1,9.605804443E0,-8.314147949E0
6.968580488E0,-7.176208496E-1,9.611083984E0,-8.306930542E0
6.973615888E0,-6.769104004E-1,9.650253296E0,-8.220626831E0
6.978651288E0,-6.779174805E-1,9.624359131E0,-8.146499634E0
6.983686689E0,-6.829833984E-1,9.594863892E0,-8.130767822E0
6.988722089E0,-7.174530029E-1,9.609130859E0,-8.139999390E0
6.993757490E0,-7.230834961E-1,9.598754883E0,-8.155227661E0
6.998792890E0,-7.010192871E-1,9.621978760E0,-8.163162231E0
7.003828290E0,-5.924530029E-1,9.624465942E0,-8.151550293E0
7.008863691E0,-6.428680420E-1,9.625167847E0,-8.112075806E0
7.013899091E0,-7.133483887E-1,9.640731812E0,-8.099502563E0
7.018934492E0,-6.724548340E-1,9.641555786E0,-8.078979492E0
7.023969892E0,-6.931304932E-1,9.620880127E0,-8.155136108E0
7.029005292E0,-6.868286133E-1,9.623672485E0,-8.133590698E0
7.034040693E0,-6.811523438E-1,9.629669189E0,-8.061782837E0
7.039076093E0,-6.863708496E-1,9.622833252E0,-8.078384399E0
7.044111494E0,-6.677551270E-1,9.602233887E0,-8.152420044E0
7.049146894E0,-7.058258057E-1,9.592193604E0,-8.116165161E0
7.054182294E0,-6.809082031E-1,9.612960815E0,-8.061111450E0
7.059217695E0,-6.363525391E-1,9.608627319E0,-8.067153931E0
7.064253095E0,-6.571350098E-1,9.601531982E0,-8.092117310E0
7.069288496E0,-6.526794434E-1,9.626876831E0,-8.134689331E0
7.074323896E0,-6.530761719E-1,9.624984741E0,-8.144744873E0
7.079359296E0,-7.067871094E-1,9.601882935E0,-8.172653198E0
7.084394697E0,-7.026977539E-1,9.634658813E0,-8.101699829E0
7.089430097E0,-6.841583252E-1,9.620361328E0,-8.115066528E0
7.094465497E0,-6.943664551E-1,9.602157593E0,-8.168075562E0
7.099500898E0,-6.829528809E-1,9.619415283E0,-8.171157837E0
7.104536298E0,-6.553192139E-1,9.624069214E0,-8.162094116E0
7.109571699E0,-6.429443359E-1,9.647476196E0,-8.161972046E0
7.114607099E0,-6.434631348E-1,9.637710571E0,-8.153396606E0
7.119642499E0,-6.585540771E-1,9.614990234E0,-8.212112427E0
7.124677900E0,-6.871337891E-1,9.621704102E0,-8.271682739E0
7.129713300E0,-6.969604492E-1,9.637451172E0,-8.275741577E0
7.134748701E0,-6.788482666E-1,9.628021240E0,-8.285202026E0
7.139784101E0,-6.885070801E-1,9.619842529E0,-8.299453735E0
7.144819501E0,-6.855926514E-1,9.646636963E0,-8.259811401E0
7.149854902E0,-6.853179932E-1,9.629623413E0,-8.257324219E0
7.154890302E0,-7.034149170E-1,9.594314575E0,-8.273529053E0
7.159925703E0,-7.069244385E-1,9.604385376E0,-8.326980591E0
7.164961103E0,-6.893005371E-1,9.622787476E0,-8.387237549E0
7.169996503E0,-6.815795898E-1,9.640243530E0,-8.400299072E0
7.175031904E0,-7.042999268E-1,9.645294189E0,-8.380584717E0
7.180067304E0,-7.053070068E-1,9.618469238E0,-8.365356445E0
7.185102705E0,-7.154388428E-1,9.613204956E0,-8.442703247E0
7.190138105E0,-6.895751953E-1,9.636871338E0,-8.497833252E0
7.195173505E0,-6.956634521E-1,9.636688232E0,-8.506546021E0
7.200208906E0,-6.874847412E-1,9.613845825E0,-8.538711548E0
7.205244306E0,-6.594543457E-1,9.605743408E0,-8.506301880E0
7.210279706E0,-6.823577881E-1,9.633148193E0,-8.474502563E0
7.215315107E0,-6.820831299E-1,9.635986328E0,-8.514770508E0
7.220350507E0,-6.499938965E-1,9.643249512E0,-8.566848755E0
7.225385908E0,-6.286315918E-1,9.654312134E0,-8.591308594E0
7.230421308E0,-6.437835693E-1,9.640182495E0,-8.613876343E0
7.235456708E0,-6.776428223E-1,9.634445190E0,-8.613693237E0
7.240492109E0,-6.765136719E-1,9.623291016E0,-8.674484253E0
7.245527509E0,-6.391754150E-1,9.620208740E0,-8.731399536E0
7.250562910E0,-6.177978516E-1,9.613922119E0,-8.680862427E0
7.255598310E0,-6.340179443E-1,9.604278564E0,-8.663024902E0
7.260633710E0,-6.264801025E-1,9.644683838E0,-8.711288452E0
7.265669111E0,-5.619659424E-1,9.628173828E0,-8.715881348E0
7.270704511E0,-5.266113281E-1,9.579849243E0,-8.747436523E0
7.275739912E0,-5.403289795E-1,9.629806519E0,-8.772567749E0
7.280775312E0,-5.587463379E-1,9.658355713E0,-8.803115845E0
7.285810712E0,-5.793304443E-1,9.617614746E0,-8.808166504E0
7.290846113E0,-5.951995850E-1,9.610443115E0,-8.853942871E0
7.295881513E0,-5.685729980E-1,9.642654419E0,-8.831542969E0
7.300916913E0,-5.562896729E-1,9.631668091E0,-8.820404053E0
7.305952314E0,-5.390777588E-1,9.658020020E0,-8.817581177E0
7.310987714E0,-5.258789062E-1,9.657623291E0,-8.849685669E0
7.316023115E0,-5.589294434E-1,9.640213013E0,-8.871658325E0
7.321058515E0,-5.791168213E-1,9.612655640E0,-8.872268677E0
7.326093915E0,-5.391998291E-1,9.627899170E0,-8.890884399E0
7.331129316E0,-5.230560303E-1,9.626159668E0,-8.908218384E0
7.336164716E0,-5.539550781E-1,9.662124634E0,-8.912185669E0
7.341200117E0,-5.813903809E-1,9.685684204E0,-8.827560425E0
7.346235517E0,-4.959716797E-1,9.621765137E0,-8.924789429E0
7.351270917E0,-4.817657471E-1,9.649414062E0,-8.849502563E0
7.356306318E0,-5.639801025E-1,9.669692993E0,-8.935028076E0
7.361341718E0,-5.286102295E-1,9.609741211E0,-8.841384888E0
7.366377119E0,-5.242156982E-1,9.636398315E0,-8.939422607E0
7.371412519E0,-5.427093506E-1,9.683975220E0,-8.829589844E0
7.376447919E0,-5.525207520E-1,9.631393433E0,-8.880477905E0
7.381483320E0,-5.668029785E-1,9.665664673E0,-8.869720459E0
7.386518720E0,-5.288848877E-1,9.608978271E0,-8.938613892E0
7.391554121E0,-5.050048828E-1,9.625839233E0,-8.799728394E0
7.396589521E0,-4.987792969E-1,9.641632080E0,-8.925216675E0
7.401624921E0,-5.445556641E-1,9.607177734E0,-8.848693848E0
7.406660322E0,-5.881042480E-1,9.625839233E0,-8.936614990E0
7.411695722E0,-5.777587891E-1,9.633789062E0,-8.836990356E0
7.416731122E0,-5.152587891E-1,9.695480347E0,-8.809097290E0
7.421766523E0,-5.903472900E-1,9.633255005E0,-8.873565674E0
7.426801923E0,-4.969329834E-1,9.614990234E0,-8.949417114E0
7.431837324E0,-5.505523682E-1,9.688339233E0,-8.867614746E0
7.436872724E0,-5.722961426E-1,9.606033325E0,-8.839035034E0
7.441908124E0,-5.418090820E-1,9.642303467E0,-8.762145996E0
7.446943525E0,-5.972290039E-1,9.624130249E0,-8.815750122E0
7.451978925E0,-5.260620117E-1,9.632644653E0,-8.803054810E0
7.457014326E0,-5.370178223E-1,9.648803711E0,-8.781631470E0
7.462049726E0,-5.394592285E-1,9.665374756E0,-8.745193481E0
7.467085126E0,-6.077728271E-1,9.687988281E0,-8.781417847E0
7.472120527E0,-6.617126465E-1,9.631668091E0,-8.837249756E0
7.477155927E0,-6.345825195E-1,9.629440308E0,-8.769790649E0
7.482191328E0,-6.557769775E-1,9.596557617E0,-8.761581421E0
7.487226728E0,-6.097412109E-1,9.601730347E0,-8.649002075E0
7.492262128E0,-6.429138184E-1,9.599624634E0,-8.690643311E0
7.497297529E0,-6.287689209E-1,9.628875732E0,-8.732055664E0
7.502332929E0,-6.121978760E-1,9.625671387E0,-8.708267212E0
7.507368330E0,-6.062469482E-1,9.583389282E0,-8.643447876E0
7.512403730E0,-5.932769775E-1,9.606933594E0,-8.676361084E0
7.517439130E0,-6.193695068E-1,9.643783569E0,-8.639343262E0
7.522474531E0,-6.383056641E-1,9.625396729E0,-8.675689697E0
7.527509931E0,-6.150817871E-1,9.621185303E0,-8.693923950E0
7.532545331E0,-6.282806396E-1,9.620346069E0,-8.711303711E0
7.537580732E0,-5.986938477E-1,9.618286133E0,-8.654617310E0
7.542616132E0,-6.788024902E-1,9.638076782E0,-8.620010376E0
7.547651533E0,-6.837768555E-1,9.596313477E0,-8.608230591E0
7.552686933E0,-6.407623291E-1,9.615188599E0,-8.651428223E0
7.557722333E0,-6.170806885E-1,9.654953003E0,-8.615219116E0
7.562757734E0,-5.638885498E-1,9.626846313E0,-8.550033569E0
7.567793134E0,-5.755920410E-1,9.613143921E0,-8.509643555E0
7.572828535E0,-5.916748047E-1,9.653152466E0,-8.558731079E0
7.577863935E0,-5.995025635E-1,9.617813110E0,-8.554412842E0
7.582899335E0,-5.967407227E-1,9.604293823E0,-8.470779419E0
7.587934736E0,-5.803375244E-1,9.617187500E0,-8.496093750E0
7.592970136E0,-5.870056152E-1,9.639236450E0,-8.509933472E0
7.598005537E0,-6.194458008E-1,9.619003296E0,-8.438232422E0
7.603040937E0,-6.161956787E-1,9.611694336E0,-8.485778809E0
7.608076337E0,-6.055450439E-1,9.612182617E0,-8.532577515E0
7.613111738E0,-6.596679688E-1,9.623550415E0,-8.484420776E0
7.618147138E0,-5.832977295E-1,9.622955322E0,-8.461669922E0
7.623182538E0,-6.120452881E-1,9.602554321E0,-8.579421997E0
7.628217939E0,-6.273193359E-1,9.636734009E0,-8.564315796E0
7.633253339E0,-5.428771973E-1,9.671951294E0,-8.325195312E0
7.638288740E0,-5.382385254E-1,9.662414551E0,-8.328430176E0
7.643324140E0,-5.622711182E-1,9.641021729E0,-8.317962646E0
7.648359540E0,-5.836486816E-1,9.617675781E0,-8.398498535E0
7.653394941E0,-5.904846191E-1,9.621047974E0,-8.575714111E0
7.658430341E0,-6.180572510E-1,9.634750366E0,-8.610122681E0
7.663465742E0,-5.998840332E-1,9.643539429E0,-8.552291870E0
7.668501142E0,-6.007995605E-1,9.599121094E0,-8.504028320E0
7.673536542E0,-6.299438477E-1,9.604354858E0,-8.541198730E0
7.678571943E0,-6.625671387E-1,9.623260498E0,-8.530807495E0
7.683607343E0,-6.286010742E-1,9.607131958E0,-8.543823242E0
7.688642744E0,-5.926818848E-1,9.618515015E0,-8.572036743E0
7.693678144E0,-5.995483398E-1,9.639694214E0,-8.588088989E0
7.698713544E0,-6.065521240E-1,9.615783691E0,-8.560974121E0
7.703748945E0,-6.119689941E-1,9.601593018E0,-8.516067505E0
7.708784345E0,-6.587829590E-1,9.634689331E0,-8.451187134E0
7.713819746E0,-6.758728027E-1,9.628601074E0,-8.457672119E0
7.718855146E0,-6.732940674E-1,9.606643677E0,-8.489425659E0
7.723890546E0,-6.214141846E-1,9.617797852E0,-8.416030884E0
7.728925947E0,-5.923461914E-1,9.612823486E0,-8.357620239E0
7.733961347E0,-6.498565674E-1,9.603302002E0,-8.374526978E0
7.738996747E0,-6.297454834E-1,9.596817017E0,-8.428085327E0
7.744032148E0,-6.216888428E-1,9.655670166E0,-8.467895508E0
7.749067548E0,-6.007995605E-1,9.661544800E0,-8.375762939E0
7.754102949E0,-6.237945557E-1,9.659408569E0,-8.393722534E0
7.759138349E0,-6.607513428E-1,9.615402222E0,-8.420227051E0
7.764173749E0,-7.389526367E-1,9.606597900E0,-8.464920044E0
7.769209150E0,-6.843109131E-1,9.623458862E0,-8.419433594E0
7.774244550E0,-6.800537109E-1,9.602249146E0,-8.393280029E0
7.779279951E0,-6.581268311E-1,9.576110840E0,-8.329818726E0
7.784315351E0,-6.597137451E-1,9.601028442E0,-8.299377441E0
7.789350751E0,-7.138519287E-1,9.584106445E0,-8.391555786E0
7.794386152E0,-7.032928467E-1,9.635940552E0,-8.376312256E0
7.799421552E0,-7.507324219E-1,9.641616821E0,-8.377105713E0
7.804456953E0,-7.840118408E-1,9.602172852E0,-8.329574585E0
7.809492353E0,-7.202453613E-1,9.626739502E0,-8.401824951E0
7.814527753E0,-6.992950439E-1,9.592178345E0,-8.474136353E0
7.819563154E0,-6.731872559E-1,9.638702393E0,-8.463363647E0
7.824598554E0,-7.585906982E-1,9.611770630E0,-8.410339355E0
7.829633955E0,-7.885131836E-1,9.587661743E0,-8.442977905E0
7.834669355E0,-8.355102539E-1,9.583038330E0,-8.390686035E0
7.839704755E0,-8.536071777E-1,9.630050659E0,-8.377532959E0
7.844740156E0,-8.005981445E-1,9.613388062E0,-8.302856445E0
7.849775556E0,-6.499633789E-1,9.606933594E0,-8.370880127E0
7.854810956E0,-7.050170898E-1,9.651000977E0,-8.399047852E0
7.859846357E0,-8.357391357E-1,9.622711182E0,-8.535583496E0
7.864881757E0,-9.042358398E-1,9.627670288E0,-8.600067139E0
7.869917158E0,-8.064880371E-1,9.609664917E0,-8.541076660E0
7.874952558E0,-7.770996094E-1,9.615936279E0,-8.431900024E0
7.879987958E0,-9.081115723E-1,9.592605591E0,-8.497390747E0
7.885023359E0,-9.428710938E-1,9.613601685E0,-8.592864990E0
7.890058759E0,-8.737030029E-1,9.609039307E0,-8.514892578E0
7.895094160E0,-8.180847168E-1,9.620529175E0,-8.511322021E0
7.900129560E0,-9.105072021E-1,9.592834473E0,-8.414337158E0
7.905164960E0,-8.445281982E-1,9.616134644E0,-8.390899658E0
7.910200361E0,-8.162689209E-1,9.688705444E0,-8.384078979E0
7.915235761E0,-8.539581299E-1,9.607925415E0,-8.390563965E0
7.920271162E0,-8.358001709E-1,9.593460083E0,-8.475219727E0
7.925306562E0,-8.330078125E-1,9.638504028E0,-8.645645142E0
7.930341962E0,-8.334045410E-1,9.592514038E0,-8.591079712E0
7.935377363E0,-8.921051025E-1,9.566909790E0,-8.610198975E0
7.940412763E0,-7.999572754E-1,9.540664673E0,-8.567794800E0
7.945448163E0,-8.330535889E-1,9.615417480E0,-8.582183838E0
7.950483564E0,-8.094024658E-1,9.557754517E0,-8.642150879E0
7.955518964E0,-7.860260010E-1,9.564575195E0,-8.554672241E0
7.960554365E0,-7.606811523E-1,9.644973755E0,-8.547103882E0
7.965589765E0,-7.997131348E-1,9.576232910E0,-8.470657349E0
7.970625165E0,-8.886260986E-1,9.568847656E0,-8.591537476E0
7.975660566E0,-7.927551270E-1,9.643722534E0,-8.604080200E0
7.980695966E0,-8.227081299E-1,9.647308350E0,-8.575134277E0
7.985731367E0,-8.116455078E-1,9.599517822E0,-8.490219116E0
7.990766767E0,-8.040618896E-1,9.640151978E0,-8.531127930E0
7.995802167E0,-8.565368652E-1,9.612197876E0,-8.509002686E0
8.000837568E0,-8.771820068E-1,9.606048584E0,-8.599517822E0
8.005872968E0,-9.060363770E-1,9.612533569E0,-8.610809326E0
8.010908369E0,-8.142547607E-1,9.642257690E0,-8.630310059E0
8.015943769E0,-7.713165283E-1,9.639068604E0,-8.547241211E0
8.020979169E0,-7.834320068E-1,9.601440430E0,-8.553192139E0
8.026014570E0,-7.326049805E-1,9.600784302E0,-8.530853271E0
8.031049970E0,-6.834716797E-1,9.646789551E0,-8.619552612E0
8.036085371E0,-6.621856689E-1,9.620529175E0,-8.631881714E0
8.041120771E0,-7.389373779E-1,9.612045288E0,-8.568649292E0
8.046156171E0,-7.353973389E-1,9.623077393E0,-8.471466064E0
8.051191572E0,-7.690734863E-1,9.603256226E0,-8.454742432E0
8.056226972E0,-7.963867188E-1,9.620925903E0,-8.510971069E0
8.061262372E0,-8.138122559E-1,9.619644165E0,-8.507354736E0
8.066297773E0,-7.813415527E-1,9.607925415E0,-8.472625732E0
8.071333173E0,-6.890716553E-1,9.618026733E0,-8.469619751E0
8.076368574E0,-6.665954590E-1,9.618774414E0,-8.515792847E0
8.081403974E0,-7.006072998E-1,9.628707886E0,-8.493362427E0
8.086439374E0,-7.114715576E-1,9.595855713E0,-8.468597412E0
8.091474775E0,-6.982269287E-1,9.582565308E0,-8.493530273E0
8.096510175E0,-6.366271973E-1,9.625640869E0,-8.519485474E0
8.101545576E0,-6.656036377E-1,9.626968384E0,-8.513137817E0
8.106580976E0,-6.503448486E-1,9.615997314E0,-8.457138062E0
8.111616376E0,-6.468200684E-1,9.651473999E0,-8.464569092E0
8.116651777E0,-6.248321533E-1,9.666229248E0,-8.548995972E0
8.121687177E0,-5.850372314E-1,9.647216797E0,-8.588241577E0
8.126722578E0,-6.170654297E-1,9.640121460E0,-8.522430420E0
8.131757978E0,-6.134185791E-1,9.615417480E0,-8.511825562E0
8.136793378E0,-5.873718262E-1,9.630172729E0,-8.500869751E0
8.141828779E0,-5.634307861E-1,9.647918701E0,-8.485610962E0
8.146864179E0,-5.991363525E-1,9.648895264E0,-8.501510620E0
8.151899580E0,-5.709686279E-1,9.639724731E0,-8.516082764E0
8.156934980E0,-5.195465088E-1,9.635269165E0,-8.490341187E0
8.161970380E0,-5.191497803E-1,9.631027222E0,-8.542907715E0
8.167005781E0,-4.731445312E-1,9.660247803E0,-8.612991333E0
8.172041181E0,-4.924316406E-1,9.671401978E0,-8.568588257E0
8.177076581E0,-5.418853760E-1,9.657302856E0,-8.581253052E0
8.182111982E0,-5.100860596E-1,9.643112183E0,-8.590057373E0
8.187147382E0,-5.505218506E-1,9.670227051E0,-8.575836182E0
8.192182783E0,-5.825347900E-1,9.618972778E0,-8.585464478E0
8.197218183E0,-5.785369873E-1,9.600952148E0,-8.563049316E0
8.202253583E0,-5.737915039E-1,9.632827759E0,-8.626571655E0
8.207288984E0,-5.359497070E-1,9.645996094E0,-8.644012451E0
8.212324384E0,-5.247344971E-1,9.660278320E0,-8.588073730E0
8.217359785E0,-5.523986816E-1,9.615936279E0,-8.587646484E0
8.222395185E0,-5.407257080E-1,9.593109131E0,-8.669845581E0
8.227430585E0,-5.677947998E-1,9.628723145E0,-8.663177490E0
8.232465986E0,-5.794677734E-1,9.633193970E0,-8.625396729E0
8.237501386E0,-5.698394775E-1,9.629684448E0,-8.645553589E0
8.242536787E0,-4.958343506E-1,9.628692627E0,-8.623840332E0
8.247572187E0,-4.652862549E-1,9.636581421E0,-8.622100830E0
8.252607587E0,-4.350738525E-1,9.606903076E0,-8.644149780E0
8.257642988E0,-4.506683350E-1,9.607055664E0,-8.641738892E0
8.262678388E0,-5.634002686E-1,9.650634766E0,-8.642257690E0
8.267713788E0,-5.345458984E-1,9.632934570E0,-8.596359253E0
8.272749189E0,-4.579162598E-1,9.670806885E0,-8.665679932E0
8.277784589E0,-4.537963867E-1,9.727798462E0,-8.702178955E0
8.282819990E0,-4.669036865E-1,9.732360840E0,-8.613021851E0
8.287855390E0,-4.237518311E-1,9.641006470E0,-8.640029907E0
8.292890790E0,-4.006958008E-1,9.647399902E0,-8.687652588E0
8.297926191E0,-4.351501465E-1,9.716812134E0,-8.611663818E0
8.302961591E0,-4.787292480E-1,9.677078247E0,-8.725708008E0
8.307996992E0,-4.880523682E-1,9.662094116E0,-8.558868408E0
8.313032392E0,-4.904632568E-1,9.645095825E0,-8.526107788E0
8.318067792E0,-3.659667969E-1,9.619781494E0,-8.616851807E0
8.323103193E0,-3.829345703E-1,9.628555298E0,-8.600433350E0
8.328138593E0,-4.683532715E-1,9.603057861E0,-8.631576538E0
8.333173994E0,-4.428863525E-1,9.599456787E0,-8.528228760E0
8.338209394E0,-4.681243896E-1,9.663070679E0,-8.710006714E0
8.343244794E0,-4.868774414E-1,9.584457397E0,-8.660461426E0
8.348280195E0,-4.949951172E-1,9.645736694E0,-8.755920410E0
8.353315595E0,-4.315948486E-1,9.671676636E0,-8.566284180E0
8.358350996E0,-4.555816650E-1,9.653137207E0,-8.586349487E0
8.363386396E0,-4.823760986E-1,9.665405273E0,-8.457412720E0
8.368421796E0,-4.517669678E-1,9.661544800E0,-8.644317627E0
8.373457197E0,-4.434204102E-1,9.629043579E0,-8.662185669E0
8.378492597E0,-4.805908203E-1,9.609313965E0,-8.501266479E0
8.383527997E0,-4.413146973E-1,9.627777100E0,-8.561721802E0
8.388563398E0,-5.003204346E-1,9.599456787E0,-8.612503052E0
8.393598798E0,-4.421691895E-1,9.649551392E0,-8.590957642E0
8.398634199E0,-5.481567383E-1,9.657440186E0,-8.579803467E0
8.403669599E0,-4.623260498E-1,9.599502563E0,-8.511352539E0
8.408704999E0,-4.663543701E-1,9.662796021E0,-8.542953491E0
8.413740400E0,-5.024566650E-1,9.646636963E0,-8.530517578E0
8.418775800E0,-4.605102539E-1,9.718933105E0,-8.511886597E0
8.423811201E0,-5.018310547E-1,9.686157227E0,-8.498260498E0
8.428846601E0,-4.916229248E-1,9.609588623E0,-8.439132690E0
8.433882001E0,-4.984741211E-1,9.617034912E0,-8.443496704E0
8.438917402E0,-4.802856445E-1,9.624893188E0,-8.436782837E0
8.443952802E0,-4.656524658E-1,9.623764038E0,-8.383651733E0
8.448988203E0,-4.267120361E-1,9.656402588E0,-8.417312622E0
8.454023603E0,-4.934539795E-1,9.607543945E0,-8.433593750E0
8.459059003E0,-6.040191650E-1,9.616073608E0,-8.530364990E0
8.464094404E0,-6.167602539E-1,9.631088257E0,-8.481994629E0
8.469129804E0,-6.416473389E-1,9.634399414E0,-8.478240967E0
8.474165205E0,-6.241607666E-1,9.626052856E0,-8.388641357E0
8.479200605E0,-5.637969971E-1,9.609298706E0,-8.458496094E0
8.484236005E0,-5.118713379E-1,9.629150391E0,-8.388641357E0
8.489271406E0,-5.518035889E-1,9.618041992E0,-8.365463257E0
8.494306806E0,-6.069641113E-1,9.626708984E0,-8.413253784E0
8.499342206E0,-6.440277100E-1,9.605133057E0,-8.488601685E0
8.504377607E0,-6.228027344E-1,9.630950928E0,-8.517181396E0
8.509413007E0,-6.230773926E-1,9.596862793E0,-8.485244751E0
8.514448408E0,-6.330261230E-1,9.619689941E0,-8.447662354E0
8.519483808E0,-6.930694580E-1,9.629959106E0,-8.457046509E0
8.524519208E0,-6.834259033E-1,9.597183228E0,-8.387008667E0
8.529554609E0,-6.724700928E-1,9.618576050E0,-8.381393433E0
8.534590009E0,-6.381683350E-1,9.610015869E0,-8.376281738E0
8.539625410E0,-5.867462158E-1,9.617065430E0,-8.393707275E0
8.544660810E0,-6.050567627E-1,9.627792358E0,-8.388732910E0
8.549696210E0,-6.043090820E-1,9.656677246E0,-8.442031860E0
8.554731611E0,-6.191406250E-1,9.631439209E0,-8.424911499E0
8.559767011E0,-6.518707275E-1,9.600372314E0,-8.427795410E0
8.564802412E0,-6.844177246E-1,9.625030518E0,-8.348495483E0
8.569837812E0,-7.367553711E-1,9.613937378E0,-8.391311646E0
8.574873212E0,-6.880340576E-1,9.615447998E0,-8.389755249E0
8.579908613E0,-6.420135498E-1,9.664749146E0,-8.362915039E0
8.584944013E0,-6.571960449E-1,9.634979248E0,-8.349380493E0
8.589979413E0,-6.726684570E-1,9.630355835E0,-8.366851807E0
8.595014814E0,-6.643066406E-1,9.657684326E0,-8.389953613E0
8.600050214E0,-6.442871094E-1,9.654083252E0,-8.412185669E0
8.605085615E0,-6.472473145E-1,9.626296997E0,-8.346832275E0
8.610121015E0,-6.916351318E-1,9.588226318E0,-8.316375732E0
8.615156415E0,-7.363586426E-1,9.607315063E0,-8.357940674E0
8.620191816E0,-7.214050293E-1,9.650772095E0,-8.369705200E0
8.625227216E0,-6.953735352E-1,9.627182007E0,-8.379760742E0
8.630262617E0,-7.047271729E-1,9.628845215E0,-8.361511230E0
8.635298017E0,-6.923217773E-1,9.617675781E0,-8.347915649E0
8.640333417E0,-6.964111328E-1,9.611175537E0,-8.362609863E0
8.645368818E0,-7.624206543E-1,9.624435425E0,-8.378158569E0
8.650404218E0,-7.927093506E-1,9.605880737E0,-8.367233276E0
8.655439619E0,-7.810668945E-1,9.600036621E0,-8.380416870E0
8.660475019E0,-8.019561768E-1,9.619247437E0,-8.410873413E0
8.665510419E0,-8.059082031E-1,9.628021240E0,-8.411972046E0
8.670545820E0,-7.770843506E-1,9.646713257E0,-8.415969849E0
8.675581220E0,-7.767791748E-1,9.617874146E0,-8.428512573E0
8.680616621E0,-7.818298340E-1,9.582412720E0,-8.434585571E0
8.685652021E0,-8.292999268E-1,9.583206177E0,-8.427383423E0
8.690687421E0,-8.115692139E-1,9.605209351E0,-8.435897827E0
8.695722822E0,-7.938690186E-1,9.608337402E0,-8.420272827E0
8.700758222E0,-8.138580322E-1,9.595932007E0,-8.442276001E0
8.705793622E0,-8.192901611E-1,9.605850220E0,-8.498001099E0
8.710829023E0,-8.436889648E-1,9.598495483E0,-8.527954102E0
8.715864423E0,-8.852539062E-1,9.599212646E0,-8.485961914E0
8.720899824E0,-8.765716553E-1,9.616821289E0,-8.458572388E0
8.725935224E0,-8.645172119E-1,9.629638672E0,-8.481719971E0
8.730970624E0,-8.628997803E-1,9.613327026E0,-8.485366821E0
8.736006025E0,-8.918457031E-1,9.597610474E0,-8.471679688E0
8.741041425E0,-8.816223145E-1,9.628067017E0,-8.495666504E0
8.746076826E0,-8.665771484E-1,9.606719971E0,-8.517929077E0
8.751112226E0,-8.354034424E-1,9.626556396E0,-8.474090576E0
8.756147626E0,-9.126892090E-1,9.612106323E0,-8.471023560E0
8.761183027E0,-9.701995850E-1,9.612426758E0,-8.529830933E0
8.766218427E0,-9.466400146E-1,9.616119385E0,-8.525024414E0
8.771253828E0,-9.141998291E-1,9.639648438E0,-8.542633057E0
8.776289228E0,-9.368133545E-1,9.612091064E0,-8.554290771E0
8.781324628E0,-9.454498291E-1,9.611114502E0,-8.564651489E0
8.786360029E0,-9.492187500E-1,9.602432251E0,-8.527709961E0
8.791395429E0,-9.196166992E-1,9.609008789E0,-8.557449341E0
8.796430830E0,-9.333648682E-1,9.626800537E0,-8.629043579E0
8.801466230E0,-9.559326172E-1,9.614746094E0,-8.629745483E0
8.806501630E0,-9.537811279E-1,9.595458984E0,-8.598968506E0
8.811537031E0,-9.646148682E-1,9.588302612E0,-8.553390503E0
8.816572431E0,-9.283142090E-1,9.611907959E0,-8.574264526E0
8.821607831E0,-9.546051025E-1,9.585220337E0,-8.597702026E0
8.826643232E0,-9.327545166E-1,9.609466553E0,-8.633804321E0
8.831678632E0,-9.266967773E-1,9.607421875E0,-8.586105347E0
8.836714033E0,-9.136199951E-1,9.583129883E0,-8.577041626E0
8.841749433E0,-9.035339355E-1,9.621215820E0,-8.682052612E0
8.846784833E0,-8.786773682E-1,9.601699829E0,-8.599868774E0
8.851820234E0,-8.367309570E-1,9.617095947E0,-8.655014038E0
8.856855634E0,-8.469085693E-1,9.598510742E0,-8.593475342E0
8.861891035E0,-8.320159912E-1,9.628753662E0,-8.652053833E0
8.866926435E0,-8.266143799E-1,9.609756470E0,-8.609481812E0
8.871961835E0,-7.802886963E-1,9.671279907E0,-8.686203003E0
8.876997236E0,-8.769683838E-1,9.617156982E0,-8.674652100E0
8.882032636E0,-8.267669678E-1,9.613739014E0,-8.716964722E0
8.887068037E0,-7.907257080E-1,9.618499756E0,-8.622024536E0
8.892103437E0,-7.975006104E-1,9.583251953E0,-8.591537476E0
8.897138837E0,-7.676239014E-1,9.621795654E0,-8.628051758E0
8.902174238E0,-7.939605713E-1,9.657058716E0,-8.584808350E0
8.907209638E0,-7.446899414E-1,9.599212646E0,-8.613311768E0
8.912245038E0,-7.294616699E-1,9.645233154E0,-8.632446289E0
8.917280439E0,-7.803344727E-1,9.615188599E0,-8.647186279E0
8.922315839E0,-7.595672607E-1,9.635253906E0,-8.634521484E0
8.927351240E0,-6.746215820E-1,9.611038208E0,-8.666748047E0
8.932386640E0,-7.506561279E-1,9.654876709E0,-8.609100342E0
8.937422040E0,-6.823577881E-1,9.613220215E0,-8.595169067E0
8.942457441E0,-7.099151611E-1,9.629364014E0,-8.569595337E0
8.947492841E0,-6.727142334E-1,9.622375488E0,-8.587432861E0
8.952528242E0,-6.772460938E-1,9.633926392E0,-8.574035645E0
8.957563642E0,-6.482849121E-1,9.626296997E0,-8.563385010E0
8.962599042E0,-6.370544434E-1,9.630737305E0,-8.605133057E0
8.967634443E0,-6.382141113E-1,9.633911133E0,-8.561752319E0
8.972669843E0,-6.138305664E-1,9.640319824E0,-8.561004639E0
8.977705244E0,-6.225738525E-1,9.637634277E0,-8.581024170E0
8.982740644E0,-6.246795654E-1,9.614761353E0,-8.587463379E0
8.987776044E0,-6.116943359E-1,9.611358643E0,-8.541625977E0
8.992811445E0,-5.724182129E-1,9.621871948E0,-8.554244995E0
8.997846845E0,-5.110626221E-1,9.629806519E0,-8.462127686E0
9.002882246E0,-5.516052246E-1,9.638732910E0,-8.517044067E0
9.007917646E0,-5.815734863E-1,9.621902466E0,-8.571716309E0
9.012953046E0,-5.688171387E-1,9.630386353E0,-8.574295044E0
9.017988447E0,-5.743255615E-1,9.625747681E0,-8.530380249E0
9.023023847E0,-5.101165771E-1,9.625061035E0,-8.558914185E0
9.028059247E0,-4.919433594E-1,9.606887817E0,-8.539001465E0
9.033094648E0,-4.813232422E-1,9.625396729E0,-8.534179688E0
9.038130048E0,-4.824523926E-1,9.644897461E0,-8.505386353E0
9.043165449E0,-4.663696289E-1,9.628433228E0,-8.523880005E0
9.048200849E0,-4.670562744E-1,9.637634277E0,-8.561096191E0
9.053236249E0,-4.343719482E-1,9.626510620E0,-8.545928955E0
9.058271650E0,-4.519500732E-1,9.617752075E0,-8.521118164E0
9.063307050E0,-4.451141357E-1,9.619812012E0,-8.510604858E0
9.068342451E0,-4.479370117E-1,9.620956421E0,-8.520614624E0
9.073377851E0,-4.544982910E-1,9.640548706E0,-8.515899658E0
9.078413251E0,-4.112243652E-1,9.633911133E0,-8.528503418E0
9.083448652E0,-4.112701416E-1,9.635452271E0,-8.502014160E0
9.088484052E0,-3.922271729E-1,9.651809692E0,-8.479187012E0
9.093519453E0,-4.041290283E-1,9.655044556E0,-8.458938599E0
9.098554853E0,-4.037322998E-1,9.630401611E0,-8.448730469E0
9.103590253E0,-4.112396240E-1,9.616470337E0,-8.506088257E0
9.108625654E0,-4.015197754E-1,9.643295288E0,-8.522872925E0
9.113661054E0,-3.853759766E-1,9.665176392E0,-8.526718140E0
9.118696455E0,-3.789672852E-1,9.671234131E0,-8.502746582E0
9.123731855E0,-3.667297363E-1,9.662750244E0,-8.447708130E0
9.128767255E0,-3.922882080E-1,9.670349121E0,-8.483047485E0
9.133802656E0,-4.228057861E-1,9.664077759E0,-8.570159912E0
9.138838056E0,-4.039154053E-1,9.622070312E0,-8.551803589E0
9.143873456E0,-3.535156250E-1,9.624908447E0,-8.528579712E0
9.148908857E0,-3.697967529E-1,9.654403687E0,-8.505508423E0
9.153944257E0,-3.975372314E-1,9.650115967E0,-8.503372192E0
9.158979658E0,-3.895416260E-1,9.646148682E0,-8.520141602E0
9.164015058E0,-3.647918701E-1,9.670471191E0,-8.482467651E0
9.169050458E0,-3.455963135E-1,9.658142090E0,-8.481689453E0
9.174085859E0,-3.714141846E-1,9.636520386E0,-8.465286255E0
9.179121259E0,-3.935852051E-1,9.644424438E0,-8.484481812E0
9.184156660E0,-3.871765137E-1,9.673263550E0,-8.504104614E0
9.189192060E0,-4.027709961E-1,9.662704468E0,-8.488220215E0
9.194227460E0,-3.629760742E-1,9.647598267E0,-8.504943848E0
9.199262861E0,-3.481903076E-1,9.643508911E0,-8.467849731E0
9.204298261E0,-3.207855225E-1,9.647430420E0,-8.457412720E0
9.209333662E0,-3.970642090E-1,9.636581421E0,-8.446807861E0
9.214369062E0,-4.326019287E-1,9.643493652E0,-8.464920044E0
9.219404462E0,-3.888549805E-1,9.676895142E0,-8.492553711E0
9.224439863E0,-3.781585693E-1,9.648513794E0,-8.509384155E0
9.229475263E0,-3.845520020E-1,9.619903564E0,-8.514907837E0
9.234510663E0,-3.959045410E-1,9.625946045E0,-8.483734131E0
9.239546064E0,-4.419708252E-1,9.622070312E0,-8.486328125E0
9.244581464E0,-4.005737305E-1,9.645599365E0,-8.442657471E0
9.249616865E0,-4.205474854E-1,9.636276245E0,-8.433914185E0
9.254652265E0,-4.384307861E-1,9.622817993E0,-8.457763672E0
9.259687665E0,-4.366760254E-1,9.615570068E0,-8.408370972E0
9.264723066E0,-4.539031982E-1,9.635162354E0,-8.419097900E0
9.269758466E0,-5.015106201E-1,9.656784058E0,-8.447311401E0
9.274793867E0,-4.926605225E-1,9.657684326E0,-8.427413940E0
9.279829267E0,-4.452514648E-1,9.667709351E0,-8.475326538E0
9.284864667E0,-4.788818359E-1,9.653900146E0,-8.457183838E0
9.289900068E0,-4.755096436E-1,9.628387451E0,-8.411895752E0
9.294935468E0,-4.466705322E-1,9.607803345E0,-8.391433716E0
9.299970869E0,-4.740905762E-1,9.629653931E0,-8.392654419E0
9.305006269E0,-5.686645508E-1,9.613311768E0,-8.443145752E0
9.310041669E0,-5.880279541E-1,9.637008667E0,-8.469039917E0
9.315077070E0,-5.538940430E-1,9.634170532E0,-8.382736206E0
9.320112470E0,-5.049591064E-1,9.632781982E0,-8.363220215E0
9.325147871E0,-5.518646240E-1,9.647293091E0,-8.451721191E0
9.330183271E0,-6.021575928E-1,9.640975952E0,-8.469146729E0
9.335218671E0,-6.010437012E-1,9.665512085E0,-8.439804077E0
9.340254072E0,-6.046295166E-1,9.644699097E0,-8.377990723E0
9.345289472E0,-5.809631348E-1,9.624771118E0,-8.404937744E0
9.350324872E0,-6.428527832E-1,9.596771240E0,-8.434265137E0
9.355360273E0,-6.590881348E-1,9.594696045E0,-8.398361206E0
9.360395673E0,-6.077575684E-1,9.626373291E0,-8.380035400E0
9.365431074E0,-6.802673340E-1,9.648529053E0,-8.388336182E0
9.370466474E0,-7.159118652E-1,9.607910156E0,-8.377197266E0
9.375501874E0,-7.471313477E-1,9.660003662E0,-8.418640137E0
9.380537275E0,-7.361297607E-1,9.651931763E0,-8.445541382E0
9.385572675E0,-6.955108643E-1,9.644683838E0,-8.429214478E0
9.390608076E0,-7.050018311E-1,9.594848633E0,-8.410018921E0
9.395643476E0,-6.985931396E-1,9.620651245E0,-8.385757446E0
9.400678876E0,-7.365112305E-1,9.608856201E0,-8.352096558E0
9.405714277E0,-7.563629150E-1,9.604217529E0,-8.316696167E0
9.410749677E0,-7.302703857E-1,9.604217529E0,-8.364898682E0
9.415785078E0,-7.628631592E-1,9.605499268E0,-8.414505005E0
9.420820478E0,-7.763061523E-1,9.629226685E0,-8.359741211E0
9.425855878E0,-7.758178711E-1,9.613433838E0,-8.359130859E0
9.430891279E0,-7.992095947E-1,9.639724731E0,-8.424011230E0
9.435926679E0,-8.191375732E-1,9.635787964E0,-8.283157349E0
9.440962080E0,-8.561401367E-1,9.616760254E0,-8.307418823E0
9.445997480E0,-7.899017334E-1,9.602874756E0,-8.376632690E0
9.451032880E0,-8.398437500E-1,9.609008789E0,-8.313766479E0
9.456068281E0,-8.453979492E-1,9.594863892E0,-8.413589478E0
9.461103681E0,-9.213104248E-1,9.608657837E0,-8.345199585E0
9.466139081E0,-9.218292236E-1,9.591949463E0,-8.347747803E0
9.471174482E0,-9.378967285E-1,9.600906372E0,-8.311691284E0
9.476209882E0,-9.425201416E-1,9.645538330E0,-8.337783813E0
9.481245283E0,-9.160156250E-1,9.589248657E0,-8.316757202E0
9.486280683E0,-9.139862061E-1,9.581222534E0,-8.345901489E0
9.491316083E0,-9.187622070E-1,9.602279663E0,-8.343490601E0
9.496351484E0,-9.185485840E-1,9.597229004E0,-8.325866699E0
9.501386884E0,-9.492187500E-1,9.602905273E0,-8.306427002E0
9.506422285E0,-9.115753174E-1,9.596588135E0,-8.341842651E0
9.511457685E0,-9.010467529E-1,9.623718262E0,-8.323013306E0
9.516493085E0,-8.872222900E-1,9.635131836E0,-8.292999268E0
9.521528486E0,-9.289245605E-1,9.624008179E0,-8.322448730E0
9.526563886E0,-9.300537109E-1,9.618408203E0,-8.302352905E0
9.531599287E0,-9.219055176E-1,9.591827393E0,-8.301101685E0
9.536634687E0,-9.483642578E-1,9.604843140E0,-8.349258423E0
9.541670087E0,-9.797668457E-1,9.575424194E0,-8.338745117E0
9.546705488E0,-1.003021240E0,9.592605591E0,-8.317626953E0
9.551740888E0,-9.837188721E-1,9.580490112E0,-8.325393677E0
9.556776288E0,-9.677886963E-1,9.592773438E0,-8.348541260E0
9.561811689E0,-9.279937744E-1,9.620651245E0,-8.294357300E0
9.566847089E0,-8.856811523E-1,9.604904175E0,-8.277908325E0
9.571882490E0,-9.146728516E-1,9.590621948E0,-8.358779907E0
9.576917890E0,-9.297332764E-1,9.590362549E0,-8.404464722E0
9.581953290E0,-9.400939941E-1,9.616912842E0,-8.387756348E0
9.586988691E0,-9.777526855E-1,9.615936279E0,-8.343521118E0
9.592024091E0,-9.662933350E-1,9.630401611E0,-8.371292114E0
9.597059492E0,-9.358062744E-1,9.616699219E0,-8.381240845E0
9.602094892E0,-9.449157715E-1,9.614196777E0,-8.324279785E0
9.607130292E0,-9.380187988E-1,9.611770630E0,-8.350051880E0
9.612165693E0,-9.286193848E-1,9.572769165E0,-8.404357910E0
9.617201093E0,-9.118652344E-1,9.609085083E0,-8.404098511E0
9.622236494E0,-8.675689697E-1,9.635055542E0,-8.405410767E0
9.627271894E0,-8.907012939E-1,9.605331421E0,-8.351425171E0
9.632307294E0,-9.021759033E-1,9.622650146E0,-8.299179077E0
9.637342695E0,-8.911437988E-1,9.611877441E0,-8.331176758E0
9.642378095E0,-8.465423584E-1,9.604339600E0,-8.382965088E0
9.647413496E0,-8.727722168E-1,9.601242065E0,-8.376022339E0
9.652448896E0,-8.970336914E-1,9.591674805E0,-8.353439331E0
9.657484296E0,-8.396606445E-1,9.604217529E0,-8.357498169E0
9.662519697E0,-7.895965576E-1,9.640197754E0,-8.389022827E0
9.667555097E0,-7.777709961E-1,9.634063721E0,-8.440719604E0
9.672590497E0,-7.734527588E-1,9.609588623E0,-8.445678711E0
9.677625898E0,-7.583923340E-1,9.623275757E0,-8.454086304E0
9.682661298E0,-7.502593994E-1,9.613845825E0,-8.461776733E0
9.687696699E0,-7.390441895E-1,9.592010498E0,-8.442352295E0
9.692732099E0,-7.369537354E-1,9.592315674E0,-8.424438477E0
9.697767499E0,-6.972045898E-1,9.610137939E0,-8.434204102E0
9.702802900E0,-7.180023193E-1,9.612594604E0,-8.424316406E0
9.707838300E0,-7.162933350E-1,9.611984253E0,-8.427581787E0
9.712873701E0,-6.963806152E-1,9.633544922E0,-8.504928589E0
9.717909101E0,-6.877746582E-1,9.618362427E0,-8.555847168E0
9.722944501E0,-6.601104736E-1,9.655944824E0,-8.485702515E0
9.727979902E0,-6.367645264E-1,9.627044678E0,-8.512725830E0
9.733015302E0,-6.587982178E-1,9.612411499E0,-8.487487793E0
9.738050703E0,-6.093902588E-1,9.631607056E0,-8.451950073E0
9.743086103E0,-5.845947266E-1,9.632537842E0,-8.453247070E0
9.748121503E0,-5.809631348E-1,9.628707886E0,-8.512634277E0
9.753156904E0,-5.754699707E-1,9.636550903E0,-8.517532349E0
9.758192304E0,-5.723876953E-1,9.678146362E0,-8.461486816E0
9.763227705E0,-5.010528564E-1,9.653411865E0,-8.507095337E0
9.768263105E0,-5.497131348E-1,9.636352539E0,-8.527404785E0
9.773298505E0,-5.849151611E-1,9.654953003E0,-8.546600342E0
9.778333906E0,-5.829315186E-1,9.643081665E0,-8.587661743E0
9.783369306E0,-5.627136230E-1,9.607864380E0,-8.579666138E0
9.788404706E0,-5.705566406E-1,9.638763428E0,-8.598754883E0
9.793440107E0,-5.741119385E-1,9.632354736E0,-8.516128540E0
9.798475507E0,-4.974822998E-1,9.775543213E0,-8.585433960E0
9.803510908E0,-5.316619873E-1,9.545532227E0,-8.754302979E0
9.808546308E0,-5.113983154E-1,9.610702515E0,-8.522109985E0
9.813581708E0,-5.892181396E-1,9.633148193E0,-8.389556885E0
9.818617109E0,-5.076293945E-1,9.582031250E0,-8.737808228E0
9.823652509E0,-5.793457031E-1,9.597976685E0,-8.666702271E0
9.828687910E0,-5.080718994E-1,9.651641846E0,-8.639587402E0
9.833723310E0,-4.725799561E-1,9.644332886E0,-8.711837769E0
9.838758710E0,-4.820861816E-1,9.648651123E0,-8.592819214E0
9.843794111E0,-4.665985107E-1,9.662231445E0,-8.638671875E0
9.848829511E0,-4.430084229E-1,9.644271851E0,-8.699859619E0
9.853864912E0,-4.321136475E-1,9.666244507E0,-8.650894165E0
9.858900312E0,-4.813995361E-1,9.614013672E0,-8.722061157E0
9.863935712E0,-4.682922363E-1,9.633377075E0,-8.629287720E0
9.868971113E0,-4.017791748E-1,9.641906738E0,-8.689483643E0
9.874006513E0,-4.161987305E-1,9.614959717E0,-8.631912231E0
9.879041913E0,-4.445343018E-1,9.597671509E0,-8.668136597E0
9.884077314E0,-4.037780762E-1,9.657440186E0,-8.704452515E0
9.889112714E0,-4.474029541E-1,9.626037598E0,-8.639495850E0
9.894148115E0,-3.979644775E-1,9.661346436E0,-8.724380493E0
9.899183515E0,-4.146118164E-1,9.625717163E0,-8.752853394E0
9.904218915E0,-4.124755859E-1,9.632431030E0,-8.745407104E0
9.909254316E0,-4.232177734E-1,9.616119385E0,-8.723068237E0
9.914289716E0,-3.932952881E-1,9.690887451E0,-8.684402466E0
9.919325117E0,-3.938598633E-1,9.654907227E0,-8.760696411E0
9.924360517E0,-3.564453125E-1,9.671783447E0,-8.774627686E0
9.929395917E0,-3.798828125E-1,9.682891846E0,-8.777999878E0
9.934431318E0,-3.911132812E-1,9.618835449E0,-8.761764526E0
9.939466718E0,-3.644409180E-1,9.625091553E0,-8.753753662E0
9.944502119E0,-3.613433838E-1,9.642120361E0,-8.763153076E0
9.949537519E0,-3.552246094E-1,9.619979858E0,-8.764144897E0
9.954572919E0,-3.787536621E-1,9.638015747E0,-8.725234985E0
9.959608320E0,-3.932495117E-1,9.670410156E0,-8.775161743E0
9.964643720E0,-3.778381348E-1,9.613220215E0,-8.702880859E0
9.969679121E0,-3.804931641E-1,9.607925415E0,-8.747131348E0
9.974714521E0,-3.498077393E-1,9.674926758E0,-8.732269287E0
9.979749921E0,-3.641967773E-1,9.626327515E0,-8.687438965E0
9.984785322E0,-3.836212158E-1,9.664459229E0,-8.711868286E0
9.989820722E0,-3.722229004E-1,9.650451660E0,-8.744293213E0
9.994856122E0,-3.579101562E-1,9.632080078E0,-8.747711182E0
9.999891523E0,-2.908477783E-1,9.659805298E0,-8.750137329E0
1.000492692E1,-3.051605225E-1,9.622055054E0,-8.758026123E0
1.000996232E1,-3.612670898E-1,9.620254517E0,-8.723831177E0
1.001499772E1,-3.675079346E-1,9.663391113E0,-8.702011108E0
1.002003312E1,-3.514404297E-1,9.673919678E0,-8.649154663E0
1.002506852E1,-3.669738770E-1,9.668655396E0,-8.693542480E0
1.003010392E1,-3.674163818E-1,9.676712036E0,-8.702056885E0
1.003513933E1,-3.759613037E-1,9.635971069E0,-8.713882446E0
1.004017473E1,-3.404998779E-1,9.636550903E0,-8.750793457E0
1.004521013E1,-3.526306152E-1,9.655303955E0,-8.683517456E0
1.005024553E1,-3.855590820E-1,9.638809204E0,-8.696655273E0
1.005528093E1,-3.529815674E-1,9.656875610E0,-8.630615234E0
1.006031633E1,-3.486480713E-1,9.668716431E0,-8.665756226E0
1.006535173E1,-3.630828857E-1,9.647842407E0,-8.682464600E0
1.007038713E1,-3.849487305E-1,9.645492554E0,-8.707794189E0
1.007542253E1,-4.248046875E-1,9.641128540E0,-8.680267334E0
1.008045793E1,-4.397125244E-1,9.623428345E0,-8.707244873E0
1.008549333E1,-4.345703125E-1,9.626495361E0,-8.715118408E0
1.009052873E1,-4.342193604E-1,9.643539429E0,-8.729614258E0
1.009556413E1,-4.256439209E-1,9.621902466E0,-8.684127808E0
1.010059953E1,-4.170074463E-1,9.623428345E0,-8.655914307E0
1.010563493E1,-4.150390625E-1,9.635787964E0,-8.676132202E0
1.011067033E1,-4.293823242E-1,9.617202759E0,-8.660446167E0
1.011570573E1,-4.651641846E-1,9.622451782E0,-8.623046875E0
1.012074113E1,-4.844818115E-1,9.640975952E0,-8.615875244E0
1.012577653E1,-4.982299805E-1,9.628143311E0,-8.599914551E0
1.013081193E1,-5.131530762E-1,9.614654541E0,-8.627655029E0
1.013584733E1,-5.181121826E-1,9.628616333E0,-8.633514404E0
1.014088273E1,-5.262908936E-1,9.629531860E0,-8.586608887E0
1.014591813E1,-5.418853760E-1,9.638473511E0,-8.600296021E0
1.015095354E1,-5.479278564E-1,9.643386841E0,-8.590866089E0
1.015598894E1,-5.565948486E-1,9.642730713E0,-8.572463989E0
1.016102434E1,-5.854797363E-1,9.636840820E0,-8.592483521E0
1.016605974E1,-6.177673340E-1,9.622268677E0,-8.554229736E0
1.017109514E1,-6.325531006E-1,9.624328613E0,-8.491500854E0
1.017613054E1,-6.521148682E-1,9.612686157E0,-8.450927734E0
1.018116594E1,-6.588897705E-1,9.592117310E0,-8.491744995E0
1.018620134E1,-6.581268311E-1,9.599151611E0,-8.502212524E0
1.019123674E1,-6.649627686E-1,9.609970093E0,-8.521209717E0
1.019627214E1,-6.740417480E-1,9.637298584E0,-8.499160767E0
1.020130754E1,-6.774139404E-1,9.640777588E0,-8.469711304E0
1.020634294E1,-6.837768555E-1,9.631851196E0,-8.456909180E0
1.021137834E1,-7.181701660E-1,9.623840332E0,-8.444381714E0
1.021641374E1,-7.299499512E-1,9.633590698E0,-8.438964844E0
1.022144914E1,-7.218627930E-1,9.628494263E0,-8.422546387E0
1.022648454E1,-7.021331787E-1,9.631805420E0,-8.410232544E0
1.023151994E1,-6.978912354E-1,9.640701294E0,-8.425186157E0
1.023655534E1,-7.259826660E-1,9.598922729E0,-8.430755615E0
1.024159074E1,-7.285461426E-1,9.599288940E0,-8.434112549E0
1.024662614E1,-7.207794189E-1,9.590774536E0,-8.378433228E0
1.025166154E1,-7.545928955E-1,9.591186523E0,-8.366470337E0
1.025669694E1,-7.913818359E-1,9.615066528E0,-8.395858765E0
