"Time (s)","Gyroscope x (rad/s)","Gyroscope y (rad/s)","Gyroscope z (rad/s)"
3.973658330E-1,1.673889160E-2,2.642822266E-2,2.873229980E-2
4.024012330E-1,1.574707031E-2,4.327392578E-2,2.972412109E-2
4.074366340E-1,1.574707031E-2,4.092407227E-2,2.981567383E-2
4.124720340E-1,1.574707031E-2,2.439880371E-2,3.079223633E-2
4.175074350E-1,1.585388184E-2,4.196166992E-3,3.057861328E-2
4.225428350E-1,1.705932617E-2,-1.284790039E-2,2.865600586E-2
4.275782350E-1,1.907348633E-2,-2.697753906E-2,2.841186523E-2
4.326136360E-1,1.988220215E-2,-3.302001953E-2,2.665710449E-2
4.376490360E-1,1.849365234E-2,-2.926635742E-2,2.729797363E-2
4.426844360E-1,1.524353027E-2,-2.926635742E-2,2.561950684E-2
4.477198370E-1,1.200866699E-2,-2.645874023E-2,2.635192871E-2
4.527552370E-1,8.590698242E-3,-6.866455078E-3,2.526855469E-2
4.577906380E-1,4.867553711E-3,2.232360840E-2,2.438354492E-2
4.628260380E-1,4.409790039E-3,3.802490234E-2,2.459716797E-2
4.678614380E-1,6.988525391E-3,3.369140625E-2,2.632141113E-2
4.728968390E-1,1.086425781E-2,1.298522949E-2,2.972412109E-2
4.779322390E-1,1.325988770E-2,-1.159667969E-3,2.996826172E-2
4.829676400E-1,1.623535156E-2,-2.151489258E-3,3.153991699E-2
4.880030400E-1,1.866149902E-2,3.036499023E-3,3.453063965E-2
4.930384400E-1,2.189636230E-2,2.746582031E-3,3.723144531E-2
4.980738410E-1,2.484130859E-2,-1.556396484E-3,4.069519043E-2
5.031092410E-1,2.700805664E-2,-4.699707031E-3,4.089355469E-2
5.081446420E-1,2.886962891E-2,-5.630493164E-3,3.965759277E-2
5.131800420E-1,3.025817871E-2,-8.224487305E-3,4.040527344E-2
5.182154420E-1,3.176879883E-2,-9.307861328E-3,4.040527344E-2
5.232508430E-1,3.141784668E-2,-1.004028320E-2,4.040527344E-2
5.282862430E-1,2.896118164E-2,-8.651733398E-3,4.075622559E-2
5.333216430E-1,2.427673340E-2,-1.449584961E-3,4.147338867E-2
5.383570440E-1,1.992797852E-2,1.371765137E-2,4.147338867E-2
5.433924440E-1,1.345825195E-2,2.931213379E-2,4.072570801E-2
5.484278450E-1,7.751464844E-3,3.128051758E-2,3.933715820E-2
5.534632450E-1,3.845214844E-3,1.631164551E-2,3.974914551E-2
5.584986450E-1,6.103515625E-4,-6.561279297E-3,3.999328613E-2
5.635340460E-1,-1.770019531E-3,-2.435302734E-2,3.892517090E-2
5.685694460E-1,-1.983642578E-3,-3.315734863E-2,3.784179688E-2
5.736048470E-1,-1.525878906E-5,-3.567504883E-2,3.765869141E-2
5.786402470E-1,2.777099609E-3,-3.063964844E-2,3.781127930E-2
5.836756470E-1,3.524780273E-3,-1.455688477E-2,3.720092773E-2
5.887110480E-1,2.929687500E-3,7.476806641E-3,3.672790527E-2
5.937464480E-1,3.417968750E-3,2.821350098E-2,3.613281250E-2
5.987818490E-1,2.487182617E-3,4.302978516E-2,3.463745117E-2
6.038172490E-1,2.746582031E-4,4.614257812E-2,3.140258789E-2
6.088526490E-1,1.296997070E-3,3.286743164E-2,3.025817871E-2
6.138880500E-1,4.531860352E-3,6.515502930E-3,2.972412109E-2
6.189234500E-1,5.584716797E-3,-2.366638184E-2,2.812194824E-2
6.239588510E-1,6.179809570E-3,-4.450988770E-2,2.758789062E-2
6.289942510E-1,6.622314453E-3,-4.609680176E-2,2.758789062E-2
6.340296510E-1,7.278442383E-3,-2.940368652E-2,2.758789062E-2
6.390650520E-1,7.080078125E-3,-4.440307617E-3,2.700805664E-2
6.441004520E-1,7.324218750E-3,1.303100586E-2,2.592468262E-2
6.491358520E-1,8.865356445E-3,1.832580566E-2,2.424621582E-2
6.541712530E-1,8.712768555E-3,1.940917969E-2,2.207946777E-2
6.592066530E-1,8.270263672E-3,2.049255371E-2,1.802062988E-2
6.642420540E-1,7.614135742E-3,1.835632324E-2,1.327514648E-2
6.692774540E-1,7.202148438E-3,1.141357422E-2,8.956909180E-3
6.743128540E-1,5.859375000E-3,3.463745117E-3,6.637573242E-3
6.793482550E-1,3.707885742E-3,-4.089355469E-3,4.882812500E-3
6.843836550E-1,2.243041992E-3,-1.504516602E-2,3.417968750E-3
6.894190560E-1,1.159667969E-3,-2.452087402E-2,2.334594727E-3
6.944544560E-1,-2.044677734E-3,-2.642822266E-2,1.251220703E-3
6.994898560E-1,-6.362915039E-3,-2.174377441E-2,-1.983642578E-3
7.045252570E-1,-9.948730469E-3,-1.309204102E-2,-5.569458008E-3
7.095606570E-1,-1.316833496E-2,3.936767578E-3,-8.789062500E-3
7.145960580E-1,-1.715087891E-2,2.593994141E-2,-1.127624512E-2
7.196314580E-1,-2.072143555E-2,4.103088379E-2,-1.268005371E-2
7.246668580E-1,-2.163696289E-2,3.591918945E-2,-1.144409180E-2
7.297022590E-1,-2.006530762E-2,1.615905762E-2,-1.007080078E-2
7.347376590E-1,-1.715087891E-2,-3.097534180E-3,-8.224487305E-3
7.397730600E-1,-1.469421387E-2,-1.513671875E-2,-6.042480469E-3
7.448084600E-1,-1.254272461E-2,-2.078247070E-2,-3.067016602E-3
7.498438600E-1,-8.728027344E-3,-2.262878418E-2,-1.480102539E-3
7.548792610E-1,-6.088256836E-3,-1.786804199E-2,-1.251220703E-3
7.599146610E-1,-5.615234375E-3,-2.929687500E-3,-2.929687500E-3
7.649500610E-1,-6.484985352E-3,1.780700684E-2,-5.950927734E-3
7.699854620E-1,-6.683349609E-3,2.978515625E-2,-8.316040039E-3
7.750208620E-1,-5.813598633E-3,2.809143066E-2,-1.048278809E-2
7.800562630E-1,-5.615234375E-3,1.664733887E-2,-1.086425781E-2
7.850916630E-1,-5.615234375E-3,5.523681641E-3,-1.174926758E-2
7.901270630E-1,-6.530761719E-3,-1.632690430E-3,-1.193237305E-2
7.951624640E-1,-7.614135742E-3,-4.425048828E-3,-1.284790039E-2
8.001978640E-1,-8.697509766E-3,-5.645751953E-3,-1.393127441E-2
8.052332650E-1,-9.765625000E-3,-4.837036133E-3,-1.499938965E-2
8.102686650E-1,-1.181030273E-2,7.629394531E-5,-1.800537109E-2
8.153040650E-1,-1.684570312E-2,1.123046875E-2,-2.122497559E-2
8.203394660E-1,-2.029418945E-2,2.311706543E-2,-2.250671387E-2
8.253748660E-1,-2.156066895E-2,3.007507324E-2,-2.458190918E-2
8.304102670E-1,-2.064514160E-2,2.854919434E-2,-2.673339844E-2
8.354456670E-1,-1.956176758E-2,2.032470703E-2,-2.890014648E-2
8.404810670E-1,-1.849365234E-2,9.643554688E-3,-2.697753906E-2
8.455164680E-1,-1.638793945E-2,-1.113891602E-3,-2.688598633E-2
8.505518680E-1,-1.315307617E-2,-1.303100586E-2,-2.688598633E-2
8.555872680E-1,-1.203918457E-2,-1.536560059E-2,-2.688598633E-2
8.606226690E-1,-8.819580078E-3,-1.110839844E-2,-2.688598633E-2
8.656580690E-1,-8.834838867E-3,-2.426147461E-3,-2.577209473E-2
8.706934700E-1,-9.918212891E-3,9.414672852E-3,-2.258300781E-2
8.757288700E-1,-1.095581055E-2,2.209472656E-2,-2.154541016E-2
8.807642700E-1,-1.092529297E-2,2.493286133E-2,-2.154541016E-2
8.857996710E-1,-9.796142578E-3,1.832580566E-2,-2.143859863E-2
8.908350710E-1,-7.705688477E-3,7.522583008E-3,-1.945495605E-2
8.958704720E-1,-6.622314453E-3,-2.792358398E-3,-2.061462402E-2
9.009058720E-1,-5.783081055E-3,-5.691528320E-3,-2.291870117E-2
9.059412720E-1,-7.949829102E-3,-4.333496094E-3,-2.725219727E-2
9.109766730E-1,-1.020812988E-2,9.155273438E-5,-3.157043457E-2
9.160120730E-1,-1.342773438E-2,5.020141602E-3,-3.575134277E-2
9.210474740E-1,-1.641845703E-2,6.088256836E-3,-3.910827637E-2
9.260828740E-1,-1.777648926E-2,8.544921875E-3,-4.371643066E-2
9.311182740E-1,-2.072143555E-2,1.965332031E-2,-5.017089844E-2
9.361536750E-1,-2.133178711E-2,2.456665039E-2,-5.587768555E-2
9.411890750E-1,-1.899719238E-2,1.957702637E-2,-5.679321289E-2
9.462244760E-1,-1.577758789E-2,1.239013672E-2,-5.661010742E-2
9.512598760E-1,-1.309204102E-2,1.408386230E-2,-5.590820312E-2
9.562952760E-1,-1.251220703E-2,2.375793457E-2,-5.639648438E-2
9.613306770E-1,-9.475708008E-3,3.140258789E-2,-5.444335938E-2
9.663660770E-1,-7.751464844E-3,2.943420410E-2,-5.268859863E-2
9.714014770E-1,-7.064819336E-3,2.221679688E-2,-4.884338379E-2
9.764368780E-1,-4.318237305E-3,8.651733398E-3,-4.693603516E-2
9.814722780E-1,-2.731323242E-3,-3.479003906E-3,-4.559326172E-2
9.865076790E-1,5.035400391E-4,-1.560974121E-2,-4.370117188E-2
9.915430790E-1,2.929687500E-3,-2.203369141E-2,-4.179382324E-2
9.965784790E-1,1.770019531E-3,-1.622009277E-2,-3.805541992E-2
1.001613880E0,-2.227783203E-3,-2.716064453E-3,-3.590393066E-2
1.006649280E0,-5.783081055E-3,1.177978516E-2,-3.404235840E-2
1.011684681E0,-9.140014648E-3,2.250671387E-2,-3.265380859E-2
1.016720081E0,-1.087951660E-2,2.593994141E-2,-3.050231934E-2
1.021755481E0,-1.275634766E-2,2.249145508E-2,-2.969360352E-2
1.026790882E0,-1.133728027E-2,1.318359375E-2,-3.149414062E-2
1.031826282E0,-9.536743164E-3,3.097534180E-3,-3.257751465E-2
1.036861683E0,-7.720947266E-3,-4.043579102E-3,-3.402709961E-2
1.041897083E0,-5.615234375E-3,-6.835937500E-3,-3.543090820E-2
1.046932483E0,-4.440307617E-3,-6.057739258E-3,-3.581237793E-2
1.051967884E0,-1.205444336E-3,-4.699707031E-3,-3.689575195E-2
1.057003284E0,7.934570312E-4,-3.875732422E-3,-3.713989258E-2
1.062038685E0,7.934570312E-4,8.392333984E-4,-3.564453125E-2
1.067074085E0,1.220703125E-3,9.902954102E-3,-3.479003906E-2
1.072109485E0,1.861572266E-3,1.870727539E-2,-3.543090820E-2
1.077144886E0,2.777099609E-3,2.122497559E-2,-3.450012207E-2
1.082180286E0,5.401611328E-3,1.457214355E-2,-3.141784668E-2
1.087215686E0,6.713867188E-3,7.736206055E-3,-2.806091309E-2
1.092251087E0,6.622314453E-3,7.934570312E-3,-2.540588379E-2
1.097286487E0,7.202148438E-3,9.750366211E-3,-2.217102051E-2
1.102321888E0,6.683349609E-3,4.577636719E-3,-1.893615723E-2
1.107357288E0,5.599975586E-3,-6.729125977E-3,-1.464843750E-2
1.112392688E0,4.531860352E-3,-1.538085938E-2,-1.033020020E-2
1.117428089E0,2.899169922E-3,-1.371765137E-2,-7.629394531E-3
1.122463489E0,1.296997070E-3,-3.921508789E-3,-5.462646484E-3
1.127498890E0,7.934570312E-4,9.628295898E-3,-3.311157227E-3
1.132534290E0,2.136230469E-4,2.529907227E-2,-5.798339844E-4
1.137569690E0,-8.697509766E-4,3.677368164E-2,8.850097656E-4
1.142605091E0,-1.342773438E-3,3.538513184E-2,8.850097656E-4
1.147640491E0,4.730224609E-4,1.759338379E-2,8.850097656E-4
1.152675892E0,3.707885742E-3,-7.812500000E-3,1.510620117E-3
1.157711292E0,6.317138672E-3,-1.985168457E-2,1.953125000E-3
1.162746692E0,7.843017578E-3,-1.045227051E-2,1.312255859E-3
1.167782093E0,6.958007812E-3,7.431030273E-3,-4.119873047E-4
1.172817493E0,7.446289062E-3,2.113342285E-2,-5.798339844E-4
1.177852893E0,8.941650391E-3,2.587890625E-2,-1.831054688E-4
1.182888294E0,1.000976562E-2,2.490234375E-2,-8.544921875E-4
1.187923694E0,1.248168945E-2,2.204895020E-2,-5.493164062E-4
1.192959095E0,1.431274414E-2,1.597595215E-2,5.340576172E-4
1.197994495E0,1.681518555E-2,9.155273438E-3,1.602172852E-3
1.203029895E0,1.860046387E-2,-2.410888672E-3,3.417968750E-3
1.208065296E0,2.191162109E-2,-2.091979980E-2,5.584716797E-3
1.213100696E0,2.471923828E-2,-3.536987305E-2,7.736206055E-3
1.218136097E0,2.307128906E-2,-3.204345703E-2,9.124755859E-3
1.223171497E0,1.982116699E-2,-1.380920410E-2,1.176452637E-2
1.228206897E0,1.660156250E-2,3.814697266E-3,1.263427734E-2
1.233242298E0,1.416015625E-2,1.127624512E-2,1.263427734E-2
1.238277698E0,1.361083984E-2,8.346557617E-3,1.344299316E-2
1.243313099E0,9.536743164E-3,2.975463867E-3,1.452636719E-2
1.248348499E0,7.431030273E-3,-7.781982422E-4,1.643371582E-2
1.253383899E0,5.523681641E-3,-7.369995117E-3,1.690673828E-2
1.258419300E0,3.372192383E-3,-1.152038574E-2,1.945495605E-2
1.263454700E0,1.205444336E-3,-5.310058594E-3,2.011108398E-2
1.268490101E0,-9.155273438E-5,-1.525878906E-4,1.924133301E-2
1.273525501E0,-2.746582031E-4,3.265380859E-3,2.081298828E-2
1.278560901E0,-2.746582031E-4,1.159667969E-3,2.117919922E-2
1.283596302E0,6.256103516E-4,-1.174926758E-3,1.937866211E-2
1.288631702E0,7.934570312E-4,1.235961914E-3,1.995849609E-2
1.293667102E0,-1.373291016E-4,4.470825195E-3,2.011108398E-2
1.298702503E0,1.586914062E-3,2.090454102E-3,2.011108398E-2
1.303737903E0,9.155273438E-4,-2.075195312E-3,2.200317383E-2
1.308773304E0,1.739501953E-3,-1.617431641E-3,2.224731445E-2
1.313808704E0,8.850097656E-4,6.256103516E-3,2.322387695E-2
1.318844104E0,1.770019531E-3,1.388549805E-2,2.233886719E-2
1.323879505E0,4.821777344E-3,1.155090332E-2,2.423095703E-2
1.328914905E0,7.064819336E-3,-7.171630859E-4,2.740478516E-2
1.333950306E0,8.209228516E-3,-1.673889160E-2,2.861022949E-2
1.338985706E0,7.232666016E-3,-2.369689941E-2,3.175354004E-2
1.344021106E0,7.202148438E-3,-2.188110352E-2,3.392028809E-2
1.349056507E0,7.202148438E-3,-1.235961914E-2,3.610229492E-2
1.354091907E0,8.255004883E-3,4.730224609E-4,3.825378418E-2
1.359127308E0,6.134033203E-3,1.239013672E-2,3.933715820E-2
1.364162708E0,3.982543945E-3,1.556396484E-2,3.826904297E-2
1.369198108E0,1.876831055E-3,1.225280762E-2,3.613281250E-2
1.374233509E0,2.868652344E-3,4.806518555E-3,3.613281250E-2
1.379268909E0,7.019042969E-4,3.509521484E-4,3.610229492E-2
1.384304310E0,-1.403808594E-3,-7.202148438E-3,3.506469727E-2
1.389339710E0,-2.532958984E-3,-1.437377930E-2,3.495788574E-2
1.394375110E0,-4.699707031E-3,-1.489257812E-2,3.292846680E-2
1.399410511E0,-6.851196289E-3,-6.576538086E-3,3.302001953E-2
1.404445911E0,-8.926391602E-3,1.153564453E-2,3.390502930E-2
1.409481311E0,-9.796142578E-3,2.561950684E-2,3.283691406E-2
1.414516712E0,-8.499145508E-3,2.857971191E-2,3.198242188E-2
1.419552112E0,-5.249023438E-3,1.893615723E-2,3.280639648E-2
1.424587513E0,-2.014160156E-3,2.197265625E-3,3.199768066E-2
1.429622913E0,1.068115234E-3,-9.552001953E-3,3.308105469E-2
1.434658313E0,3.082275391E-3,-1.324462891E-2,3.416442871E-2
1.439693714E0,4.165649414E-3,-1.240539551E-2,3.524780273E-2
1.444729114E0,5.065917969E-3,-6.149291992E-3,3.649902344E-2
1.449764515E0,4.684448242E-3,4.104614258E-3,3.826904297E-2
1.454799915E0,3.326416016E-3,1.065063477E-2,3.848266602E-2
1.459835315E0,5.065917969E-3,1.217651367E-2,3.892517090E-2
1.464870716E0,5.508422852E-3,1.065063477E-2,3.654479980E-2
1.469906116E0,7.659912109E-3,6.469726562E-3,3.353881836E-2
1.474941517E0,9.811401367E-3,-8.239746094E-4,3.138732910E-2
1.479976917E0,1.147460938E-2,-8.316040039E-3,2.897644043E-2
1.485012317E0,1.119995117E-2,-1.907348633E-2,2.626037598E-2
1.490047718E0,9.567260742E-3,-2.769470215E-2,2.462768555E-2
1.495083118E0,6.042480469E-3,-2.641296387E-2,2.110290527E-2
1.500118518E0,2.044677734E-3,-1.535034180E-2,1.679992676E-2
1.505153919E0,-1.205444336E-3,-4.684448242E-3,1.278686523E-2
1.510189319E0,-4.440307617E-3,1.586914062E-3,1.019287109E-2
1.515224720E0,-6.683349609E-3,3.509521484E-3,8.789062500E-3
1.520260120E0,-6.683349609E-3,2.777099609E-3,5.935668945E-3
1.525295520E0,-6.683349609E-3,2.410888672E-3,1.968383789E-3
1.530330921E0,-7.049560547E-3,2.593994141E-4,-1.831054688E-4
1.535366321E0,-8.880615234E-3,-4.058837891E-3,-1.831054688E-4
1.540401722E0,-1.095581055E-2,-6.835937500E-3,-5.645751953E-4
1.545437122E0,-1.135253906E-2,-4.089355469E-3,-1.632690430E-3
1.550472522E0,-1.243591309E-2,3.875732422E-3,-2.319335938E-3
1.555507923E0,-1.351928711E-2,9.597778320E-3,-1.892089844E-3
1.560543323E0,-1.374816895E-2,7.263183594E-3,-8.239746094E-4
1.565578724E0,-1.133728027E-2,-2.502441406E-3,-1.052856445E-3
1.570614124E0,-7.934570312E-3,-1.274108887E-2,-2.761840820E-3
1.575649524E0,-5.783081055E-3,-1.600646973E-2,-3.387451172E-3
1.580684925E0,-4.547119141E-3,-1.257324219E-2,-3.387451172E-3
1.585720325E0,-3.585815430E-3,-6.576538086E-3,-3.387451172E-3
1.590755726E0,-1.922607422E-3,-1.983642578E-4,-3.875732422E-3
1.595791126E0,-2.365112305E-3,5.859375000E-3,-5.462646484E-3
1.600826526E0,-4.516601562E-3,6.561279297E-3,-6.072998047E-3
1.605861927E0,-5.096435547E-3,3.326416016E-3,-6.561279297E-3
1.610897327E0,-4.547119141E-3,9.155273438E-5,-8.728027344E-3
1.615932727E0,-4.547119141E-3,-2.593994141E-3,-1.087951660E-2
1.620968128E0,-5.676269531E-3,-4.196166992E-3,-1.304626465E-2
1.626003528E0,-7.827758789E-3,-5.844116211E-3,-1.577758789E-2
1.631038929E0,-9.979248047E-3,-7.995605469E-3,-1.841735840E-2
1.636074329E0,-1.037597656E-2,-1.016235352E-2,-2.058410645E-2
1.641109729E0,-1.109313965E-2,-9.323120117E-3,-2.273559570E-2
1.646145130E0,-1.263427734E-2,-7.308959961E-3,-2.487182617E-2
1.651180530E0,-1.371765137E-2,-5.615234375E-3,-2.642822266E-2
1.656215931E0,-1.416015625E-2,-4.074096680E-3,-2.813720703E-2
1.661251331E0,-1.159667969E-2,-4.928588867E-3,-2.966308594E-2
1.666286731E0,-9.246826172E-3,-7.736206055E-3,-3.009033203E-2
1.671322132E0,-8.163452148E-3,-8.316040039E-3,-3.009033203E-2
1.676357532E0,-7.080078125E-3,-5.889892578E-3,-3.009033203E-2
1.681392933E0,-5.310058594E-3,-2.639770508E-3,-3.146362305E-2
1.686428333E0,-3.158569336E-3,1.281738281E-3,-3.152465820E-2
1.691463733E0,-2.410888672E-3,3.479003906E-3,-3.115844727E-2
1.696499134E0,-9.765625000E-4,3.845214844E-3,-2.970886230E-2
1.701534534E0,-2.746582031E-4,1.647949219E-3,-2.828979492E-2
1.706569935E0,4.577636719E-4,-3.067016602E-3,-2.795410156E-2
1.711605335E0,3.051757812E-5,-6.210327148E-3,-2.795410156E-2
1.716640735E0,-2.746582031E-4,-3.799438477E-3,-2.870178223E-2
1.721676136E0,-2.609252930E-3,-2.441406250E-4,-3.056335449E-2
1.726711536E0,-5.065917969E-3,-3.295898438E-3,-3.115844727E-2
1.731746936E0,-4.821777344E-3,-1.026916504E-2,-3.115844727E-2
1.736782337E0,-5.355834961E-3,-1.138305664E-2,-3.195190430E-2
1.741817737E0,-7.263183594E-3,-5.386352539E-3,-3.222656250E-2
1.746853138E0,-9.414672852E-3,2.975463867E-3,-3.305053711E-2
1.751888538E0,-9.063720703E-3,5.737304688E-3,-3.245544434E-2
1.756923938E0,-7.980346680E-3,1.708984375E-3,-3.306579590E-2
1.761959339E0,-7.751464844E-3,-5.386352539E-3,-3.500366211E-2
1.766994739E0,-6.011962891E-3,-1.033020020E-2,-3.717041016E-2
1.772030140E0,-4.745483398E-3,-1.110839844E-2,-3.668212891E-2
1.777065540E0,-3.662109375E-3,-5.767822266E-3,-3.738403320E-2
1.782100940E0,-4.394531250E-3,-1.998901367E-3,-3.756713867E-2
1.787136341E0,0.000000000E0,1.235961914E-3,-3.665161133E-2
1.792171741E0,2.639770508E-3,1.708984375E-3,-3.556823730E-2
1.797207142E0,3.860473633E-3,-1.678466797E-4,-3.260803223E-2
1.802242542E0,4.943847656E-3,1.464843750E-3,-3.126525879E-2
1.807277942E0,4.089355469E-3,3.631591797E-3,-3.018188477E-2
1.812313343E0,4.959106445E-3,8.682250977E-3,-2.717590332E-2
1.817348743E0,5.065917969E-3,1.016235352E-2,-2.589416504E-2
1.822384143E0,2.075195312E-3,1.522827148E-2,-2.581787109E-2
1.827419544E0,3.845214844E-3,1.359558105E-2,-2.481079102E-2
1.832454944E0,6.011962891E-3,3.356933594E-3,-2.575683594E-2
1.837490345E0,8.163452148E-3,-8.468627930E-3,-2.479553223E-2
1.842525745E0,7.232666016E-3,-1.000976562E-2,-2.371215820E-2
1.847561145E0,6.149291992E-3,-1.708984375E-3,-2.471923828E-2
1.852596546E0,4.013061523E-3,1.010131836E-2,-2.580261230E-2
1.857631946E0,2.929687500E-3,1.342773438E-2,-2.581787109E-2
1.862667347E0,1.861572266E-3,1.126098633E-2,-2.688598633E-2
1.867702747E0,1.876831055E-3,1.480102539E-3,-2.796936035E-2
1.872738147E0,2.899169922E-3,-1.031494141E-2,-2.903747559E-2
1.877773548E0,1.815795898E-3,-2.053833008E-2,-3.004455566E-2
1.882808948E0,7.324218750E-4,-1.478576660E-2,-2.896118164E-2
1.887844349E0,-5.187988281E-4,-6.713867188E-4,-2.795410156E-2
1.892879749E0,-4.547119141E-3,1.388549805E-2,-2.787780762E-2
1.897915149E0,-4.730224609E-3,2.037048340E-2,-2.670288086E-2
1.902950550E0,-6.790161133E-3,2.636718750E-2,-2.455139160E-2
1.907985950E0,-7.446289062E-3,2.639770508E-2,-2.270507812E-2
1.913021351E0,-4.440307617E-3,1.582336426E-2,-2.368164062E-2
1.918056751E0,-3.356933594E-3,-1.678466797E-3,-2.354431152E-2
1.923092151E0,-2.151489258E-3,-1.138305664E-2,-2.247619629E-2
1.928127552E0,0.000000000E0,-1.268005371E-2,-2.139282227E-2
1.933162952E0,2.319335938E-3,-7.720947266E-3,-2.030944824E-2
1.938198352E0,5.401611328E-3,1.083374023E-3,-1.922607422E-2
1.943233753E0,7.202148438E-3,1.023864746E-2,-1.834106445E-2
1.948269153E0,7.003784180E-3,1.596069336E-2,-1.834106445E-2
1.953304554E0,6.500244141E-3,1.698303223E-2,-1.870727539E-2
1.958339954E0,8.895874023E-3,1.156616211E-2,-2.026367188E-2
1.963375354E0,1.101684570E-2,2.731323242E-3,-1.895141602E-2
1.968410755E0,9.338378906E-3,-1.968383789E-3,-1.679992676E-2
1.973446155E0,9.094238281E-3,-3.402709961E-3,-1.513671875E-2
1.978481556E0,8.270263672E-3,-1.815795898E-3,-1.487731934E-2
1.983516956E0,7.736206055E-3,2.212524414E-3,-1.353454590E-2
1.988552356E0,5.569458008E-3,8.148193359E-3,-1.136779785E-2
1.993587757E0,3.417968750E-3,1.303100586E-2,-8.926391602E-3
1.998623157E0,1.556396484E-3,1.890563965E-2,-5.706787109E-3
2.003658558E0,-1.373291016E-4,2.261352539E-2,-2.151489258E-3
2.008693958E0,-2.105712891E-3,2.285766602E-2,2.487182617E-3
2.013729358E0,-7.019042969E-4,1.756286621E-2,7.217407227E-3
2.018764759E0,1.464843750E-3,9.658813477E-3,1.011657715E-2
2.023800159E0,2.929687500E-3,2.777099609E-3,1.193237305E-2
2.028835560E0,2.929687500E-3,9.918212891E-4,1.263427734E-2
2.033870960E0,2.929687500E-3,3.189086914E-3,1.301574707E-2
2.038906360E0,3.677368164E-3,8.255004883E-3,1.408386230E-2
2.043941761E0,4.669189453E-3,1.591491699E-2,1.477050781E-2
2.048977161E0,4.394531250E-3,2.279663086E-2,1.518249512E-2
2.054012561E0,5.477905273E-3,2.206420898E-2,1.626586914E-2
2.059047962E0,6.134033203E-3,1.452636719E-2,1.733398438E-2
2.064083362E0,5.249023438E-3,5.050659180E-3,1.841735840E-2
2.069118763E0,3.540039062E-3,1.525878906E-3,1.815795898E-2
2.074154163E0,2.456665039E-3,4.150390625E-3,1.644897461E-2
2.079189563E0,1.861572266E-3,6.912231445E-3,1.538085938E-2
2.084224964E0,-6.103515625E-5,8.590698242E-3,1.429748535E-2
2.089260364E0,-2.914428711E-3,7.217407227E-3,1.370239258E-2
2.094295765E0,-3.479003906E-3,3.906250000E-3,1.420593262E-2
2.099331165E0,-3.479003906E-3,2.777099609E-3,1.579284668E-2
2.104366565E0,-3.479003906E-3,5.386352539E-3,1.744079590E-2
2.109401966E0,-4.013061523E-3,1.239013672E-2,1.904296875E-2
2.114437366E0,-4.547119141E-3,2.046203613E-2,2.174377441E-2
2.119472767E0,-4.547119141E-3,2.635192871E-2,2.442932129E-2
2.124508167E0,-4.547119141E-3,2.896118164E-2,2.545166016E-2
2.129543567E0,-3.982543945E-3,2.832031250E-2,2.603149414E-2
2.134578968E0,-2.899169922E-3,2.320861816E-2,2.770996094E-2
2.139614368E0,-1.220703125E-3,1.266479492E-2,2.986145020E-2
2.144649768E0,9.307861328E-4,1.556396484E-3,3.079223633E-2
2.149685169E0,1.861572266E-3,-4.440307617E-3,3.266906738E-2
2.154720569E0,5.950927734E-4,-3.250122070E-3,3.463745117E-2
2.159755970E0,-2.212524414E-3,4.272460938E-3,3.572082520E-2
2.164791370E0,-5.447387695E-3,1.397705078E-2,3.483581543E-2
2.169826770E0,-8.010864258E-3,2.102661133E-2,3.334045410E-2
2.174862171E0,-1.017761230E-2,2.037048340E-2,3.091430664E-2
2.179897571E0,-1.028442383E-2,1.263427734E-2,2.972412109E-2
2.184932972E0,-9.201049805E-3,3.616333008E-3,2.903747559E-2
2.189968372E0,-8.819580078E-3,-7.781982422E-4,2.725219727E-2
2.195003772E0,-8.819580078E-3,-1.495361328E-3,2.580261230E-2
2.200039173E0,-8.819580078E-3,2.151489258E-3,2.400207520E-2
2.205074573E0,-8.819580078E-3,8.285522461E-3,2.258300781E-2
2.210109974E0,-1.109313965E-2,1.400756836E-2,2.224731445E-2
2.215145374E0,-1.354980469E-2,1.863098145E-2,2.073669434E-2
2.220180774E0,-1.339721680E-2,2.372741699E-2,1.934814453E-2
2.225216175E0,-1.152038574E-2,2.362060547E-2,1.904296875E-2
2.230251575E0,-1.095581055E-2,1.829528809E-2,1.824951172E-2
2.235286976E0,-9.353637695E-3,1.261901855E-2,1.878356934E-2
2.240322376E0,-6.362915039E-3,8.041381836E-3,1.986694336E-2
2.245357776E0,-5.615234375E-3,5.386352539E-3,2.095031738E-2
2.250393177E0,-5.615234375E-3,7.415771484E-3,2.035522461E-2
2.255428577E0,-5.615234375E-3,1.484680176E-2,2.011108398E-2
2.260463977E0,-7.354736328E-3,2.355957031E-2,2.185058594E-2
2.265499378E0,-8.636474609E-3,2.256774902E-2,2.313232422E-2
2.270534778E0,-6.164550781E-3,1.402282715E-2,2.421569824E-2
2.275570179E0,-3.829956055E-3,8.789062500E-3,2.438354492E-2
2.280605579E0,-5.294799805E-3,1.263427734E-2,2.258300781E-2
2.285640979E0,-7.461547852E-3,2.078247070E-2,2.224731445E-2
2.290676380E0,-6.835937500E-3,1.641845703E-2,2.133178711E-2
2.295711780E0,-6.683349609E-3,6.210327148E-3,2.212524414E-2
2.300747181E0,-5.752563477E-3,1.831054688E-4,2.037048340E-2
2.305799726E0,-7.537841797E-3,2.441406250E-3,2.011108398E-2
2.310835126E0,-8.728027344E-3,6.622314453E-3,1.914978027E-2
2.315870527E0,-1.272583008E-2,1.094055176E-2,1.808166504E-2
2.320905927E0,-1.506042480E-2,1.524353027E-2,1.502990723E-2
2.325941328E0,-1.722717285E-2,1.260375977E-2,1.278686523E-2
2.330976728E0,-1.838684082E-2,9.353637695E-3,1.062011719E-2
2.336012128E0,-1.742553711E-2,5.096435547E-3,8.468627930E-3
2.341047529E0,-1.840209961E-2,3.875732422E-3,6.317138672E-3
2.346082929E0,-1.739501953E-2,6.958007812E-3,5.187988281E-3
2.351118330E0,-1.525878906E-2,8.102416992E-3,5.157470703E-3
2.356153730E0,-1.310729980E-2,5.981445312E-3,3.036499023E-3
2.361189130E0,-1.200866699E-2,1.025390625E-2,3.036499023E-3
2.366224531E0,-8.773803711E-3,1.239013672E-2,4.074096680E-3
2.371259931E0,-5.599975586E-3,1.232910156E-2,3.005981445E-3
2.376295331E0,-4.516601562E-3,1.033020020E-2,1.876831055E-3
2.381330732E0,-3.479003906E-3,1.257324219E-2,-2.746582031E-4
2.386366132E0,-3.479003906E-3,1.683044434E-2,-2.258300781E-3
2.391401533E0,-3.555297852E-3,1.963806152E-2,-1.251220703E-3
2.396436933E0,-4.638671875E-3,1.594543457E-2,-1.083374023E-3
2.401472333E0,-5.523681641E-3,6.393432617E-3,9.918212891E-4
2.406507734E0,-4.760742188E-3,-3.356933594E-4,1.953125000E-3
2.411543134E0,-6.683349609E-3,9.613037109E-4,1.739501953E-3
2.416578535E0,-6.820678711E-3,3.967285156E-3,-4.272460938E-4
2.421613935E0,-7.629394531E-3,5.172729492E-3,-2.578735352E-3
2.426649335E0,-6.835937500E-3,6.759643555E-3,-4.592895508E-3
2.431684736E0,-7.751464844E-3,4.440307617E-3,-5.676269531E-3
2.436720136E0,-7.415771484E-3,1.022338867E-3,-6.591796875E-3
2.441755537E0,-5.798339844E-3,-2.929687500E-3,-6.591796875E-3
2.446790937E0,-6.500244141E-3,-4.333496094E-3,-6.958007812E-3
2.451826337E0,-5.615234375E-3,-6.103515625E-4,-9.109497070E-3
2.456861738E0,-5.416870117E-3,8.743286133E-3,-1.127624512E-2
2.461897138E0,-4.104614258E-3,1.042175293E-2,-1.344299316E-2
2.466932538E0,-2.182006836E-3,4.455566406E-3,-1.583862305E-2
2.471967939E0,-6.256103516E-4,-7.125854492E-3,-1.834106445E-2
2.477003339E0,1.861572266E-3,-1.437377930E-2,-1.858520508E-2
2.482038740E0,1.861572266E-3,-7.446289062E-3,-1.966857910E-2
2.487074140E0,1.312255859E-3,7.125854492E-3,-2.101135254E-2
2.492109540E0,-2.746582031E-4,1.524353027E-2,-2.288818359E-2
2.497144941E0,3.051757812E-4,6.591796875E-3,-2.368164062E-2
2.502180341E0,2.777099609E-3,-1.005554199E-2,-2.336120605E-2
2.507215742E0,4.425048828E-3,-1.979064941E-2,-2.291870117E-2
2.512251142E0,2.273559570E-3,-1.194763184E-2,-2.400207520E-2
2.517286542E0,7.934570312E-4,4.013061523E-3,-2.542114258E-2
2.522321943E0,7.934570312E-4,1.062011719E-2,-2.688598633E-2
2.527357343E0,7.934570312E-4,4.516601562E-3,-2.688598633E-2
2.532392744E0,1.525878906E-3,-8.743286133E-3,-2.650451660E-2
2.537428144E0,3.677368164E-3,-1.608276367E-2,-2.581787109E-2
2.542463544E0,5.844116211E-3,-1.226806641E-2,-2.619934082E-2
2.547498945E0,7.202148438E-3,-2.441406250E-3,-2.728271484E-2
2.552534345E0,7.614135742E-3,5.737304688E-3,-2.795410156E-2
2.557569746E0,9.521484375E-3,3.280639648E-3,-2.795410156E-2
2.562605146E0,1.231384277E-2,-6.393432617E-3,-2.879333496E-2
2.567640546E0,1.361083984E-2,-1.351928711E-2,-3.009033203E-2
2.572675947E0,1.315307617E-2,-1.264953613E-2,-3.053283691E-2
2.577711347E0,1.254272461E-2,-5.722045898E-3,-3.161621094E-2
2.582746747E0,1.205444336E-2,-5.493164062E-4,-3.173828125E-2
2.587782148E0,1.048278809E-2,-8.392333984E-4,-3.115844727E-2
2.592817548E0,9.338378906E-3,-4.058837891E-3,-3.215026855E-2
2.597852949E0,9.338378906E-3,-5.767822266E-3,-3.430175781E-2
2.602888349E0,9.857177734E-3,-7.858276367E-3,-3.489685059E-2
2.607923749E0,1.040649414E-2,-1.164245605E-2,-3.329467773E-2
2.612959150E0,1.094055176E-2,-1.487731934E-2,-3.167724609E-2
2.617994550E0,1.091003418E-2,-1.423645020E-2,-3.059387207E-2
2.623029951E0,1.040649414E-2,-9.368896484E-3,-2.896118164E-2
2.628065351E0,9.826660156E-3,-6.271362305E-3,-2.795410156E-2
2.633100751E0,9.338378906E-3,-8.102416992E-3,-2.853393555E-2
2.638136152E0,9.338378906E-3,-1.124572754E-2,-2.961730957E-2
2.643171552E0,9.338378906E-3,-1.278686523E-2,-2.947998047E-2
2.648206953E0,9.948730469E-3,-1.324462891E-2,-2.902221680E-2
2.653242353E0,1.040649414E-2,-1.261901855E-2,-2.838134766E-2
2.658277753E0,1.040649414E-2,-1.155090332E-2,-2.731323242E-2
2.663313154E0,1.104736328E-2,-9.811401367E-3,-2.752685547E-2
2.668348554E0,1.147460938E-2,-8.316040039E-3,-2.795410156E-2
2.673383955E0,1.213073730E-2,-5.905151367E-3,-2.593994141E-2
2.678419355E0,1.321411133E-2,-4.028320312E-3,-2.406311035E-2
2.683454755E0,1.498413086E-2,-2.258300781E-3,-2.368164062E-2
2.688490156E0,1.643371582E-2,-2.899169922E-3,-2.368164062E-2
2.693525556E0,1.823425293E-2,-8.636474609E-3,-2.438354492E-2
2.698560956E0,1.966857910E-2,-1.400756836E-2,-2.330017090E-2
2.703596357E0,1.927185059E-2,-1.025390625E-2,-2.186584473E-2
2.708631757E0,1.745605469E-2,3.051757812E-4,-2.154541016E-2
2.713667158E0,1.681518555E-2,3.845214844E-3,-2.154541016E-2
2.718702558E0,1.834106445E-2,-3.829956055E-3,-2.000427246E-2
2.723737958E0,1.972961426E-2,-1.152038574E-2,-1.940917969E-2
2.728773359E0,1.765441895E-2,-7.736206055E-3,-1.861572266E-2
2.733808759E0,1.600646973E-2,-9.765625000E-4,-1.753234863E-2
2.738844160E0,1.411437988E-2,2.258300781E-3,-1.644897461E-2
2.743879560E0,1.277160645E-2,-5.340576172E-4,-1.620483398E-2
2.748914960E0,1.336669922E-2,-4.852294922E-3,-1.536560059E-2
2.753950361E0,1.191711426E-2,-1.000976562E-2,-1.258850098E-2
2.758985761E0,9.750366211E-3,-1.197814941E-2,-1.106262207E-2
2.764021162E0,7.583618164E-3,-1.306152344E-2,-9.109497070E-3
2.769056562E0,7.202148438E-3,-9.735107422E-3,-7.843017578E-3
2.774091962E0,7.202148438E-3,-8.087158203E-3,-5.874633789E-3
2.779127363E0,7.202148438E-3,-8.819580078E-3,-4.608154297E-3
2.784162763E0,5.371093750E-3,-8.972167969E-3,-2.624511719E-3
2.789198163E0,4.135131836E-3,-8.056640625E-3,-2.319335938E-3
2.794233564E0,6.805419922E-3,-6.973266602E-3,-4.425048828E-4
2.799268964E0,7.202148438E-3,-5.905151367E-3,-1.113891602E-3
2.804304365E0,8.148193359E-3,-7.690429688E-3,-2.899169922E-4
2.809339765E0,1.020812988E-2,-7.904052734E-3,7.934570312E-4
2.814375165E0,1.234436035E-2,-3.051757812E-3,3.799438477E-3
2.819410566E0,1.254272461E-2,2.349853516E-3,4.089355469E-3
2.824445966E0,1.353454590E-2,4.760742188E-3,5.096435547E-3
2.829481367E0,1.661682129E-2,-2.120971680E-3,4.165649414E-3
2.834516767E0,1.681518555E-2,-1.069641113E-2,4.089355469E-3
2.839552167E0,1.577758789E-2,-1.110839844E-2,3.067016602E-3
2.844587568E0,1.367187500E-2,-3.860473633E-3,4.058837891E-3
2.849622968E0,1.150512695E-2,3.692626953E-3,4.089355469E-3
2.854658369E0,9.338378906E-3,1.708984375E-3,6.225585938E-3
2.859693769E0,6.134033203E-3,-4.699707031E-3,6.225585938E-3
2.864729169E0,5.065917969E-3,-8.972167969E-3,8.361816406E-3
2.869764570E0,3.906250000E-3,-8.895874023E-3,1.052856445E-2
2.874799970E0,6.866455078E-4,-5.615234375E-3,1.161193848E-2
2.879835371E0,-2.410888672E-3,-4.272460938E-4,1.263427734E-2
2.884870771E0,-2.593994141E-3,-4.882812500E-4,1.263427734E-2
2.889906171E0,-5.554199219E-3,-1.571655273E-3,1.271057129E-2
2.894941572E0,-4.547119141E-3,-2.731323242E-3,1.379394531E-2
2.899976972E0,-4.547119141E-3,-4.959106445E-3,1.495361328E-2
2.905012372E0,-4.547119141E-3,-8.010864258E-3,1.701354980E-2
2.910047773E0,-4.440307617E-3,-8.529663086E-3,1.797485352E-2
2.915083173E0,-3.356933594E-3,-4.333496094E-3,1.823425293E-2
2.920118574E0,-2.410888672E-3,-1.373291016E-3,2.011108398E-2
2.925153974E0,-2.700805664E-3,-4.272460938E-4,1.997375488E-2
2.930189374E0,-4.409790039E-3,-4.272460938E-4,1.904296875E-2
2.935224775E0,-3.479003906E-3,-9.307861328E-4,1.904296875E-2
2.940260175E0,-3.479003906E-3,-4.318237305E-3,1.904296875E-2
2.945295576E0,-3.112792969E-3,-8.102416992E-3,1.904296875E-2
2.950330976E0,-1.342773438E-3,-8.590698242E-3,1.924133301E-2
2.955366376E0,-1.342773438E-3,-5.630493164E-3,2.032470703E-2
2.960401777E0,-1.571655273E-3,-4.272460938E-4,2.140808105E-2
2.965437177E0,-2.197265625E-3,-1.113891602E-3,2.224731445E-2
2.970472578E0,-1.815795898E-3,-3.631591797E-3,2.224731445E-2
2.975507978E0,-3.738403320E-3,-3.387451172E-3,2.224731445E-2
2.980543378E0,-4.547119141E-3,-1.800537109E-3,2.174377441E-2
2.985578779E0,-4.821777344E-3,6.408691406E-4,2.011108398E-2
2.990614179E0,-6.179809570E-3,6.408691406E-4,2.067565918E-2
2.995649580E0,-8.041381836E-3,6.103515625E-5,2.253723145E-2
3.000684980E0,-9.124755859E-3,-2.410888672E-3,2.362060547E-2
3.005720380E0,-9.887695312E-3,-5.645751953E-3,2.500915527E-2
3.010755781E0,-9.887695312E-3,-7.263183594E-3,2.685546875E-2
3.015791181E0,-1.022338867E-2,-4.440307617E-3,2.758789062E-2
3.020826581E0,-1.130676270E-2,-4.730224609E-4,2.793884277E-2
3.025861982E0,-1.167297363E-2,2.410888672E-3,2.830505371E-2
3.030897382E0,-1.058959961E-2,3.097534180E-3,2.685546875E-2
3.035932783E0,-9.521484375E-3,5.645751953E-4,2.583312988E-2
3.040968183E0,-9.216308594E-3,-2.273559570E-3,2.691650391E-2
3.046003583E0,-9.887695312E-3,-2.441406250E-3,2.799987793E-2
3.051038984E0,-9.887695312E-3,1.205444336E-3,2.865600586E-2
3.056074384E0,-9.475708008E-3,3.845214844E-3,2.824401855E-2
3.061109785E0,-8.819580078E-3,2.975463867E-3,2.803039551E-2
3.066145185E0,-8.377075195E-3,3.662109375E-4,2.911376953E-2
3.071180585E0,-7.751464844E-3,-1.953125000E-3,2.972412109E-2
3.076215986E0,-8.224487305E-3,-3.036499023E-3,2.880859375E-2
3.081251386E0,-8.819580078E-3,-4.104614258E-3,2.758789062E-2
3.086286787E0,-9.307861328E-3,-5.676269531E-3,2.711486816E-2
3.091322187E0,-9.887695312E-3,-4.882812500E-3,2.651977539E-2
3.096357587E0,-1.040649414E-2,-5.493164062E-4,2.651977539E-2
3.101392988E0,-1.147460938E-2,4.272460938E-3,2.549743652E-2
3.106428388E0,-1.307678223E-2,6.515502930E-3,2.334594727E-2
3.111463788E0,-1.362609863E-2,3.280639648E-3,2.224731445E-2
3.116499189E0,-1.255798340E-2,-3.189086914E-3,2.279663086E-2
3.121534589E0,-1.258850098E-2,-7.400512695E-3,2.276611328E-2
3.126569990E0,-1.367187500E-2,-4.516601562E-3,2.168273926E-2
3.131605390E0,-1.416015625E-2,1.953125000E-3,2.061462402E-2
3.136640790E0,-1.298522949E-2,6.668090820E-3,1.953125000E-2
3.141676191E0,-1.142883301E-2,7.507324219E-3,2.024841309E-2
3.146711591E0,-9.750366211E-3,5.218505859E-3,2.058410645E-2
3.151746992E0,-8.819580078E-3,2.593994141E-3,2.073669434E-2
3.156782392E0,-8.193969727E-3,1.708984375E-3,2.182006836E-2
3.161817792E0,-7.110595703E-3,2.349853516E-3,2.160644531E-2
3.166853193E0,-6.042480469E-3,2.777099609E-3,2.117919922E-2
3.171888593E0,-3.646850586E-3,2.105712891E-3,2.117919922E-2
3.176923994E0,-2.410888672E-3,2.380371094E-3,2.050781250E-2
3.181959394E0,-1.724243164E-3,6.210327148E-3,2.011108398E-2
3.186994794E0,4.577636719E-5,1.089477539E-2,1.872253418E-2
3.192030195E0,7.629394531E-5,1.167297363E-2,1.585388184E-2
3.197065595E0,-1.724243164E-3,7.705688477E-3,1.550292969E-2
3.202100996E0,-2.410888672E-3,3.768920898E-3,1.510620117E-2
3.207136396E0,-3.158569336E-3,1.281738281E-3,1.477050781E-2
3.212171796E0,-3.479003906E-3,-8.850097656E-4,1.402282715E-2
3.217207197E0,-4.257202148E-3,-3.814697266E-3,1.293945312E-2
3.222242597E0,-4.547119141E-3,-7.049560547E-3,1.107788086E-2
3.227277997E0,-4.547119141E-3,-1.026916504E-2,7.354736328E-3
3.232313398E0,-6.149291992E-3,-1.031494141E-2,5.432128906E-3
3.237348798E0,-6.683349609E-3,-7.614135742E-3,4.348754883E-3
3.242384199E0,-7.522583008E-3,-2.716064453E-3,2.441406250E-3
3.247419599E0,-8.590698242E-3,3.494262695E-3,2.899169922E-4
3.252454999E0,-7.980346680E-3,8.285522461E-3,-1.831054688E-4
3.257490400E0,-7.751464844E-3,7.461547852E-3,6.866455078E-4
3.262525800E0,-5.157470703E-3,1.068115234E-4,8.850097656E-4
3.267561201E0,-2.792358398E-3,-9.399414062E-3,1.770019531E-3
3.272596601E0,-2.410888672E-3,-1.734924316E-2,1.831054688E-4
3.277632001E0,-2.410888672E-3,-1.770019531E-2,7.171630859E-4
3.282667402E0,-1.510620117E-3,-1.028442383E-2,1.800537109E-3
3.287702802E0,-1.342773438E-3,-7.171630859E-4,1.220703125E-4
3.292738203E0,-4.272460938E-4,7.110595703E-3,-1.098632812E-3
3.297773603E0,-2.746582031E-4,8.117675781E-3,-2.182006836E-3
3.302809003E0,2.563476562E-3,5.264282227E-3,-2.319335938E-3
3.307844404E0,3.875732422E-3,-1.800537109E-3,-2.319335938E-3
3.312879804E0,6.896972656E-3,-9.353637695E-3,-3.280639648E-3
3.317915205E0,8.178710938E-3,-1.397705078E-2,-4.364013672E-3
3.322950605E0,9.246826172E-3,-1.530456543E-2,-5.432128906E-3
3.327986005E0,8.331298828E-3,-9.368896484E-3,-7.522583008E-3
3.333021406E0,8.270263672E-3,-8.544921875E-4,-7.659912109E-3
3.338056806E0,9.292602539E-3,3.662109375E-3,-9.704589844E-3
3.343092206E0,1.139831543E-2,4.867553711E-3,-1.185607910E-2
3.348127607E0,9.384155273E-3,7.324218750E-4,-1.504516602E-2
3.353163007E0,7.217407227E-3,-1.480102539E-3,-1.618957520E-2
3.358198408E0,7.202148438E-3,-1.004028320E-2,-1.620483398E-2
3.363233808E0,8.270263672E-3,-1.756286621E-2,-1.620483398E-2
3.368269208E0,8.239746094E-3,-2.062988281E-2,-1.622009277E-2
3.373304609E0,7.171630859E-3,-1.518249512E-2,-1.731872559E-2
3.378340009E0,6.042480469E-3,-6.561279297E-3,-1.940917969E-2
3.383375410E0,4.043579102E-3,6.408691406E-4,-1.930236816E-2
3.388410810E0,5.111694336E-3,3.967285156E-4,-1.731872559E-2
3.393446210E0,6.195068359E-3,-3.921508789E-3,-1.834106445E-2
3.398481611E0,7.202148438E-3,-8.163452148E-3,-1.834106445E-2
3.403517011E0,7.293701172E-3,-1.121520996E-2,-1.843261719E-2
3.408552412E0,8.468627930E-3,-1.217651367E-2,-1.908874512E-2
3.413587812E0,1.051330566E-2,-1.254272461E-2,-1.631164551E-2
3.418623212E0,1.147460938E-2,-1.538085938E-2,-1.751708984E-2
3.423658613E0,1.147460938E-2,-1.510620117E-2,-1.940917969E-2
3.428694013E0,1.132202148E-2,-1.264953613E-2,-1.940917969E-2
3.433729413E0,1.023864746E-2,-8.819580078E-3,-1.956176758E-2
3.438764814E0,9.155273438E-3,-7.736206055E-3,-2.064514160E-2
3.443800214E0,8.087158203E-3,-7.202148438E-3,-2.136230469E-2
3.448835615E0,7.202148438E-3,-9.933471680E-3,-2.027893066E-2
3.453871015E0,6.988525391E-3,-1.472473145E-2,-1.919555664E-2
3.458906415E0,6.546020508E-3,-1.603698730E-2,-1.834106445E-2
3.463941816E0,7.812500000E-3,-1.409912109E-2,-1.855468750E-2
3.468977216E0,6.134033203E-3,-1.324462891E-2,-1.916503906E-2
3.474012617E0,6.362915039E-3,-1.278686523E-2,-1.834106445E-2
3.479048017E0,7.202148438E-3,-1.060485840E-2,-1.858520508E-2
3.484083417E0,7.202148438E-3,-8.178710938E-3,-1.940917969E-2
3.489118818E0,7.476806641E-3,-6.057739258E-3,-1.911926270E-2
3.494154218E0,8.270263672E-3,-7.705688477E-3,-1.805114746E-2
3.499189619E0,8.270263672E-3,-1.065063477E-2,-1.756286621E-2
3.504225019E0,8.575439453E-3,-1.341247559E-2,-1.771545410E-2
3.509260419E0,8.682250977E-3,-1.678466797E-2,-1.620483398E-2
3.514295820E0,7.522583008E-3,-1.751708984E-2,-1.620483398E-2
3.519331220E0,7.919311523E-3,-1.718139648E-2,-1.551818848E-2
3.524366621E0,7.202148438E-3,-1.574707031E-2,-1.406860352E-2
3.529402021E0,7.202148438E-3,-1.359558105E-2,-1.406860352E-2
3.534437421E0,6.454467773E-3,-1.181030273E-2,-1.406860352E-2
3.539472822E0,5.065917969E-3,-1.072692871E-2,-1.367187500E-2
3.544508222E0,5.462646484E-3,-1.004028320E-2,-1.219177246E-2
3.549543622E0,6.530761719E-3,-1.086425781E-2,-1.045227051E-2
3.554579023E0,6.362915039E-3,-1.342773438E-2,-1.020812988E-2
3.559614423E0,5.477905273E-3,-1.580810547E-2,-1.000976562E-2
3.564649824E0,6.561279297E-3,-1.689147949E-2,-8.728027344E-3
3.569685224E0,7.202148438E-3,-1.618957520E-2,-9.613037109E-3
3.574720624E0,6.729125977E-3,-1.339721680E-2,-9.933471680E-3
3.579756025E0,6.134033203E-3,-1.077270508E-2,-8.728027344E-3
3.584791425E0,6.134033203E-3,-8.972167969E-3,-8.728027344E-3
3.589826826E0,6.134033203E-3,-9.963989258E-3,-8.224487305E-3
3.594862226E0,5.630493164E-3,-1.161193848E-2,-8.148193359E-3
3.599897626E0,4.043579102E-3,-1.422119141E-2,-8.209228516E-3
3.604933027E0,2.395629883E-3,-1.644897461E-2,-7.659912109E-3
3.609968427E0,1.861572266E-3,-1.644897461E-2,-7.125854492E-3
3.615003828E0,1.312255859E-3,-1.591491699E-2,-6.591796875E-3
3.620039228E0,2.288818359E-4,-1.538085938E-2,-5.477905273E-3
3.625074628E0,-2.746582031E-4,-1.370239258E-2,-5.004882812E-3
3.630110029E0,-8.544921875E-4,-1.161193848E-2,-3.784179688E-3
3.635145429E0,-1.342773438E-3,-8.773803711E-3,-2.899169922E-3
3.640180830E0,-1.953125000E-3,-6.835937500E-3,-2.777099609E-3
3.645216230E0,-3.021240234E-3,-8.056640625E-3,-1.098632812E-3
3.650251630E0,-2.868652344E-3,-9.597778320E-3,-1.831054688E-4
3.655287031E0,-3.051757812E-3,-1.193237305E-2,-1.831054688E-4
3.660322431E0,-3.479003906E-3,-1.646423340E-2,1.113891602E-3
3.665357831E0,-3.479003906E-3,-1.858520508E-2,3.265380859E-3
3.670393232E0,-4.806518555E-3,-1.594543457E-2,4.089355469E-3
3.675428632E0,-6.286621094E-3,-1.231384277E-2,4.760742188E-3
3.680464033E0,-6.011962891E-3,-9.063720703E-3,4.486083984E-3
3.685499433E0,-4.928588867E-3,-8.605957031E-3,5.493164062E-3
3.690534833E0,-4.547119141E-3,-8.270263672E-3,7.644653320E-3
3.695570234E0,-4.547119141E-3,-7.904052734E-3,8.361816406E-3
3.700605634E0,-5.279541016E-3,-1.010131836E-2,6.912231445E-3
3.705641035E0,-7.110595703E-3,-1.110839844E-2,6.225585938E-3
3.710676435E0,-9.262084961E-3,-1.261901855E-2,8.499145508E-3
3.715711835E0,-9.887695312E-3,-1.553344727E-2,1.019287109E-2
3.720747236E0,-9.887695312E-3,-1.644897461E-2,1.127624512E-2
3.725782636E0,-1.145935059E-2,-1.489257812E-2,1.000976562E-2
3.730818037E0,-1.281738281E-2,-1.431274414E-2,1.101684570E-2
3.735853437E0,-1.148986816E-2,-1.351928711E-2,1.237487793E-2
3.740888837E0,-1.177978516E-2,-1.162719727E-2,1.182556152E-2
3.745924238E0,-1.202392578E-2,-1.028442383E-2,1.156616211E-2
3.750959638E0,-1.286315918E-2,-8.377075195E-3,1.156616211E-2
3.755995038E0,-1.225280762E-2,-7.064819336E-3,1.242065430E-2
3.761030439E0,-1.202392578E-2,-6.835937500E-3,1.348876953E-2
3.766065839E0,-1.116943359E-2,-8.575439453E-3,1.544189453E-2
3.771101240E0,-1.095581055E-2,-9.857177734E-3,1.583862305E-2
3.776136640E0,-1.184082031E-2,-1.004028320E-2,1.583862305E-2
3.781172040E0,-1.292419434E-2,-7.354736328E-3,1.583862305E-2
3.786207441E0,-1.309204102E-2,-3.219604492E-3,1.675415039E-2
3.791242841E0,-1.309204102E-2,-2.563476562E-3,1.690673828E-2
3.796278242E0,-1.217651367E-2,-2.563476562E-3,1.876831055E-2
3.801313642E0,-1.296997070E-2,-3.509521484E-3,1.904296875E-2
3.806349042E0,-1.405334473E-2,-5.538940430E-3,1.904296875E-2
3.811384443E0,-1.416015625E-2,-3.845214844E-3,1.904296875E-2
3.816419843E0,-1.126098633E-2,-3.631591797E-3,1.904296875E-2
3.821455244E0,-1.095581055E-2,-6.591796875E-3,2.003479004E-2
3.826490644E0,-9.963989258E-3,-6.835937500E-3,2.111816406E-2
3.831526044E0,-1.089477539E-2,-6.835937500E-3,2.218627930E-2
3.836561445E0,-1.197814941E-2,-6.835937500E-3,2.021789551E-2
3.841596845E0,-9.979248047E-3,-7.873535156E-3,2.011108398E-2
3.846632246E0,-9.887695312E-3,-4.806518555E-3,1.908874512E-2
3.851667646E0,-7.797241211E-3,-2.609252930E-3,2.114868164E-2
3.856703046E0,-6.698608398E-3,-1.510620117E-3,2.012634277E-2
3.861738447E0,-8.819580078E-3,-2.563476562E-3,1.904296875E-2
3.866773847E0,-7.751464844E-3,-3.662109375E-3,1.797485352E-2
3.871809247E0,-7.781982422E-3,-5.828857422E-3,1.690673828E-2
3.876844648E0,-8.819580078E-3,-8.041381836E-3,1.690673828E-2
3.881880048E0,-8.865356445E-3,-1.210021973E-2,1.687622070E-2
3.886915449E0,-9.887695312E-3,-9.735107422E-3,1.583862305E-2
3.891950849E0,-9.826660156E-3,-3.311157227E-3,1.571655273E-2
3.896986249E0,-8.819580078E-3,1.922607422E-3,1.377868652E-2
3.902021650E0,-8.743286133E-3,4.913330078E-3,1.469421387E-2
3.907057050E0,-7.659912109E-3,4.806518555E-3,1.380920410E-2
3.912092451E0,-6.790161133E-3,3.936767578E-3,1.467895508E-2
3.917127851E0,-7.751464844E-3,5.020141602E-3,1.370239258E-2
3.922163251E0,-7.751464844E-3,5.844116211E-3,1.383972168E-2
3.927198652E0,-7.476806641E-3,4.074096680E-3,1.492309570E-2
3.932234052E0,-5.477905273E-3,-2.258300781E-3,1.583862305E-2
3.937269453E0,-4.547119141E-3,-6.683349609E-3,1.583862305E-2
3.942304853E0,-4.379272461E-3,-4.928588867E-3,1.583862305E-2
3.947340253E0,-3.662109375E-3,2.899169922E-4,1.548767090E-2
3.952375654E0,-4.745483398E-3,4.211425781E-3,1.313781738E-2
3.957411054E0,-5.218505859E-3,5.767822266E-3,1.049804688E-2
3.962446455E0,-3.265380859E-3,3.829956055E-3,1.028442383E-2
3.967481855E0,-2.197265625E-3,-1.770019531E-3,8.987426758E-3
3.972517255E0,-1.113891602E-3,-7.553100586E-3,6.591796875E-3
3.977552656E0,-2.746582031E-4,-1.004028320E-2,4.089355469E-3
3.982588056E0,-3.051757812E-5,-9.796142578E-3,3.845214844E-3
3.987623456E0,7.934570312E-4,-8.438110352E-3,2.227783203E-3
3.992658857E0,1.068115234E-3,-6.286621094E-3,3.814697266E-4
3.997694257E0,1.571655273E-3,-2.975463867E-3,1.953125000E-3
4.002729658E0,1.831054688E-4,3.509521484E-3,1.052856445E-3
4.007765058E0,-1.342773438E-3,8.422851562E-3,-1.556396484E-3
4.012800458E0,-1.022338867E-3,6.927490234E-3,-2.639770508E-3
4.017835859E0,3.814697266E-4,-6.408691406E-4,-3.707885742E-3
4.022871259E0,1.510620117E-3,-7.156372070E-3,-4.455566406E-3
4.027906660E0,7.934570312E-4,-9.689331055E-3,-4.806518555E-3
4.032942060E0,4.272460938E-4,-8.255004883E-3,-5.523681641E-3
4.037977460E0,8.392333984E-4,-6.469726562E-3,-5.142211914E-3
4.043012861E0,2.151489258E-3,-5.386352539E-3,-5.218505859E-3
4.048048261E0,3.814697266E-4,-3.509521484E-3,-6.179809570E-3
4.053083662E0,1.220703125E-4,-1.495361328E-3,-5.920410156E-3
4.058119062E0,1.205444336E-3,-6.713867188E-4,-5.752563477E-3
4.063154462E0,2.288818359E-3,6.408691406E-4,-4.455566406E-3
4.068189863E0,3.799438477E-3,-2.441406250E-4,-5.767822266E-3
4.073225263E0,5.950927734E-3,-3.295898438E-3,-8.102416992E-3
4.078260663E0,8.102416992E-3,-6.683349609E-3,-8.270263672E-3
4.083296064E0,1.025390625E-2,-6.515502930E-3,-7.186889648E-3
4.088331464E0,1.147460938E-2,-2.777099609E-3,-6.591796875E-3
4.093366865E0,1.196289062E-2,1.037597656E-3,-6.591796875E-3
4.098402265E0,1.354980469E-2,1.754760742E-3,-6.591796875E-3
4.103437665E0,1.518249512E-2,1.220703125E-4,-7.095336914E-3
4.108473066E0,1.626586914E-2,1.663208008E-3,-7.659912109E-3
4.113508466E0,1.681518555E-2,5.447387695E-3,-8.193969727E-3
4.118543867E0,1.626586914E-2,7.049560547E-3,-9.262084961E-3
4.123579267E0,1.686096191E-2,4.806518555E-3,-9.231567383E-3
4.128614667E0,1.788330078E-2,1.068115234E-3,-9.292602539E-3
4.133650068E0,1.730346680E-2,-4.272460938E-4,-9.796142578E-3
4.138685468E0,1.562500000E-2,7.476806641E-4,-1.037597656E-2
4.143720869E0,1.345825195E-2,2.914428711E-3,-1.266479492E-2
4.148756269E0,1.130676270E-2,3.845214844E-3,-1.467895508E-2
4.153791669E0,9.140014648E-3,3.204345703E-3,-1.576232910E-2
4.158827070E0,8.895874023E-3,2.136230469E-3,-1.620483398E-2
4.163862470E0,8.026123047E-3,1.052856445E-3,-1.750183105E-2
4.168897871E0,7.202148438E-3,1.296997070E-3,-1.899719238E-2
4.173933271E0,5.859375000E-3,2.365112305E-3,-1.873779297E-2
4.178968671E0,7.095336914E-3,7.324218750E-4,-1.765441895E-2
4.184004072E0,9.643554688E-3,-3.189086914E-3,-1.727294922E-2
4.189039472E0,1.040649414E-2,-4.699707031E-3,-1.657104492E-2
4.194074872E0,1.110839844E-2,-4.272460938E-4,-1.620483398E-2
4.199110273E0,1.292419434E-2,5.340576172E-3,-1.400756836E-2
4.204145673E0,1.361083984E-2,9.979248047E-3,-1.300048828E-2
4.209181074E0,1.361083984E-2,9.826660156E-3,-1.300048828E-2
4.214216474E0,1.435852051E-2,3.128051758E-3,-1.300048828E-2
4.219251874E0,1.620483398E-2,-4.730224609E-3,-1.222229004E-2
4.224287275E0,1.681518555E-2,-8.392333984E-3,-1.347351074E-2
4.229322675E0,1.602172852E-2,-5.050659180E-3,-1.406860352E-2
4.234358076E0,1.493835449E-2,-2.044677734E-3,-1.246643066E-2
4.239393476E0,1.387023926E-2,1.068115234E-4,-1.112365723E-2
4.244428876E0,1.197814941E-2,1.449584961E-3,-1.329040527E-2
4.249464277E0,8.987426758E-3,5.004882812E-3,-1.571655273E-2
4.254499677E0,8.270263672E-3,8.468627930E-3,-1.536560059E-2
4.259535078E0,7.415771484E-3,9.185791016E-3,-1.597595215E-2
4.264570478E0,6.332397461E-3,5.737304688E-3,-1.705932617E-2
4.269605878E0,6.134033203E-3,-2.899169922E-4,-1.727294922E-2
4.274641279E0,5.249023438E-3,-6.774902344E-3,-1.814270020E-2
4.279676679E0,6.835937500E-3,-1.057434082E-2,-1.655578613E-2
4.284712080E0,5.401611328E-3,-8.422851562E-3,-1.530456543E-2
4.289747480E0,4.150390625E-3,-6.256103516E-4,-1.603698730E-2
4.294782880E0,3.997802734E-3,7.064819336E-3,-1.712036133E-2
4.299818281E0,3.997802734E-3,9.033203125E-3,-1.634216309E-2
4.304853681E0,5.874633789E-3,5.401611328E-3,-1.525878906E-2
4.309889081E0,5.172729492E-3,1.525878906E-4,-1.417541504E-2
4.314924482E0,5.065917969E-3,-1.403808594E-3,-1.309204102E-2
4.319959882E0,7.003784180E-3,-5.340576172E-4,-1.007080078E-2
4.324995283E0,8.178710938E-3,-4.272460938E-4,-8.804321289E-3
4.330030683E0,7.263183594E-3,5.645751953E-4,-5.737304688E-3
4.335066083E0,7.202148438E-3,-3.662109375E-4,-4.516601562E-3
4.340101484E0,7.202148438E-3,2.609252930E-3,-1.403808594E-3
4.345136884E0,5.142211914E-3,6.866455078E-3,-3.295898438E-3
4.350172285E0,5.065917969E-3,8.071899414E-3,-3.387451172E-3
4.355207685E0,6.103515625E-3,6.011962891E-3,-4.425048828E-3
4.360243085E0,5.065917969E-3,-3.509521484E-4,-5.508422852E-3
4.365278486E0,3.997802734E-3,-3.631591797E-3,-4.455566406E-3
4.370313886E0,3.982543945E-3,-3.646850586E-3,-3.387451172E-3
4.375349287E0,2.899169922E-3,-4.653930664E-3,-3.341674805E-3
4.380384687E0,1.815795898E-3,-1.403808594E-3,-1.281738281E-3
4.385420087E0,7.629394531E-4,1.724243164E-3,-2.258300781E-3
4.390455488E0,-3.356933594E-4,2.716064453E-3,-1.220703125E-4
4.395490888E0,-1.617431641E-3,1.892089844E-3,9.613037109E-4
4.400526288E0,-5.615234375E-3,5.050659180E-3,1.953125000E-3
4.405561689E0,-5.447387695E-3,7.049560547E-3,1.953125000E-3
4.410597089E0,-3.387451172E-3,6.744384766E-3,2.151489258E-3
4.415632490E0,-2.410888672E-3,3.311157227E-3,4.196166992E-3
4.420667890E0,-2.410888672E-3,-2.090454102E-3,5.630493164E-3
4.425703290E0,-2.410888672E-3,-7.095336914E-3,9.567260742E-3
4.430738691E0,-2.700805664E-3,-8.697509766E-3,1.065063477E-2
4.435774091E0,-4.852294922E-3,-5.340576172E-3,1.171875000E-2
4.440809492E0,-6.851196289E-3,5.096435547E-3,1.295471191E-2
4.445844892E0,-8.102416992E-3,1.255798340E-2,1.495361328E-2
4.450880292E0,-1.007080078E-2,1.220703125E-2,1.567077637E-2
4.455915693E0,-1.095581055E-2,4.257202148E-3,1.477050781E-2
4.460951093E0,-1.095581055E-2,-4.852294922E-3,1.498413086E-2
4.465986494E0,-1.116943359E-2,-1.004028320E-2,1.583862305E-2
4.471021894E0,-1.181030273E-2,-1.004028320E-2,1.562500000E-2
4.476057294E0,-1.142883301E-2,-1.004028320E-2,1.477050781E-2
4.481092695E0,-1.237487793E-2,-1.004028320E-2,1.454162598E-2
4.486128095E0,-9.643554688E-3,-8.773803711E-3,1.422119141E-2
4.491163496E0,-9.094238281E-3,-3.402709961E-3,1.583862305E-2
4.496198896E0,-1.045227051E-2,2.014160156E-3,1.528930664E-2
4.501234296E0,-1.231384277E-2,6.256103516E-3,1.370239258E-2
4.506269697E0,-1.251220703E-2,5.859375000E-3,1.400756836E-2
4.511305097E0,-1.158142090E-2,-3.051757812E-4,1.477050781E-2
4.516340497E0,-1.341247559E-2,-1.046752930E-2,1.446533203E-2
4.521375898E0,-1.449584961E-2,-1.644897461E-2,1.403808594E-2
4.526411298E0,-1.522827148E-2,-1.339721680E-2,1.512145996E-2
4.531446699E0,-1.559448242E-2,-4.379272461E-3,1.725769043E-2
4.536482099E0,-1.666259766E-2,9.918212891E-4,2.011108398E-2
4.541517499E0,-1.626586914E-2,5.950927734E-4,2.011108398E-2
4.546552900E0,-1.416015625E-2,-2.639770508E-3,2.011108398E-2
4.551588300E0,-1.455688477E-2,-5.096435547E-3,2.011108398E-2
4.556623701E0,-1.402282715E-2,-5.371093750E-3,2.093505859E-2
4.561659101E0,-1.202392578E-2,-3.463745117E-3,2.267456055E-2
4.566694501E0,-1.202392578E-2,-6.561279297E-4,2.247619629E-2
4.571729902E0,-1.202392578E-2,-2.441406250E-4,2.162170410E-2
4.576765302E0,-1.292419434E-2,-1.052856445E-3,2.270507812E-2
4.581800703E0,-1.461791992E-2,4.730224609E-4,2.331542969E-2
4.586836103E0,-1.570129395E-2,1.235961914E-3,2.331542969E-2
4.591871503E0,-1.629638672E-2,-1.739501953E-3,2.284240723E-2
4.596906904E0,-1.533508301E-2,-8.590698242E-3,2.177429199E-2
4.601942304E0,-1.466369629E-2,-1.374816895E-2,2.069091797E-2
4.606977705E0,-1.574707031E-2,-1.330566406E-2,1.910400391E-2
4.612013105E0,-1.579284668E-2,-1.115417480E-2,1.695251465E-2
4.617048505E0,-1.470947266E-2,-8.987426758E-3,1.531982422E-2
4.622083906E0,-1.470947266E-2,-5.737304688E-3,1.315307617E-2
4.627119306E0,-1.412963867E-2,2.288818359E-4,1.156616211E-2
4.632154706E0,-1.141357422E-2,6.652832031E-3,9.887695312E-3
4.637190107E0,-8.743286133E-3,9.185791016E-3,7.797241211E-3
4.642225507E0,-5.996704102E-3,3.906250000E-3,7.293701172E-3
4.647260908E0,-2.166748047E-3,-6.393432617E-3,7.904052734E-3
4.652296308E0,-2.746582031E-4,-1.477050781E-2,9.582519531E-3
4.657331708E0,-2.746582031E-4,-1.628112793E-2,1.049804688E-2
4.662367109E0,-2.166748047E-3,-1.098632812E-2,9.872436523E-3
4.667402509E0,-2.838134766E-3,-1.495361328E-3,1.008605957E-2
4.672437910E0,-1.113891602E-3,4.730224609E-3,1.049804688E-2
4.677473310E0,-1.602172852E-3,6.637573242E-3,1.182556152E-2
4.682508710E0,-3.753662109E-3,8.377075195E-3,1.263427734E-2
4.687544111E0,-4.547119141E-3,9.857177734E-3,1.196289062E-2
4.692579511E0,-4.547119141E-3,6.134033203E-3,1.089477539E-2
4.697614912E0,-3.158569336E-3,-1.037597656E-3,1.049804688E-2
4.702650312E0,-2.410888672E-3,-5.767822266E-3,9.796142578E-3
4.707685712E0,-2.410888672E-3,-3.234863281E-3,9.429931641E-3
4.712721113E0,-2.410888672E-3,1.419067383E-3,8.712768555E-3
4.717756513E0,-2.410888672E-3,4.257202148E-3,6.881713867E-3
4.722791913E0,-3.921508789E-3,4.150390625E-3,5.477905273E-3
4.727827314E0,-4.547119141E-3,5.355834961E-3,4.409790039E-3
4.732862714E0,-3.784179688E-3,3.646850586E-3,2.548217773E-3
4.737898115E0,-1.907348633E-3,-1.159667969E-3,3.814697266E-4
4.742933515E0,-1.342773438E-3,-4.165649414E-3,-1.831054688E-4
4.747968915E0,-3.768920898E-3,-3.097534180E-3,-1.785278320E-3
4.753004316E0,-2.105712891E-3,-9.460449219E-4,-3.936767578E-3
4.758039716E0,3.051757812E-4,1.220703125E-3,-6.103515625E-3
4.763075117E0,4.119873047E-3,2.532958984E-3,-6.591796875E-3
4.768110517E0,4.211425781E-3,6.149291992E-3,-7.431030273E-3
4.773145917E0,4.852294922E-3,9.613037109E-3,-8.514404297E-3
4.778181318E0,8.529663086E-3,6.774902344E-3,-8.728027344E-3
4.783216718E0,8.453369141E-3,4.211425781E-3,-8.728027344E-3
4.788252119E0,8.270263672E-3,2.059936523E-3,-8.728027344E-3
4.793287519E0,9.155273438E-3,3.494262695E-3,-8.728027344E-3
4.798322919E0,8.422851562E-3,2.929687500E-3,-8.728027344E-3
4.803358320E0,6.423950195E-3,1.846313477E-3,-8.728027344E-3
4.808393720E0,5.203247070E-3,4.486083984E-3,-9.643554688E-3
4.813429121E0,5.065917969E-3,9.628295898E-3,-1.167297363E-2
4.818464521E0,5.065917969E-3,1.119995117E-2,-1.097106934E-2
4.823499921E0,5.065917969E-3,9.384155273E-3,-1.086425781E-2
4.828535322E0,3.112792969E-3,4.302978516E-3,-1.182556152E-2
4.833570722E0,3.906250000E-3,4.821777344E-3,-1.290893555E-2
4.838606122E0,6.973266602E-3,5.905151367E-3,-1.399230957E-2
4.843641523E0,1.020812988E-2,3.967285156E-3,-1.506042480E-2
4.848676923E0,1.243591309E-2,4.852294922E-3,-1.614379883E-2
4.853712324E0,1.458740234E-2,9.017944336E-3,-1.620483398E-2
4.858747724E0,1.570129395E-2,1.124572754E-2,-1.826477051E-2
4.863783124E0,1.678466797E-2,1.132202148E-2,-2.043151855E-2
4.868818525E0,1.997375488E-2,1.132202148E-2,-2.258300781E-2
4.873853925E0,2.001953125E-2,1.025390625E-2,-2.261352539E-2
4.878889326E0,2.001953125E-2,5.920410156E-3,-2.474975586E-2
4.883924726E0,2.108764648E-2,1.678466797E-3,-2.476501465E-2
4.888960126E0,2.104187012E-2,6.408691406E-4,-2.581787109E-2
4.893995527E0,2.001953125E-2,7.476806641E-4,-2.584838867E-2
4.899030927E0,1.991271973E-2,3.997802734E-3,-2.693176270E-2
4.904066328E0,1.780700684E-2,7.232666016E-3,-2.807617188E-2
4.909101728E0,1.666259766E-2,1.046752930E-2,-3.009033203E-2
4.914137128E0,1.484680176E-2,1.345825195E-2,-3.025817871E-2
4.919172529E0,1.690673828E-2,1.325988770E-2,-3.231811523E-2
4.924207929E0,1.777648926E-2,1.068115234E-2,-3.329467773E-2
4.929243330E0,1.681518555E-2,4.791259766E-3,-3.317260742E-2
4.934278730E0,1.707458496E-2,3.707885742E-3,-3.208923340E-2
4.939314130E0,1.879882812E-2,2.777099609E-3,-3.129577637E-2
4.944349531E0,1.773071289E-2,3.219604492E-3,-3.222656250E-2
4.949384931E0,1.696777344E-2,6.301879883E-3,-3.222656250E-2
4.954420331E0,1.770019531E-2,8.453369141E-3,-3.222656250E-2
4.959455732E0,1.681518555E-2,1.007080078E-2,-3.239440918E-2
4.964491132E0,1.681518555E-2,9.185791016E-3,-3.329467773E-2
4.969526533E0,1.701354980E-2,9.384155273E-3,-3.329467773E-2
4.974561933E0,1.808166504E-2,9.826660156E-3,-3.329467773E-2
4.979597333E0,1.895141602E-2,7.659912109E-3,-3.306579590E-2
4.984632734E0,1.895141602E-2,5.035400391E-3,-3.222656250E-2
4.989668134E0,1.918029785E-2,1.937866211E-3,-3.245544434E-2
4.994703535E0,2.001953125E-2,3.982543945E-3,-3.329467773E-2
4.999738935E0,1.974487305E-2,9.689331055E-3,-3.302001953E-2
5.004774335E0,1.838684082E-2,1.452636719E-2,-3.193664551E-2
5.009809736E0,1.652526855E-2,1.309204102E-2,-3.172302246E-2
5.014845136E0,1.574707031E-2,6.820678711E-3,-3.298950195E-2
5.019880537E0,1.512145996E-2,1.525878906E-5,-3.190612793E-2
5.024915937E0,1.232910156E-2,-2.288818359E-4,-3.146362305E-2
5.029951337E0,8.682250977E-3,4.409790039E-3,-3.189086914E-2
5.034986738E0,7.537841797E-3,9.124755859E-3,-3.080749512E-2
5.040022138E0,6.851196289E-3,1.095581055E-2,-2.937316895E-2
5.045057538E0,3.997802734E-3,8.453369141E-3,-2.758789062E-2
5.050092939E0,3.250122070E-3,4.165649414E-3,-2.650451660E-2
5.055128339E0,1.861572266E-3,3.524780273E-3,-2.581787109E-2
5.060163740E0,1.464843750E-3,6.469726562E-3,-2.502441406E-2
5.065199140E0,7.934570312E-4,9.582519531E-3,-2.326965332E-2
5.070234540E0,1.617431641E-3,8.178710938E-3,-2.261352539E-2
5.075269941E0,3.341674805E-3,3.631591797E-3,-2.091979980E-2
5.080305341E0,3.555297852E-3,3.860473633E-3,-1.789855957E-2
5.085340742E0,1.586914062E-3,1.014709473E-2,-1.637268066E-2
5.090376142E0,1.678466797E-4,1.586914062E-2,-1.513671875E-2
5.095411542E0,7.934570312E-4,1.585388184E-2,-1.466369629E-2
5.100446943E0,1.266479492E-3,1.152038574E-2,-1.406860352E-2
5.105482343E0,1.861572266E-3,8.682250977E-3,-1.307678223E-2
5.110517744E0,1.358032227E-3,7.110595703E-3,-1.242065430E-2
5.115553144E0,1.296997070E-3,4.959106445E-3,-1.300048828E-2
5.120588544E0,8.087158203E-4,5.401611328E-3,-1.246643066E-2
5.125623945E0,-1.342773438E-3,8.102416992E-3,-1.193237305E-2
5.130659345E0,-2.960205078E-3,9.719848633E-3,-1.138305664E-2
5.135694746E0,-3.479003906E-3,1.025390625E-2,-9.765625000E-3
5.140730146E0,-4.043579102E-3,1.080322266E-2,-8.163452148E-3
5.145765546E0,-5.691528320E-3,1.017761230E-2,-7.659912109E-3
5.150800947E0,-9.002685547E-3,8.605957031E-3,-8.224487305E-3
5.155836347E0,-1.095581055E-2,6.347656250E-3,-8.132934570E-3
5.160871747E0,-9.765625000E-3,2.502441406E-3,-5.859375000E-3
5.165907148E0,-1.065063477E-2,3.051757812E-5,-4.455566406E-3
5.170942548E0,-1.264953613E-2,1.434326172E-3,-3.204345703E-3
5.175977949E0,-1.373291016E-2,3.402709961E-3,-1.678466797E-3
5.181013349E0,-1.351928711E-2,2.548217773E-3,-5.950927734E-4
5.186048749E0,-1.245117188E-2,2.349853516E-3,-1.831054688E-4
5.191084150E0,-1.269531250E-2,4.089355469E-3,1.144409180E-3
5.196119550E0,-1.309204102E-2,4.241943359E-3,2.624511719E-3
5.201154951E0,-1.242065430E-2,1.800537109E-3,3.021240234E-3
5.206190351E0,-1.202392578E-2,6.408691406E-4,2.334594727E-3
5.211225751E0,-1.202392578E-2,5.554199219E-3,2.670288086E-3
5.216261152E0,-1.202392578E-2,1.310729980E-2,5.172729492E-3
5.221296552E0,-1.275634766E-2,1.559448242E-2,6.225585938E-3
5.226331953E0,-1.383972168E-2,1.043701172E-2,6.225585938E-3
5.231367353E0,-1.268005371E-2,3.631591797E-3,6.973266602E-3
5.236402753E0,-1.202392578E-2,9.460449219E-4,8.056640625E-3
5.241438154E0,-1.202392578E-2,3.692626953E-3,1.066589355E-2
5.246473554E0,-1.359558105E-2,8.804321289E-3,1.156616211E-2
5.251508955E0,-1.416015625E-2,1.182556152E-2,1.156616211E-2
5.256544355E0,-1.416015625E-2,9.185791016E-3,1.156616211E-2
5.261579755E0,-1.336669922E-2,3.265380859E-3,1.237487793E-2
5.266615156E0,-1.556396484E-2,1.708984375E-3,1.263427734E-2
5.271650556E0,-1.629638672E-2,5.035400391E-3,1.347351074E-2
5.276685956E0,-1.799011230E-2,5.981445312E-3,1.370239258E-2
5.281721357E0,-1.843261719E-2,1.708984375E-3,1.370239258E-2
5.286756757E0,-1.843261719E-2,-1.953125000E-3,1.457214355E-2
5.291792158E0,-1.843261719E-2,-1.693725586E-3,1.652526855E-2
5.296827558E0,-1.930236816E-2,1.098632812E-3,1.777648926E-2
5.301862958E0,-2.040100098E-2,4.364013672E-3,1.887512207E-2
5.306898359E0,-1.966857910E-2,3.997802734E-3,1.995849609E-2
5.311933759E0,-2.041625977E-2,1.831054688E-4,2.194213867E-2
5.316969160E0,-1.965332031E-2,-4.135131836E-3,2.317810059E-2
5.322004560E0,-1.856994629E-2,-7.522583008E-3,2.331542969E-2
5.327039960E0,-1.655578613E-2,-5.081176758E-3,2.426147461E-2
5.332075361E0,-1.629638672E-2,-8.850097656E-4,2.343750000E-2
5.337110761E0,-1.533508301E-2,1.510620117E-3,2.331542969E-2
5.342146162E0,-1.622009277E-2,1.708984375E-3,2.331542969E-2
5.347181562E0,-1.629638672E-2,-3.250122070E-3,2.233886719E-2
5.352216962E0,-1.429748535E-2,-5.645751953E-3,2.125549316E-2
5.357252363E0,-1.416015625E-2,-6.790161133E-3,2.320861816E-2
5.362287763E0,-1.213073730E-2,-8.880615234E-3,2.230834961E-2
5.367323163E0,-1.306152344E-2,-6.912231445E-3,2.018737793E-2
5.372358564E0,-1.101684570E-2,-4.760742188E-3,2.011108398E-2
5.377393964E0,-1.202392578E-2,-3.646850586E-3,2.011108398E-2
5.382429365E0,-1.095581055E-2,-5.767822266E-3,2.117919922E-2
5.387464765E0,-1.202392578E-2,-8.987426758E-3,2.011108398E-2
5.392500165E0,-1.202392578E-2,-9.994506836E-3,1.902770996E-2
5.397535566E0,-1.206970215E-2,-6.713867188E-3,1.802062988E-2
5.402570966E0,-1.301574707E-2,-2.761840820E-3,1.904296875E-2
5.407606367E0,-1.101684570E-2,-8.071899414E-3,1.904296875E-2
5.412641767E0,-1.197814941E-2,-1.123046875E-2,1.899719238E-2
5.417677167E0,-1.089477539E-2,-1.332092285E-2,1.797485352E-2
5.422712568E0,-9.887695312E-3,-1.416015625E-2,1.797485352E-2
5.427747968E0,-9.994506836E-3,-1.181030273E-2,1.788330078E-2
5.432783369E0,-1.106262207E-2,-7.598876953E-3,1.681518555E-2
5.437818769E0,-1.170349121E-2,-4.592895508E-3,1.583862305E-2
5.442854169E0,-8.697509766E-3,-4.257202148E-3,1.583862305E-2
5.447889570E0,-7.629394531E-3,-9.521484375E-3,1.583862305E-2
5.452924970E0,-6.546020508E-3,-1.324462891E-2,1.570129395E-2
5.457960371E0,-5.615234375E-3,-1.263427734E-2,1.493835449E-2
5.462995771E0,-5.294799805E-3,-8.651733398E-3,1.600646973E-2
5.468031171E0,-3.311157227E-3,-7.202148438E-3,1.655578613E-2
5.473066572E0,-2.044677734E-3,-8.972167969E-3,1.458740234E-2
5.478101972E0,-9.155273438E-5,-8.789062500E-3,1.351928711E-2
5.483137372E0,9.918212891E-4,-7.705688477E-3,1.284790039E-2
5.488172773E0,2.304077148E-3,-6.835937500E-3,1.348876953E-2
5.493208173E0,3.997802734E-3,-7.080078125E-3,1.263427734E-2
5.498243574E0,4.226684570E-3,-8.636474609E-3,1.240539551E-2
5.503278974E0,5.310058594E-3,-1.110839844E-2,1.132202148E-2
5.508314374E0,6.134033203E-3,-9.811401367E-3,1.023864746E-2
5.513349775E0,5.844116211E-3,-5.767822266E-3,9.429931641E-3
5.518385175E0,4.776000977E-3,-6.927490234E-3,9.155273438E-3
5.523420576E0,3.692626953E-3,-1.063537598E-2,8.071899414E-3
5.528455976E0,3.234863281E-3,-1.217651367E-2,7.614135742E-3
5.533491376E0,3.997802734E-3,-1.155090332E-2,8.056640625E-3
5.538526777E0,3.662109375E-3,-8.407592773E-3,6.973266602E-3
5.543562177E0,3.601074219E-3,-4.028320312E-3,5.554199219E-3
5.548597578E0,5.401611328E-3,-5.004882812E-3,3.753662109E-3
5.553632978E0,6.835937500E-3,-1.219177246E-2,3.738403320E-3
5.558668378E0,8.636474609E-3,-1.608276367E-2,4.791259766E-3
5.563703779E0,9.338378906E-3,-1.309204102E-2,4.089355469E-3
5.568739179E0,8.926391602E-3,-6.988525391E-3,3.295898438E-3
5.573774580E0,8.666992188E-3,-4.043579102E-3,1.144409180E-3
5.578809980E0,1.016235352E-2,-6.790161133E-3,-5.950927734E-4
5.583845380E0,1.231384277E-2,-1.132202148E-2,-1.663208008E-3
5.588880781E0,1.448059082E-2,-1.237487793E-2,-3.189086914E-3
5.593916181E0,1.528930664E-2,-7.995605469E-3,-5.340576172E-3
5.598951581E0,1.422119141E-2,-2.288818359E-3,-6.591796875E-3
5.603986982E0,1.361083984E-2,-2.258300781E-3,-7.492065430E-3
5.609022382E0,1.502990723E-2,-7.553100586E-3,-8.239746094E-3
5.614057783E0,1.728820801E-2,-1.159667969E-2,-8.132934570E-3
5.619093183E0,1.737976074E-2,-1.019287109E-2,-8.728027344E-3
5.624128583E0,1.731872559E-2,-5.874633789E-3,-8.209228516E-3
5.629163984E0,1.684570312E-2,-3.128051758E-3,-7.659912109E-3
5.634199384E0,1.521301270E-2,-4.699707031E-3,-8.178710938E-3
5.639234785E0,1.412963867E-2,-8.468627930E-3,-8.728027344E-3
5.644270185E0,1.361083984E-2,-1.170349121E-2,-8.163452148E-3
5.649305585E0,1.361083984E-2,-1.100158691E-2,-8.209228516E-3
5.654340986E0,1.245117188E-2,-5.538940430E-3,-8.728027344E-3
5.659376386E0,1.147460938E-2,-3.158569336E-3,-8.728027344E-3
5.664411787E0,1.206970215E-2,-8.407592773E-3,-9.323120117E-3
5.669447187E0,1.374816895E-2,-1.763916016E-2,-9.796142578E-3
5.674482587E0,1.467895508E-2,-1.994323730E-2,-1.164245605E-2
5.679517988E0,1.280212402E-2,-1.359558105E-2,-1.423645020E-2
5.684553388E0,1.147460938E-2,-7.507324219E-3,-1.513671875E-2
5.689588788E0,1.211547852E-2,-9.017944336E-3,-1.513671875E-2
5.694624189E0,1.319885254E-2,-1.509094238E-2,-1.579284668E-2
5.699659589E0,1.226806641E-2,-1.818847656E-2,-1.620483398E-2
5.704694990E0,1.214599609E-2,-1.722717285E-2,-1.756286621E-2
5.709730390E0,1.254272461E-2,-1.370239258E-2,-1.763916016E-2
5.714765790E0,1.254272461E-2,-1.008605957E-2,-1.727294922E-2
5.719801191E0,1.324462891E-2,-6.851196289E-3,-1.655578613E-2
5.724836591E0,1.361083984E-2,-8.651733398E-3,-1.692199707E-2
5.729871992E0,1.507568359E-2,-1.518249512E-2,-1.652526855E-2
5.734907392E0,1.722717285E-2,-1.901245117E-2,-1.620483398E-2
5.739942792E0,1.637268066E-2,-1.589965820E-2,-1.695251465E-2
5.744978193E0,1.420593262E-2,-9.719848633E-3,-1.727294922E-2
5.750013593E0,1.205444336E-2,-7.141113281E-3,-1.649475098E-2
5.755048994E0,1.304626465E-2,-1.156616211E-2,-1.541137695E-2
5.760084394E0,1.361083984E-2,-1.565551758E-2,-1.432800293E-2
5.765119794E0,1.199340820E-2,-1.322937012E-2,-1.406860352E-2
5.770155195E0,1.065063477E-2,-1.054382324E-2,-1.406860352E-2
5.775190595E0,1.040649414E-2,-7.553100586E-3,-1.322937012E-2
5.780225996E0,1.124572754E-2,-8.529663086E-3,-1.300048828E-2
5.785261396E0,1.231384277E-2,-9.826660156E-3,-1.300048828E-2
5.790296796E0,1.167297363E-2,-7.461547852E-3,-1.385498047E-2
5.795332197E0,8.850097656E-3,-4.226684570E-3,-1.406860352E-2
5.800367597E0,8.270263672E-3,-6.271362305E-3,-1.493835449E-2
5.805402997E0,8.270263672E-3,-1.219177246E-2,-1.513671875E-2
5.810438398E0,9.170532227E-3,-1.416015625E-2,-1.513671875E-2
5.815473798E0,8.422851562E-3,-1.158142090E-2,-1.695251465E-2
5.820509199E0,7.339477539E-3,-9.262084961E-3,-1.634216309E-2
5.825544599E0,6.256103516E-3,-1.179504395E-2,-1.432800293E-2
5.830579999E0,4.226684570E-3,-1.123046875E-2,-1.501464844E-2
5.835615400E0,3.036499023E-3,-1.016235352E-2,-1.417541504E-2
5.840650800E0,3.890991211E-3,-1.101684570E-2,-1.406860352E-2
5.845686201E0,3.005981445E-3,-1.210021973E-2,-1.406860352E-2
5.850721601E0,9.460449219E-4,-1.416015625E-2,-1.208496094E-2
5.855757001E0,1.785278320E-3,-1.431274414E-2,-1.193237305E-2
5.860792402E0,-1.678466797E-4,-1.330566406E-2,-1.193237305E-2
5.865827802E0,-3.341674805E-3,-1.019287109E-2,-1.193237305E-2
5.870863203E0,-1.419067383E-3,-1.107788086E-2,-1.193237305E-2
5.875898603E0,-2.395629883E-3,-1.635742188E-2,-1.087951660E-2
5.880934003E0,-3.051757812E-4,-2.278137207E-2,-9.796142578E-3
5.885969404E0,-2.410888672E-3,-2.285766602E-2,-8.728027344E-3
5.891004804E0,-3.479003906E-3,-1.641845703E-2,-9.796142578E-3
5.896040205E0,-3.463745117E-3,-1.119995117E-2,-9.765625000E-3
5.901075605E0,-2.334594727E-3,-1.551818848E-2,-8.697509766E-3
5.906111005E0,7.324218750E-4,-2.067565918E-2,-7.659912109E-3
5.911146406E0,-1.449584961E-3,-1.832580566E-2,-7.598876953E-3
5.916181806E0,-3.479003906E-3,-1.319885254E-2,-6.591796875E-3
5.921217206E0,-3.479003906E-3,-1.232910156E-2,-6.591796875E-3
5.926252607E0,-3.479003906E-3,-1.423645020E-2,-6.332397461E-3
5.931288007E0,-3.768920898E-3,-1.306152344E-2,-3.387451172E-3
5.936323408E0,-6.683349609E-3,-1.110839844E-2,-3.387451172E-3
5.941358808E0,-6.683349609E-3,-1.133728027E-2,-3.387451172E-3
5.946394208E0,-6.683349609E-3,-1.350402832E-2,-3.128051758E-3
5.951429609E0,-6.820678711E-3,-1.565551758E-2,-1.251220703E-3
5.956465009E0,-7.751464844E-3,-1.751708984E-2,-1.251220703E-3
5.961500410E0,-8.071899414E-3,-1.768493652E-2,-1.251220703E-3
5.966535810E0,-9.887695312E-3,-1.843261719E-2,-1.083374023E-3
5.971571210E0,-1.025390625E-2,-1.681518555E-2,3.509521484E-4
5.976606611E0,-1.240539551E-2,-1.268005371E-2,3.021240234E-3
5.981642011E0,-1.396179199E-2,-1.065063477E-2,3.234863281E-3
5.986677412E0,-1.289367676E-2,-1.367187500E-2,3.890991211E-3
5.991712812E0,-1.225280762E-2,-1.493835449E-2,3.250122070E-3
5.996748212E0,-1.286315918E-2,-1.254272461E-2,4.089355469E-3
6.001783613E0,-1.155090332E-2,-1.052856445E-2,4.333496094E-3
6.006819013E0,-1.014709473E-2,-1.243591309E-2,5.157470703E-3
6.011854413E0,-1.095581055E-2,-1.246643066E-2,5.432128906E-3
6.016889814E0,-1.123046875E-2,-8.407592773E-3,6.500244141E-3
6.021925214E0,-1.118469238E-2,-3.631591797E-3,7.583618164E-3
6.026960615E0,-8.529663086E-3,-4.821777344E-3,8.361816406E-3
6.031996015E0,-7.751464844E-3,-7.598876953E-3,8.361816406E-3
6.037031415E0,-8.407592773E-3,-5.874633789E-3,8.697509766E-3
6.042066816E0,-9.231567383E-3,-2.639770508E-3,9.765625000E-3
6.047102216E0,-7.751464844E-3,-7.781982422E-4,1.049804688E-2
6.052137617E0,-8.117675781E-3,-1.495361328E-3,1.049804688E-2
6.057173017E0,-8.468627930E-3,-1.495361328E-3,1.049804688E-2
6.062208417E0,-8.132934570E-3,-1.129150391E-3,1.124572754E-2
6.067243818E0,-8.819580078E-3,-8.087158203E-4,1.263427734E-2
6.072279218E0,-8.819580078E-3,-2.685546875E-3,1.263427734E-2
6.077314619E0,-8.819580078E-3,-4.699707031E-3,1.263427734E-2
6.082350019E0,-9.658813477E-3,-3.875732422E-3,1.306152344E-2
6.087385419E0,-1.181030273E-2,-1.296997070E-3,1.370239258E-2
6.092420820E0,-1.266479492E-2,6.408691406E-4,1.327514648E-2
6.097456220E0,-1.113891602E-2,-1.602172852E-3,1.309204102E-2
6.102491621E0,-1.036071777E-2,-4.699707031E-3,1.417541504E-2
6.107527021E0,-1.049804688E-2,-3.768920898E-3,1.431274414E-2
6.112562421E0,-9.887695312E-3,-1.617431641E-3,1.370239258E-2
6.117597822E0,-9.887695312E-3,5.493164062E-4,1.420593262E-2
6.122633222E0,-9.399414062E-3,2.197265625E-3,1.428222656E-2
6.127668622E0,-8.819580078E-3,1.235961914E-3,1.370239258E-2
6.132704023E0,-8.300781250E-3,-2.532958984E-3,1.370239258E-2
6.137739423E0,-7.751464844E-3,-5.233764648E-3,1.370239258E-2
6.142774824E0,-7.751464844E-3,-2.517700195E-3,1.370239258E-2
6.147810224E0,-7.751464844E-3,3.417968750E-3,1.370239258E-2
6.152845624E0,-7.751464844E-3,5.401611328E-3,1.257324219E-2
6.157881025E0,-6.607055664E-3,2.899169922E-4,1.156616211E-2
6.162916425E0,-5.615234375E-3,-4.226684570E-3,1.216125488E-2
6.167951826E0,-5.615234375E-3,-1.113891602E-3,1.144409180E-2
6.172987226E0,-6.225585938E-3,2.914428711E-3,9.902954102E-3
6.178022626E0,-7.308959961E-3,3.845214844E-3,9.429931641E-3
6.183058027E0,-7.125854492E-3,6.713867188E-4,1.069641113E-2
6.188093427E0,-5.401611328E-3,-1.495361328E-3,9.643554688E-3
6.193128828E0,-5.203247070E-3,1.770019531E-3,9.017944336E-3
6.198164228E0,-5.615234375E-3,6.500244141E-3,9.429931641E-3
6.203199628E0,-4.943847656E-3,6.759643555E-3,9.429931641E-3
6.208235029E0,-3.875732422E-3,3.952026367E-3,1.145935059E-2
6.213270429E0,-3.479003906E-3,2.075195312E-3,1.263427734E-2
6.218305830E0,-3.479003906E-3,2.410888672E-3,1.335144043E-2
6.223341230E0,-3.479003906E-3,3.479003906E-3,1.300048828E-2
6.228376630E0,-2.761840820E-3,5.294799805E-3,1.191711426E-2
6.233412031E0,-9.307861328E-4,5.233764648E-3,1.231384277E-2
6.238447431E0,4.730224609E-4,6.408691406E-3,1.263427734E-2
6.243482831E0,7.934570312E-4,9.323120117E-3,1.112365723E-2
6.248518232E0,2.334594727E-3,8.697509766E-3,1.049804688E-2
6.253553632E0,3.707885742E-3,5.767822266E-3,1.129150391E-2
6.258589033E0,3.204345703E-3,4.913330078E-3,1.078796387E-2
6.263624433E0,2.929687500E-3,7.324218750E-3,8.895874023E-3
6.268659833E0,2.105712891E-3,1.055908203E-2,7.553100586E-3
6.273695234E0,2.685546875E-3,7.186889648E-3,7.293701172E-3
6.278730634E0,2.929687500E-3,2.624511719E-3,6.469726562E-3
6.283766035E0,2.929687500E-3,2.548217773E-3,5.386352539E-3
6.288801435E0,2.059936523E-3,6.210327148E-3,2.593994141E-3
6.293836835E0,1.861572266E-3,7.049560547E-3,1.083374023E-3
6.298872236E0,1.861572266E-3,5.279541016E-3,1.770019531E-3
6.303907636E0,1.861572266E-3,4.913330078E-3,1.953125000E-3
6.308943037E0,3.662109375E-3,3.997802734E-3,2.868652344E-3
6.313978437E0,4.898071289E-3,2.929687500E-3,3.021240234E-3
6.319013837E0,5.065917969E-3,1.846313477E-3,1.174926758E-3
6.324049238E0,4.119873047E-3,2.639770508E-3,1.831054688E-3
6.329084638E0,3.997802734E-3,2.777099609E-3,1.022338867E-3
6.334120038E0,3.997802734E-3,4.684448242E-3,-6.103515625E-5
6.339155439E0,4.959106445E-3,4.913330078E-3,-2.120971680E-3
6.344190839E0,5.065917969E-3,2.944946289E-3,-3.295898438E-3
6.349226240E0,6.042480469E-3,4.745483398E-3,-4.364013672E-3
6.354261640E0,6.134033203E-3,5.905151367E-3,-5.447387695E-3
6.359297040E0,6.134033203E-3,6.988525391E-3,-4.501342773E-3
6.364332441E0,6.134033203E-3,7.049560547E-3,-4.455566406E-3
6.369367841E0,6.134033203E-3,1.219177246E-2,-3.417968750E-3
6.374403242E0,7.171630859E-3,1.342773438E-2,-4.425048828E-3
6.379438642E0,8.255004883E-3,1.028442383E-2,-5.508422852E-3
6.384474042E0,9.338378906E-3,7.049560547E-3,-4.455566406E-3
6.389509443E0,7.202148438E-3,1.026916504E-2,-4.455566406E-3
6.394544843E0,7.202148438E-3,1.341247559E-2,-4.455566406E-3
6.399580244E0,7.202148438E-3,1.123046875E-2,-4.455566406E-3
6.404615644E0,7.110595703E-3,8.117675781E-3,-4.486083984E-3
6.409651044E0,5.065917969E-3,8.377075195E-3,-5.569458008E-3
6.414686445E0,5.111694336E-3,1.339721680E-2,-6.637573242E-3
6.419721845E0,6.195068359E-3,1.210021973E-2,-7.720947266E-3
6.424757246E0,7.278442383E-3,7.858276367E-3,-8.636474609E-3
6.429792646E0,8.270263672E-3,4.913330078E-3,-7.751464844E-3
6.434828046E0,8.270263672E-3,5.218505859E-3,-8.728027344E-3
6.439863447E0,8.148193359E-3,8.346557617E-3,-8.834838867E-3
6.444898847E0,7.064819336E-3,9.994506836E-3,-9.918212891E-3
6.449934247E0,5.859375000E-3,7.980346680E-3,-1.086425781E-2
6.454969648E0,3.997802734E-3,6.896972656E-3,-1.113891602E-2
6.460005048E0,3.677368164E-3,6.286621094E-3,-1.300048828E-2
6.465040449E0,1.861572266E-3,8.117675781E-3,-1.316833496E-2
6.470075849E0,2.044677734E-3,7.919311523E-3,-1.387023926E-2
6.475111249E0,2.334594727E-3,7.431030273E-3,-1.338195801E-2
6.480146650E0,-2.746582031E-4,9.582519531E-3,-1.533508301E-2
6.485182050E0,-2.746582031E-4,1.045227051E-2,-1.620483398E-2
6.490217451E0,1.678466797E-4,5.920410156E-3,-1.597595215E-2
6.495252851E0,1.861572266E-3,2.410888672E-3,-1.536560059E-2
6.500288251E0,1.358032227E-3,6.652832031E-3,-1.594543457E-2
6.505323652E0,-2.746582031E-4,1.316833496E-2,-1.513671875E-2
6.510359052E0,-2.746582031E-4,1.423645020E-2,-1.567077637E-2
6.515394453E0,2.593994141E-4,8.880615234E-3,-1.753234863E-2
6.520429853E0,1.861572266E-3,4.913330078E-3,-1.774597168E-2
6.525465253E0,1.541137695E-3,6.439208984E-3,-1.620483398E-2
6.530500654E0,1.113891602E-3,1.089477539E-2,-1.652526855E-2
6.535536054E0,1.861572266E-3,1.304626465E-2,-1.727294922E-2
6.540571455E0,1.525878906E-3,1.351928711E-2,-1.759338379E-2
6.545606855E0,7.934570312E-4,9.582519531E-3,-1.834106445E-2
6.550642255E0,7.934570312E-4,5.981445312E-3,-1.762390137E-2
6.555677656E0,4.119873047E-4,6.713867188E-3,-1.582336426E-2
6.560713056E0,-1.419067383E-3,8.865356445E-3,-1.550292969E-2
6.565748456E0,-4.272460938E-3,1.025390625E-2,-1.620483398E-2
6.570783857E0,-5.615234375E-3,8.651733398E-3,-1.620483398E-2
6.575819257E0,-6.454467773E-3,4.730224609E-3,-1.620483398E-2
6.580854658E0,-7.751464844E-3,1.495361328E-3,-1.620483398E-2
6.585890058E0,-8.621215820E-3,1.724243164E-3,-1.576232910E-2
6.590925458E0,-1.034545898E-2,6.683349609E-3,-1.467895508E-2
6.595960859E0,-1.141357422E-2,8.728027344E-3,-1.496887207E-2
6.600996259E0,-1.202392578E-2,6.240844727E-3,-1.666259766E-2
6.606031660E0,-1.300048828E-2,2.868652344E-3,-1.678466797E-2
6.611067060E0,-1.416015625E-2,2.685546875E-3,-1.669311523E-2
6.616102460E0,-1.518249512E-2,6.362915039E-3,-1.777648926E-2
6.621137861E0,-1.629638672E-2,8.666992188E-3,-1.834106445E-2
6.626173261E0,-1.629638672E-2,7.049560547E-3,-1.834106445E-2
6.631208662E0,-1.629638672E-2,4.364013672E-3,-1.725769043E-2
6.636244062E0,-1.629638672E-2,1.129150391E-3,-1.620483398E-2
6.641279462E0,-1.686096191E-2,-1.556396484E-3,-1.620483398E-2
6.646314863E0,-1.794433594E-2,-1.998901367E-3,-1.620483398E-2
6.651350263E0,-1.901245117E-2,8.087158203E-4,-1.620483398E-2
6.656385663E0,-1.950073242E-2,5.126953125E-3,-1.560974121E-2
6.661421064E0,-2.011108398E-2,5.249023438E-3,-1.573181152E-2
6.666456464E0,-1.936340332E-2,2.014160156E-3,-1.679992676E-2
6.671491865E0,-1.905822754E-2,1.525878906E-5,-1.664733887E-2
6.676527265E0,-2.014160156E-2,3.967285156E-3,-1.556396484E-2
6.681562665E0,-2.056884766E-2,1.089477539E-2,-1.513671875E-2
6.686598066E0,-1.992797852E-2,1.475524902E-2,-1.382446289E-2
6.691633466E0,-1.950073242E-2,1.293945312E-2,-1.232910156E-2
6.696668867E0,-1.748657227E-2,8.621215820E-3,-1.124572754E-2
6.701704267E0,-1.562500000E-2,7.720947266E-3,-1.017761230E-2
6.706739667E0,-1.730346680E-2,1.225280762E-2,-8.407592773E-3
6.711775068E0,-1.983642578E-2,2.012634277E-2,-6.958007812E-3
6.716810468E0,-2.056884766E-2,2.307128906E-2,-7.293701172E-3
6.721845869E0,-1.985168457E-2,2.162170410E-2,-6.927490234E-3
6.726881269E0,-1.803588867E-2,1.945495605E-2,-5.844116211E-3
6.731916669E0,-1.736450195E-2,1.879882812E-2,-7.003784180E-3
6.736952070E0,-1.963806152E-2,2.105712891E-2,-9.170532227E-3
6.741987470E0,-2.134704590E-2,2.352905273E-2,-8.255004883E-3
6.747022871E0,-2.087402344E-2,2.336120605E-2,-8.422851562E-3
6.752058271E0,-2.136230469E-2,2.227783203E-2,-7.934570312E-3
6.757093671E0,-2.163696289E-2,2.040100098E-2,-7.659912109E-3
6.762129072E0,-2.082824707E-2,1.904296875E-2,-8.468627930E-3
6.767164472E0,-2.304077148E-2,2.125549316E-2,-7.904052734E-3
6.772199872E0,-2.377319336E-2,2.116394043E-2,-5.981445312E-3
6.777235273E0,-2.462768555E-2,2.008056641E-2,-5.523681641E-3
6.782270673E0,-2.571105957E-2,1.986694336E-2,-4.653930664E-3
6.787306074E0,-2.590942383E-2,1.898193359E-2,-4.455566406E-3
6.792341474E0,-2.590942383E-2,1.702880859E-2,-3.570556641E-3
6.797376874E0,-2.680969238E-2,1.487731934E-2,-4.272460938E-3
6.802412275E0,-2.607727051E-2,1.361083984E-2,-4.455566406E-3
6.807447675E0,-2.682495117E-2,1.164245605E-2,-2.639770508E-3
6.812483076E0,-2.697753906E-2,1.315307617E-2,-2.319335938E-3
6.817518476E0,-2.790832520E-2,1.528930664E-2,-1.388549805E-3
6.822553876E0,-2.804565430E-2,1.745605469E-2,-1.251220703E-3
6.827589277E0,-2.615356445E-2,1.773071289E-2,-2.899169922E-4
6.832624677E0,-2.784729004E-2,2.061462402E-2,-1.144409180E-3
6.837660078E0,-2.804565430E-2,2.577209473E-2,-3.189086914E-3
6.842695478E0,-3.001403809E-2,3.019714355E-2,-3.387451172E-3
6.847730878E0,-3.118896484E-2,3.153991699E-2,-3.387451172E-3
6.852766279E0,-2.925109863E-2,3.260803223E-2,-2.380371094E-3
6.857801679E0,-2.708435059E-2,4.182434082E-2,-2.746582031E-4
6.862837080E0,-2.903747559E-2,5.258178711E-2,-1.205444336E-3
6.867872480E0,-2.809143066E-2,6.849670410E-2,-2.136230469E-4
6.872907880E0,-2.700805664E-2,8.891296387E-2,1.922607422E-3
6.877943281E0,-2.804565430E-2,1.094512939E-1,1.953125000E-3
6.882978681E0,-2.911376953E-2,1.192016602E-1,3.021240234E-3
6.888014081E0,-2.909851074E-2,1.179504395E-1,4.104614258E-3
6.893049482E0,-2.693176270E-2,1.027526855E-1,5.157470703E-3
6.898084882E0,-2.371215820E-2,7.995605469E-2,5.203247070E-3
6.903120283E0,-2.149963379E-2,5.381774902E-2,6.286621094E-3
6.908155683E0,-1.826477051E-2,2.354431152E-2,7.293701172E-3
6.913191083E0,-1.501464844E-2,-5.996704102E-3,7.293701172E-3
6.918226484E0,-1.202392578E-2,-2.439880371E-2,7.385253906E-3
6.923261884E0,-1.184082031E-2,-2.960205078E-2,8.178710938E-3
6.928297285E0,-9.796142578E-3,-2.012634277E-2,6.439208984E-3
6.933332685E0,-9.048461914E-3,-2.258300781E-3,8.361816406E-3
6.938368085E0,-1.109313965E-2,2.102661133E-2,8.117675781E-3
6.943403486E0,-1.190185547E-2,4.006958008E-2,6.103515625E-3
6.948438886E0,-1.095581055E-2,5.461120605E-2,5.310058594E-3
6.953474287E0,-1.065063477E-2,5.752563477E-2,5.920410156E-3
6.958509687E0,-8.331298828E-3,5.101013184E-2,4.089355469E-3
6.963545087E0,-5.264282227E-3,3.767395020E-2,3.921508789E-3
6.968580488E0,-2.914428711E-3,2.255249023E-2,3.402709961E-3
6.973615888E0,-2.746582031E-4,8.666992188E-3,4.974365234E-3
6.978651288E0,-7.629394531E-5,1.281738281E-3,3.677368164E-3
6.983686689E0,7.934570312E-4,4.577636719E-4,2.182006836E-3
6.988722089E0,1.251220703E-3,5.447387695E-3,3.021240234E-3
6.993757490E0,3.158569336E-3,1.251220703E-2,3.265380859E-3
6.998792890E0,3.997802734E-3,1.789855957E-2,4.089355469E-3
7.003828290E0,4.257202148E-3,2.226257324E-2,4.623413086E-3
7.008863691E0,5.615234375E-3,2.278137207E-2,6.790161133E-3
7.013899091E0,7.202148438E-3,2.113342285E-2,8.651733398E-3
7.018934492E0,7.781982422E-3,1.731872559E-2,9.735107422E-3
7.023969892E0,9.338378906E-3,1.161193848E-2,1.112365723E-2
7.029005292E0,9.017944336E-3,5.783081055E-3,1.295471191E-2
7.034040693E0,8.590698242E-3,1.464843750E-3,1.370239258E-2
7.039076093E0,9.658813477E-3,-8.392333984E-4,1.338195801E-2
7.044111494E0,1.040649414E-2,9.765625000E-4,1.229858398E-2
7.049146894E0,1.040649414E-2,2.059936523E-3,1.193237305E-2
7.054182294E0,1.040649414E-2,3.845214844E-3,1.263427734E-2
7.059217695E0,1.040649414E-2,7.461547852E-3,1.226806641E-2
7.064253095E0,1.078796387E-2,1.025390625E-2,1.234436035E-2
7.069288496E0,1.185607910E-2,8.666992188E-3,1.370239258E-2
7.074323896E0,1.335144043E-2,4.348754883E-3,1.370239258E-2
7.079359296E0,1.467895508E-2,3.051757812E-5,1.370239258E-2
7.084394697E0,1.467895508E-2,-2.990722656E-3,1.329040527E-2
7.089430097E0,1.510620117E-2,-3.631591797E-3,1.220703125E-2
7.094465497E0,1.663208008E-2,-2.746582031E-3,1.202392578E-2
7.099500898E0,1.788330078E-2,-2.426147461E-3,1.217651367E-2
7.104536298E0,1.882934570E-2,-3.158569336E-3,1.156616211E-2
7.109571699E0,2.098083496E-2,-2.090454102E-3,1.060485840E-2
7.114607099E0,2.264404297E-2,-5.035400391E-4,8.941650391E-3
7.119642499E0,2.272033691E-2,1.373291016E-4,8.865356445E-3
7.124677900E0,2.368164062E-2,-4.272460938E-4,8.926391602E-3
7.129713300E0,2.587890625E-2,-1.495361328E-3,8.895874023E-3
7.134748701E0,2.642822266E-2,-4.699707031E-3,9.963989258E-3
7.139784101E0,2.804565430E-2,-9.017944336E-3,1.159667969E-2
7.144819501E0,2.906799316E-2,-1.167297363E-2,1.263427734E-2
7.149854902E0,2.856445312E-2,-1.104736328E-2,1.263427734E-2
7.154890302E0,2.970886230E-2,-8.316040039E-3,1.379394531E-2
7.159925703E0,3.010559082E-2,-5.661010742E-3,1.419067383E-2
7.164961103E0,3.022766113E-2,-4.104614258E-3,1.431274414E-2
7.169996503E0,3.129577637E-2,-5.462646484E-3,1.599121094E-2
7.175031904E0,3.176879883E-2,-9.323120117E-3,1.753234863E-2
7.180067304E0,3.112792969E-2,-1.174926758E-2,1.797485352E-2
7.185102705E0,3.070068359E-2,-1.217651367E-2,1.797485352E-2
7.190138105E0,3.004455566E-2,-1.348876953E-2,1.667785645E-2
7.195173505E0,3.096008301E-2,-1.565551758E-2,1.583862305E-2
7.200208906E0,3.176879883E-2,-1.644897461E-2,1.449584961E-2
7.205244306E0,3.176879883E-2,-1.507568359E-2,1.301574707E-2
7.210279706E0,3.106689453E-2,-1.222229004E-2,1.124572754E-2
7.215315107E0,3.070068359E-2,-8.270263672E-3,1.049804688E-2
7.220350507E0,3.141784668E-2,-6.835937500E-3,9.780883789E-3
7.225385908E0,3.248596191E-2,-8.300781250E-3,8.712768555E-3
7.230421308E0,3.283691406E-2,-9.719848633E-3,7.629394531E-3
7.235456708E0,3.208923340E-2,-9.307861328E-3,6.561279297E-3
7.240492109E0,3.251647949E-2,-1.126098633E-2,6.988525391E-3
7.245527509E0,3.283691406E-2,-1.525878906E-2,7.293701172E-3
7.250562910E0,3.361511230E-2,-1.879882812E-2,8.865356445E-3
7.255598310E0,3.311157227E-2,-1.649475098E-2,8.651733398E-3
7.260633710E0,3.202819824E-2,-8.972167969E-3,8.361816406E-3
7.265669111E0,3.257751465E-2,-5.218505859E-3,8.361816406E-3
7.270704511E0,3.283691406E-2,-4.699707031E-3,8.361816406E-3
7.275739912E0,3.366088867E-2,-5.538940430E-3,9.201049805E-3
7.280775312E0,3.305053711E-2,-5.767822266E-3,9.429931641E-3
7.285810712E0,3.283691406E-2,-7.476806641E-3,8.590698242E-3
7.290846113E0,3.283691406E-2,-9.643554688E-3,7.507324219E-3
7.295881513E0,3.195190430E-2,-1.092529297E-2,7.293701172E-3
7.300916913E0,3.176879883E-2,-1.110839844E-2,7.293701172E-3
7.305952314E0,3.176879883E-2,-1.200866699E-2,8.193969727E-3
7.310987714E0,3.085327148E-2,-1.217651367E-2,7.461547852E-3
7.316023115E0,2.793884277E-2,-9.429931641E-3,7.293701172E-3
7.321058515E0,2.656555176E-2,-5.264282227E-3,5.447387695E-3
7.326093915E0,2.548217773E-2,-7.537841797E-3,4.226684570E-3
7.331129316E0,2.345275879E-2,-7.904052734E-3,3.143310547E-3
7.336164716E0,2.032470703E-2,-9.841918945E-3,3.997802734E-3
7.341200117E0,1.904296875E-2,-1.492309570E-2,4.089355469E-3
7.346235517E0,1.895141602E-2,-1.440429688E-2,3.112792969E-3
7.351270917E0,1.695251465E-2,-1.332092285E-2,3.021240234E-3
7.356306318E0,1.681518555E-2,-1.023864746E-2,4.028320312E-3
7.361341718E0,1.477050781E-2,-9.033203125E-3,4.089355469E-3
7.366377119E0,1.364135742E-2,-8.972167969E-3,3.067016602E-3
7.371412519E0,1.152038574E-2,-1.002502441E-2,1.983642578E-3
7.376447919E0,9.368896484E-3,-7.949829102E-3,4.058837891E-3
7.381483320E0,9.338378906E-3,-7.904052734E-3,5.157470703E-3
7.386518720E0,1.040649414E-2,-8.972167969E-3,5.157470703E-3
7.391554121E0,1.040649414E-2,-1.005554199E-2,5.142211914E-3
7.396589521E0,1.148986816E-2,-1.116943359E-2,3.021240234E-3
7.401624921E0,1.249694824E-2,-1.422119141E-2,2.990722656E-3
7.406660322E0,1.138305664E-2,-1.094055176E-2,1.998901367E-3
7.411695722E0,9.338378906E-3,-6.637573242E-3,3.021240234E-3
7.416731122E0,9.262084961E-3,-2.441406250E-3,3.021240234E-3
7.421766523E0,8.346557617E-3,-5.187988281E-4,2.868652344E-3
7.426801923E0,9.338378906E-3,-2.014160156E-3,8.850097656E-4
7.431837324E0,9.140014648E-3,-9.567260742E-3,8.850097656E-4
7.436872724E0,7.095336914E-3,-1.528930664E-2,7.934570312E-4
7.441908124E0,5.661010742E-3,-1.408386230E-2,-1.831054688E-4
7.446943525E0,1.724243164E-3,-1.153564453E-2,-1.831054688E-4
7.451978925E0,3.509521484E-4,-6.271362305E-3,-3.204345703E-4
7.457014326E0,-2.731323242E-3,-2.410888672E-3,-1.251220703E-3
7.462049726E0,-5.065917969E-3,-1.846313477E-3,-1.251220703E-3
7.467085126E0,-8.285522461E-3,-3.280639648E-3,-1.068115234E-3
7.472120527E0,-1.115417480E-2,-2.075195312E-3,-1.831054688E-4
7.477155927E0,-1.223754883E-2,-5.722045898E-3,3.051757812E-5
7.482191328E0,-1.330566406E-2,-1.109313965E-2,4.730224609E-4
7.487226728E0,-1.416015625E-2,-1.472473145E-2,-1.022338867E-3
7.492262128E0,-1.393127441E-2,-1.147460938E-2,-1.831054688E-4
7.497297529E0,-1.309204102E-2,-8.972167969E-3,-4.119873047E-4
7.502332929E0,-1.284790039E-2,-9.490966797E-3,-9.918212891E-4
7.507368330E0,-1.202392578E-2,-1.057434082E-2,-4.425048828E-4
7.512403730E0,-1.148986816E-2,-8.972167969E-3,-1.510620117E-3
7.517439130E0,-9.613037109E-3,-8.697509766E-3,-2.319335938E-3
7.522474531E0,-7.949829102E-3,-7.614135742E-3,-3.189086914E-3
7.527509931E0,-5.615234375E-3,-7.141113281E-3,-6.118774414E-3
7.532545331E0,-5.004882812E-3,-8.224487305E-3,-7.965087891E-3
7.537580732E0,-3.479003906E-3,-9.628295898E-3,-9.048461914E-3
7.542616132E0,-3.479003906E-3,-1.078796387E-2,-1.011657715E-2
7.547651533E0,-3.143310547E-3,-8.346557617E-3,-1.153564453E-2
7.552686933E0,-3.128051758E-3,-3.997802734E-3,-1.300048828E-2
7.557722333E0,-4.913330078E-3,-2.563476562E-3,-1.300048828E-2
7.562757734E0,-6.362915039E-3,-4.058837891E-3,-1.336669922E-2
7.567793134E0,-8.148193359E-3,-7.232666016E-3,-1.329040527E-2
7.572828535E0,-9.628295898E-3,-7.110595703E-3,-1.232910156E-2
7.577863935E0,-1.095581055E-2,-7.400512695E-3,-1.339721680E-2
7.582899335E0,-1.095581055E-2,-1.382446289E-2,-1.280212402E-2
7.587934736E0,-1.095581055E-2,-2.395629883E-2,-1.086425781E-2
7.592970136E0,-1.095581055E-2,-3.297424316E-2,-1.086425781E-2
7.598005537E0,-1.185607910E-2,-3.810119629E-2,-9.963989258E-3
7.603040937E0,-1.309204102E-2,-3.903198242E-2,-8.255004883E-3
7.608076337E0,-1.356506348E-2,-3.546142578E-2,-7.186889648E-3
7.613111738E0,-1.464843750E-2,-2.862548828E-2,-5.615234375E-3
7.618147138E0,-1.670837402E-2,-1.901245117E-2,-4.455566406E-3
7.623182538E0,-1.945495605E-2,-1.022338867E-2,-4.455566406E-3
7.628217939E0,-2.006530762E-2,-9.429931641E-3,-3.936767578E-3
7.633253339E0,-1.898193359E-2,-1.535034180E-2,-3.906250000E-3
7.638288740E0,-1.951599121E-2,-2.128601074E-2,-4.989624023E-3
7.643324140E0,-1.948547363E-2,-2.447509766E-2,-7.156372070E-3
7.648359540E0,-1.731872559E-2,-2.333068848E-2,-8.163452148E-3
7.653394941E0,-1.516723633E-2,-2.293395996E-2,-8.224487305E-3
7.658430341E0,-1.416015625E-2,-2.856445312E-2,-1.103210449E-2
7.663465742E0,-1.298522949E-2,-3.483581543E-2,-1.358032227E-2
7.668501142E0,-1.081848145E-2,-3.253173828E-2,-1.406860352E-2
7.673536542E0,-1.112365723E-2,-2.682495117E-2,-1.528930664E-2
7.678571943E0,-1.078796387E-2,-2.935791016E-2,-1.681518555E-2
7.683607343E0,-8.636474609E-3,-4.005432129E-2,-1.600646973E-2
7.688642744E0,-7.751464844E-3,-5.171203613E-2,-1.383972168E-2
7.693678144E0,-8.407592773E-3,-5.793762207E-2,-1.429748535E-2
7.698713544E0,-8.819580078E-3,-5.784606934E-2,-1.446533203E-2
7.703748945E0,-8.819580078E-3,-4.891967773E-2,-1.271057129E-2
7.708784345E0,-1.087951660E-2,-3.123474121E-2,-1.193237305E-2
7.713819746E0,-1.342773438E-2,-1.420593262E-2,-1.261901855E-2
7.718855146E0,-1.203918457E-2,-8.972167969E-3,-1.158142090E-2
7.723890546E0,-1.025390625E-2,-1.399230957E-2,-7.995605469E-3
7.728925947E0,-1.062011719E-2,-1.429748535E-2,-5.859375000E-3
7.733961347E0,-1.243591309E-2,-5.889892578E-3,-5.523681641E-3
7.738996747E0,-1.234436035E-2,-1.068115234E-3,-5.523681641E-3
7.744032148E0,-9.750366211E-3,-4.989624023E-3,-5.523681641E-3
7.749067548E0,-8.056640625E-3,-1.222229004E-2,-5.523681641E-3
7.754102949E0,-7.751464844E-3,-1.119995117E-2,-5.523681641E-3
7.759138349E0,-8.544921875E-3,-1.327514648E-3,-6.301879883E-3
7.764173749E0,-7.217407227E-3,4.104614258E-3,-6.591796875E-3
7.769209150E0,-5.065917969E-3,8.392333984E-4,-4.959106445E-3
7.774244550E0,-2.899169922E-3,-5.386352539E-3,-3.616333008E-3
7.779279951E0,-2.410888672E-3,-4.348754883E-3,-4.211425781E-3
7.784315351E0,-1.571655273E-3,1.434326172E-3,-3.601074219E-3
7.789350751E0,-4.882812500E-4,6.210327148E-3,-3.387451172E-3
7.794386152E0,5.798339844E-4,3.570556641E-3,-3.387451172E-3
7.799421552E0,1.663208008E-3,-1.617431641E-3,-3.387451172E-3
7.804456953E0,1.861572266E-3,1.068115234E-4,-4.272460938E-3
7.809492353E0,6.103515625E-5,6.927490234E-3,-5.340576172E-3
7.814527753E0,-1.190185547E-3,1.084899902E-2,-5.523681641E-3
7.819563154E0,-4.272460938E-4,5.767822266E-3,-3.662109375E-3
7.824598554E0,1.586914062E-3,-3.479003906E-3,-4.318237305E-3
7.829633955E0,-3.051757812E-5,-2.822875977E-3,-2.563476562E-3
7.834669355E0,-3.158569336E-3,4.119873047E-3,-4.226684570E-3
7.839704755E0,-7.339477539E-3,7.797241211E-3,-4.455566406E-3
7.844740156E0,-5.813598633E-3,6.164550781E-3,-3.479003906E-3
7.849775556E0,-3.646850586E-3,-9.460449219E-4,-6.347656250E-3
7.854810956E0,-2.487182617E-3,-6.484985352E-3,-5.584716797E-3
7.859846357E0,-1.403808594E-3,-6.835937500E-3,-4.501342773E-3
7.864881757E0,-3.356933594E-4,-5.828857422E-3,-4.455566406E-3
7.869917158E0,1.770019531E-3,-6.805419922E-3,-4.455566406E-3
7.874952558E0,8.087158203E-4,-3.723144531E-3,-2.365112305E-3
7.879987958E0,-1.327514648E-3,5.859375000E-3,-1.251220703E-3
7.885023359E0,-2.899169922E-4,1.022338867E-2,8.850097656E-4
7.890058759E0,2.944946289E-3,4.852294922E-3,1.953125000E-3
7.895094160E0,7.141113281E-3,-3.540039062E-3,1.968383789E-3
7.900129560E0,2.868652344E-3,4.180908203E-3,3.021240234E-3
7.905164960E0,8.239746094E-4,1.773071289E-2,2.960205078E-3
7.910200361E0,1.861572266E-3,1.739501953E-2,8.392333984E-4
7.915235761E0,1.861572266E-3,9.597778320E-3,-2.899169922E-4
7.920271162E0,1.922607422E-3,-2.288818359E-3,-2.243041992E-3
7.925306562E0,2.929687500E-3,-1.350402832E-2,-1.251220703E-3
7.930341962E0,2.624511719E-3,-1.567077637E-2,-1.251220703E-3
7.935377363E0,-5.950927734E-4,-6.652832031E-3,-1.144409180E-3
7.940412763E0,-3.952026367E-3,5.493164062E-3,6.103515625E-5
7.945448163E0,-7.110595703E-3,9.078979492E-3,2.090454102E-3
7.950483564E0,-1.998901367E-3,-1.022338867E-3,3.585815430E-3
7.955518964E0,9.307861328E-4,-1.142883301E-2,7.446289062E-3
7.960554365E0,1.693725586E-3,-4.394531250E-3,8.361816406E-3
7.965589765E0,6.103515625E-4,9.857177734E-3,8.544921875E-3
7.970625165E0,7.629394531E-5,1.181030273E-2,9.613037109E-3
7.975660566E0,2.426147461E-3,1.174926758E-3,1.031494141E-2
7.980695966E0,5.065917969E-3,-1.110839844E-2,9.429931641E-3
7.985731367E0,4.623413086E-3,-8.758544922E-3,9.216308594E-3
7.990766767E0,2.471923828E-3,3.295898438E-3,8.819580078E-3
7.995802167E0,5.493164062E-4,1.483154297E-2,9.811401367E-3
8.000837568E0,1.983642578E-4,1.913452148E-2,6.820678711E-3
8.005872968E0,1.861572266E-3,1.441955566E-2,5.661010742E-3
8.010908369E0,1.861572266E-3,4.684448242E-3,7.568359375E-3
8.015943769E0,1.586914062E-3,-2.563476562E-3,7.827758789E-3
8.020979169E0,1.068115234E-3,-5.950927734E-4,6.790161133E-3
8.026014570E0,1.861572266E-3,6.973266602E-3,8.666992188E-3
8.031049970E0,1.861572266E-3,1.177978516E-2,9.429931641E-3
8.036085371E0,2.151489258E-3,8.728027344E-3,9.429931641E-3
8.041120771E0,2.929687500E-3,4.913330078E-3,1.042175293E-2
8.046156171E0,2.243041992E-3,8.285522461E-3,1.332092285E-2
8.051191572E0,4.425048828E-4,1.837158203E-2,1.477050781E-2
8.056226972E0,-1.007080078E-3,2.377319336E-2,1.513671875E-2
8.061262372E0,-2.044677734E-3,1.861572266E-2,1.622009277E-2
8.066297773E0,-5.950927734E-4,7.202148438E-3,1.690673828E-2
8.071333173E0,0.000000000E0,1.708984375E-3,1.730346680E-2
8.076368574E0,-1.342773438E-3,3.295898438E-3,1.838684082E-2
8.081403974E0,-9.307861328E-4,7.629394531E-3,1.863098145E-2
8.086439374E0,1.373291016E-4,1.109313965E-2,1.756286621E-2
8.091474775E0,7.934570312E-4,1.324462891E-2,1.734924316E-2
8.096510175E0,1.678466797E-3,1.228332520E-2,1.843261719E-2
8.101545576E0,3.387451172E-3,6.881713867E-3,1.904296875E-2
8.106580976E0,5.859375000E-3,3.845214844E-3,1.858520508E-2
8.111616376E0,7.781982422E-3,6.713867188E-3,1.797485352E-2
8.116651777E0,7.202148438E-3,1.269531250E-2,1.699829102E-2
8.121687177E0,7.690429688E-3,1.458740234E-2,1.634216309E-2
8.126722578E0,7.247924805E-3,1.345825195E-2,1.690673828E-2
8.131757978E0,3.524780273E-3,1.553344727E-2,1.638793945E-2
8.136793378E0,7.934570312E-4,1.931762695E-2,1.583862305E-2
8.141828779E0,7.934570312E-4,1.820373535E-2,1.583862305E-2
8.146864179E0,1.892089844E-3,1.060485840E-2,1.528930664E-2
8.151899580E0,2.929687500E-3,3.158569336E-3,1.477050781E-2
8.156934980E0,1.770019531E-3,6.408691406E-4,1.420593262E-2
8.161970380E0,-9.613037109E-4,1.220703125E-3,1.312255859E-2
8.167005781E0,-3.616333008E-3,-9.155273438E-5,1.324462891E-2
8.172041181E0,-5.157470703E-3,-2.105712891E-3,1.370239258E-2
8.177076581E0,-7.476806641E-3,-1.953125000E-3,1.309204102E-2
8.182111982E0,-1.071166992E-2,2.899169922E-3,1.390075684E-2
8.187147382E0,-1.139831543E-2,6.607055664E-3,1.477050781E-2
8.192182783E0,-1.095581055E-2,6.393432617E-3,1.542663574E-2
8.197218183E0,-1.029968262E-2,2.670288086E-3,1.583862305E-2
8.202253583E0,-9.887695312E-3,-3.387451172E-3,1.518249512E-2
8.207288984E0,-8.529663086E-3,-7.812500000E-3,1.545715332E-2
8.212324384E0,-6.362915039E-3,-8.972167969E-3,1.583862305E-2
8.217359785E0,-6.332397461E-3,-1.953125000E-3,1.583862305E-2
8.222395185E0,-5.264282227E-3,7.415771484E-3,1.441955566E-2
8.227430585E0,-4.547119141E-3,1.315307617E-2,1.225280762E-2
8.232465986E0,-3.814697266E-3,1.158142090E-2,1.010131836E-2
8.237501386E0,-2.746582031E-3,4.272460938E-3,9.429931641E-3
8.242536787E0,-1.663208008E-3,-3.616333008E-3,7.156372070E-3
8.247572187E0,-5.798339844E-4,-7.308959961E-3,4.699707031E-3
8.252607587E0,5.035400391E-4,-6.347656250E-3,3.311157227E-3
8.257642988E0,0.000000000E0,-1.815795898E-3,3.814697266E-3
8.262678388E0,-2.746582031E-4,1.174926758E-3,4.898071289E-3
8.267713788E0,-1.098632812E-3,1.708984375E-3,6.790161133E-3
8.272749189E0,-2.166748047E-3,-7.629394531E-4,6.484985352E-3
8.277784589E0,-4.913330078E-3,-3.997802734E-3,7.064819336E-3
8.282819990E0,-5.615234375E-3,-5.554199219E-3,5.615234375E-3
8.287855390E0,-6.469726562E-3,-6.561279297E-4,5.157470703E-3
8.292890790E0,-1.014709473E-2,7.553100586E-3,3.433227539E-3
8.297926191E0,-1.272583008E-2,9.185791016E-3,1.266479492E-3
8.302961591E0,-1.399230957E-2,7.400512695E-3,-8.850097656E-4
8.307996992E0,-1.506042480E-2,9.735107422E-3,-1.251220703E-3
8.313032392E0,-1.797485352E-2,1.661682129E-2,-2.151489258E-3
8.318067792E0,-1.843261719E-2,1.679992676E-2,-4.150390625E-3
8.323103193E0,-1.658630371E-2,3.631591797E-3,-4.455566406E-3
8.328138593E0,-1.347351074E-2,-1.150512695E-2,-3.509521484E-3
8.333173994E0,-1.214599609E-2,-1.229858398E-2,-2.426147461E-3
8.338209394E0,-1.393127441E-2,-2.670288086E-3,-3.265380859E-3
8.343244794E0,-1.513671875E-2,8.193969727E-3,-4.348754883E-3
8.348280195E0,-1.425170898E-2,1.213073730E-2,-3.463745117E-3
8.353315595E0,-1.219177246E-2,8.422851562E-3,-1.403808594E-3
8.358350996E0,-1.103210449E-2,3.097534180E-3,-2.243041992E-3
8.363386396E0,-1.197814941E-2,4.806518555E-3,-2.319335938E-3
8.368421796E0,-1.100158691E-2,1.104736328E-2,-3.341674805E-3
8.373457197E0,-9.933471680E-3,1.028442383E-2,-3.387451172E-3
8.378492597E0,-8.850097656E-3,1.861572266E-3,-3.387451172E-3
8.383527997E0,-6.713867188E-3,-5.691528320E-3,-3.387451172E-3
8.388563398E0,-7.751464844E-3,-5.767822266E-3,-4.455566406E-3
8.393598798E0,-7.751464844E-3,-3.677368164E-3,-2.319335938E-3
8.398634199E0,-6.683349609E-3,-6.835937500E-3,-2.288818359E-3
8.403669599E0,-6.729125977E-3,-6.576538086E-3,-1.251220703E-3
8.408704999E0,-7.751464844E-3,1.052856445E-3,-1.342773438E-3
8.413740400E0,-7.812500000E-3,1.036071777E-2,-3.494262695E-3
8.418775800E0,-8.895874023E-3,1.181030273E-2,-5.737304688E-3
8.423811201E0,-1.005554199E-2,3.524780273E-3,-9.109497070E-3
8.428846601E0,-1.222229004E-2,3.051757812E-5,-1.425170898E-2
8.433882001E0,-1.426696777E-2,5.218505859E-3,-1.620483398E-2
8.438917402E0,-1.512145996E-2,7.888793945E-3,-1.631164551E-2
8.443952802E0,-1.379394531E-2,4.852294922E-3,-1.727294922E-2
8.448988203E0,-1.069641113E-2,-4.867553711E-3,-1.753234863E-2
8.454023603E0,-8.392333984E-3,-1.353454590E-2,-1.911926270E-2
8.459059003E0,-5.767822266E-3,-1.434326172E-2,-1.712036133E-2
8.464094404E0,-6.851196289E-3,-6.332397461E-3,-1.620483398E-2
8.469129804E0,-8.102416992E-3,3.952026367E-3,-1.620483398E-2
8.474165205E0,-9.719848633E-3,1.042175293E-2,-1.620483398E-2
8.479200605E0,-9.017944336E-3,1.017761230E-2,-1.676940918E-2
8.484236005E0,-9.292602539E-3,2.868652344E-3,-1.960754395E-2
8.489271406E0,-6.912231445E-3,-6.637573242E-3,-2.003479004E-2
8.494306806E0,-7.537841797E-3,-9.155273438E-3,-1.834106445E-2
8.499342206E0,-6.927490234E-3,-5.310058594E-3,-1.786804199E-2
8.504377607E0,-7.522583008E-3,-3.875732422E-3,-1.596069336E-2
8.509413007E0,-6.439208984E-3,-5.218505859E-3,-1.513671875E-2
8.514448408E0,-5.355834961E-3,-7.110595703E-3,-1.513671875E-2
8.519483808E0,-4.272460938E-3,-6.805419922E-3,-1.513671875E-2
8.524519208E0,-3.768920898E-3,-2.777099609E-3,-1.513671875E-2
8.529554609E0,-4.852294922E-3,1.678466797E-4,-1.602172852E-2
8.534590009E0,-5.615234375E-3,2.624511719E-3,-1.864624023E-2
8.539625410E0,-5.294799805E-3,3.936767578E-3,-1.907348633E-2
8.544660810E0,-4.226684570E-3,-6.256103516E-4,-1.766967773E-2
8.549696210E0,-3.143310547E-3,-7.812500000E-3,-1.620483398E-2
8.554731611E0,-2.059936523E-3,-1.217651367E-2,-1.620483398E-2
8.559767011E0,-1.708984375E-3,-1.037597656E-2,-1.692199707E-2
8.564802412E0,-2.792358398E-3,-5.355834961E-3,-1.870727539E-2
8.569837812E0,-3.097534180E-3,-2.182006836E-3,-1.979064941E-2
8.574873212E0,-1.632690430E-3,-3.463745117E-3,-2.085876465E-2
8.579908613E0,-2.746582031E-4,-7.659912109E-3,-2.154541016E-2
8.584944013E0,-2.746582031E-4,-7.308959961E-3,-2.236938477E-2
8.589979413E0,-7.019042969E-4,-2.578735352E-3,-2.368164062E-2
8.595014814E0,-1.785278320E-3,6.408691406E-4,-2.368164062E-2
8.600050214E0,-1.525878906E-3,-1.617431641E-3,-2.322387695E-2
8.605085615E0,-2.746582031E-4,-5.630493164E-3,-2.168273926E-2
8.610121015E0,-7.476806641E-4,-5.432128906E-3,-2.093505859E-2
8.615156415E0,-1.342773438E-3,-1.708984375E-3,-2.105712891E-2
8.620191816E0,-8.544921875E-4,6.408691406E-4,-1.997375488E-2
8.625227216E0,-2.746582031E-4,-8.697509766E-4,-1.840209961E-2
8.630262617E0,1.754760742E-3,-5.630493164E-3,-1.727294922E-2
8.635298017E0,2.944946289E-3,-8.972167969E-3,-1.622009277E-2
8.640333417E0,1.327514648E-3,-6.866455078E-3,-1.513671875E-2
8.645368818E0,2.441406250E-4,-2.563476562E-3,-1.513671875E-2
8.650404218E0,2.746582031E-4,6.866455078E-4,-1.457214355E-2
8.655439619E0,1.358032227E-3,1.129150391E-3,-1.179504395E-2
8.660475019E0,2.426147461E-3,-2.822875977E-3,-9.216308594E-3
8.665510419E0,4.104614258E-3,-9.902954102E-3,-8.132934570E-3
8.670545820E0,4.455566406E-3,-1.625061035E-2,-7.049560547E-3
8.675581220E0,3.997802734E-3,-1.737976074E-2,-6.591796875E-3
8.680616621E0,2.746582031E-3,-1.150512695E-2,-5.340576172E-3
8.685652021E0,5.950927734E-4,-4.135131836E-3,-5.081176758E-3
8.690687421E0,-2.746582031E-4,-2.136230469E-4,-5.523681641E-3
8.695722822E0,1.022338867E-3,-2.624511719E-3,-4.867553711E-3
8.700758222E0,2.517700195E-3,-7.354736328E-3,-5.111694336E-3
8.705793622E0,3.601074219E-3,-1.100158691E-2,-5.523681641E-3
8.710829023E0,3.311157227E-3,-1.217651367E-2,-6.881713867E-3
8.715864423E0,2.929687500E-3,-1.078796387E-2,-6.256103516E-3
8.720899824E0,2.212524414E-3,-7.217407227E-3,-4.806518555E-3
8.725935224E0,1.861572266E-3,-5.767822266E-3,-4.455566406E-3
8.730970624E0,1.861572266E-3,-7.232666016E-3,-3.723144531E-3
8.736006025E0,1.113891602E-3,-7.171630859E-3,-1.892089844E-3
8.741041425E0,7.934570312E-4,-6.835937500E-3,-1.998901367E-3
8.746076826E0,7.934570312E-4,-5.325317383E-3,-3.067016602E-3
8.751112226E0,1.556396484E-3,-6.240844727E-3,-1.068115234E-3
8.756147626E0,3.417968750E-3,-6.835937500E-3,-1.831054688E-4
8.761183027E0,3.997802734E-3,-4.470825195E-3,6.103515625E-4
8.766218427E0,3.189086914E-3,-2.838134766E-3,2.487182617E-3
8.771253828E0,3.738403320E-3,-3.387451172E-3,2.212524414E-3
8.776289228E0,3.158569336E-3,-5.294799805E-3,3.616333008E-3
8.781324628E0,2.090454102E-3,-7.446289062E-3,4.928588867E-3
8.786360029E0,1.861572266E-3,-7.064819336E-3,6.011962891E-3
8.791395429E0,9.918212891E-4,-4.272460938E-3,7.095336914E-3
8.796430830E0,7.934570312E-4,-2.777099609E-3,8.163452148E-3
8.801466230E0,1.663208008E-3,-3.448486328E-3,8.361816406E-3
8.806501630E0,9.613037109E-4,-7.202148438E-3,9.262084961E-3
8.811537031E0,7.934570312E-4,-1.240539551E-2,1.033020020E-2
8.816572431E0,-1.220703125E-4,-1.142883301E-2,1.232910156E-2
8.821607831E0,-1.205444336E-3,-6.500244141E-3,1.078796387E-2
8.826643232E0,-4.119873047E-4,-5.767822266E-3,1.049804688E-2
8.831678632E0,-2.746582031E-4,-3.890991211E-3,9.567260742E-3
8.836714033E0,6.713867188E-4,-2.685546875E-3,1.135253906E-2
8.841749433E0,1.754760742E-3,-1.602172852E-3,1.156616211E-2
8.846784833E0,2.822875977E-3,-1.495361328E-3,1.254272461E-2
8.851820234E0,3.906250000E-3,-5.462646484E-3,1.263427734E-2
8.856855634E0,4.989624023E-3,-8.758544922E-3,1.164245605E-2
8.861891035E0,5.065917969E-3,-3.906250000E-3,1.156616211E-2
8.866926435E0,1.968383789E-3,1.510620117E-3,1.362609863E-2
8.871961835E0,8.239746094E-4,3.768920898E-3,1.370239258E-2
8.876997236E0,1.831054688E-3,-3.509521484E-4,1.370239258E-2
8.882032636E0,1.861572266E-3,-6.805419922E-3,1.370239258E-2
8.887068037E0,2.929687500E-3,-1.004028320E-2,1.370239258E-2
8.892103437E0,1.831054688E-3,-5.676269531E-3,1.263427734E-2
8.897138837E0,-2.746582031E-4,2.822875977E-3,1.165771484E-2
8.902174238E0,-2.441406250E-4,4.837036133E-3,1.484680176E-2
8.907209638E0,7.324218750E-4,2.578735352E-3,1.701354980E-2
8.912245038E0,-3.967285156E-4,-1.617431641E-3,1.904296875E-2
8.917280439E0,-2.410888672E-3,-3.631591797E-3,1.904296875E-2
8.922315839E0,-2.410888672E-3,-3.631591797E-3,1.913452148E-2
8.927351240E0,-2.334594727E-3,-3.723144531E-3,2.029418945E-2
8.932386640E0,-1.449584961E-3,-4.699707031E-3,2.235412598E-2
8.937422040E0,-2.624511719E-3,-4.806518555E-3,2.342224121E-2
8.942457441E0,-4.669189453E-3,-5.538940430E-3,2.450561523E-2
8.947492841E0,-5.737304688E-3,-3.295898438E-3,2.557373047E-2
8.952528242E0,-6.546020508E-3,1.220703125E-4,2.638244629E-2
8.957563642E0,-5.767822266E-3,3.845214844E-3,2.531433105E-2
8.962599042E0,-6.683349609E-3,3.524780273E-3,2.455139160E-2
8.967634443E0,-6.347656250E-3,8.544921875E-4,2.528381348E-2
8.972669843E0,-4.547119141E-3,-4.364013672E-3,2.403259277E-2
8.977705244E0,-4.745483398E-3,-8.102416992E-3,2.206420898E-2
8.982740644E0,-5.416870117E-3,-8.163452148E-3,2.078247070E-2
8.987776044E0,-4.333496094E-3,-4.272460938E-3,1.882934570E-2
8.992811445E0,-3.479003906E-3,-2.349853516E-3,1.776123047E-2
8.997846845E0,-3.479003906E-3,-1.739501953E-3,1.715087891E-2
9.002882246E0,-3.723144531E-3,-2.563476562E-3,1.797485352E-2
9.007917646E0,-4.547119141E-3,-2.563476562E-3,1.823425293E-2
9.012953046E0,-5.096435547E-3,-3.112792969E-3,1.904296875E-2
9.017988447E0,-6.683349609E-3,-5.554199219E-3,1.904296875E-2
9.023023847E0,-6.408691406E-3,-8.483886719E-3,1.933288574E-2
9.028059247E0,-5.920410156E-3,-1.034545898E-2,1.982116699E-2
9.033094648E0,-7.308959961E-3,-1.080322266E-2,1.904296875E-2
9.038130048E0,-9.155273438E-3,-8.758544922E-3,1.904296875E-2
9.043165449E0,-9.567260742E-3,-3.448486328E-3,1.838684082E-2
9.048200849E0,-9.170532227E-3,1.708984375E-3,1.657104492E-2
9.053236249E0,-9.887695312E-3,-6.103515625E-5,1.548767090E-2
9.058271650E0,-1.025390625E-2,-5.447387695E-3,1.441955566E-2
9.063307050E0,-1.095581055E-2,-8.972167969E-3,1.333618164E-2
9.068342451E0,-1.135253906E-2,-7.827758789E-3,1.341247559E-2
9.073377851E0,-1.242065430E-2,-4.592895508E-3,1.438903809E-2
9.078413251E0,-1.350402832E-2,-3.784179688E-3,1.330566406E-2
9.083448652E0,-1.416015625E-2,-7.019042969E-3,1.263427734E-2
9.088484052E0,-1.416015625E-2,-9.399414062E-3,1.222229004E-2
9.093519453E0,-1.373291016E-2,-1.048278809E-2,1.200866699E-2
9.098554853E0,-1.399230957E-2,-9.323120117E-3,1.263427734E-2
9.103590253E0,-1.522827148E-2,-5.004882812E-3,1.217651367E-2
9.108625654E0,-1.570129395E-2,-3.509521484E-3,1.110839844E-2
9.113661054E0,-1.533508301E-2,-5.676269531E-3,1.049804688E-2
9.118696455E0,-1.367187500E-2,-8.804321289E-3,1.000976562E-2
9.123731855E0,-1.309204102E-2,-1.011657715E-2,8.941650391E-3
9.128767255E0,-1.309204102E-2,-6.942749023E-3,7.858276367E-3
9.133802656E0,-1.205444336E-2,-5.752563477E-3,6.256103516E-3
9.138838056E0,-1.042175293E-2,-7.904052734E-3,4.623413086E-3
9.143873456E0,-9.887695312E-3,-9.521484375E-3,4.089355469E-3
9.148908857E0,-9.887695312E-3,-8.926391602E-3,4.089355469E-3
9.153944257E0,-9.887695312E-3,-5.081176758E-3,3.524780273E-3
9.158979658E0,-1.046752930E-2,-2.593994141E-4,2.456665039E-3
9.164015058E0,-1.037597656E-2,2.288818359E-3,7.781982422E-4
9.169050458E0,-9.292602539E-3,1.571655273E-3,4.272460938E-4
9.174085859E0,-9.429931641E-3,3.051757812E-5,-9.307861328E-4
9.179121259E0,-1.051330566E-2,-4.272460938E-4,-1.693725586E-3
9.184156660E0,-9.704589844E-3,-1.693725586E-3,-1.876831055E-3
9.189192060E0,-8.819580078E-3,-4.501342773E-3,-2.960205078E-3
9.194227460E0,-9.475708008E-3,-5.126953125E-3,-4.684448242E-3
9.199262861E0,-9.887695312E-3,-6.042480469E-3,-6.179809570E-3
9.204298261E0,-1.124572754E-2,-5.493164062E-3,-6.591796875E-3
9.209333662E0,-1.271057129E-2,-2.655029297E-3,-5.905151367E-3
9.214369062E0,-1.449584961E-2,1.281738281E-3,-6.210327148E-3
9.219404462E0,-1.452636719E-2,2.777099609E-3,-6.591796875E-3
9.224439863E0,-1.345825195E-2,6.256103516E-4,-8.728027344E-3
9.229475263E0,-1.309204102E-2,-4.074096680E-3,-1.051330566E-2
9.234510663E0,-1.235961914E-2,-7.247924805E-3,-1.159667969E-2
9.239546064E0,-1.202392578E-2,-7.171630859E-3,-1.193237305E-2
9.244581464E0,-1.431274414E-2,-5.325317383E-3,-1.268005371E-2
9.249616865E0,-1.522827148E-2,-9.155273438E-4,-1.374816895E-2
9.254652265E0,-1.368713379E-2,4.516601562E-3,-1.406860352E-2
9.259687665E0,-1.309204102E-2,6.759643555E-3,-1.406860352E-2
9.264723066E0,-1.229858398E-2,6.240844727E-3,-1.486206055E-2
9.269758466E0,-1.202392578E-2,3.540039062E-3,-1.513671875E-2
9.274793867E0,-1.039123535E-2,-1.327514648E-3,-1.431274414E-2
9.279829267E0,-1.072692871E-2,-4.241943359E-3,-1.489257812E-2
9.284864667E0,-1.095581055E-2,-5.554199219E-3,-1.597595215E-2
9.289900068E0,-1.010131836E-2,-2.334594727E-3,-1.620483398E-2
9.294935468E0,-9.033203125E-3,1.968383789E-3,-1.705932617E-2
9.299970869E0,-8.819580078E-3,6.286621094E-3,-1.902770996E-2
9.305006269E0,-8.819580078E-3,4.364013672E-3,-1.940917969E-2
9.310041669E0,-7.934570312E-3,1.144409180E-3,-1.940917969E-2
9.315077070E0,-7.751464844E-3,-1.190185547E-3,-2.030944824E-2
9.320112470E0,-6.835937500E-3,1.251220703E-3,-1.954650879E-2
9.325147871E0,-5.767822266E-3,3.555297852E-3,-1.940917969E-2
9.330183271E0,-4.669189453E-3,1.937866211E-3,-1.940917969E-2
9.335218671E0,-4.547119141E-3,-1.174926758E-3,-1.940917969E-2
9.340254072E0,-5.523681641E-3,-6.347656250E-3,-2.037048340E-2
9.345289472E0,-5.615234375E-3,-5.859375000E-3,-1.948547363E-2
9.350324872E0,-6.607055664E-3,-4.791259766E-3,-2.038574219E-2
9.355360273E0,-6.683349609E-3,-4.699707031E-3,-1.947021484E-2
9.360395673E0,-6.683349609E-3,-3.692626953E-3,-1.736450195E-2
9.365431074E0,-5.661010742E-3,-1.586914062E-3,-1.829528809E-2
9.370466474E0,-5.615234375E-3,1.602172852E-3,-1.730346680E-2
9.375501874E0,-5.615234375E-3,-3.814697266E-4,-1.622009277E-2
9.380537275E0,-5.615234375E-3,-2.548217773E-3,-1.831054688E-2
9.385572675E0,-6.683349609E-3,-2.563476562E-3,-1.834106445E-2
9.390608076E0,-5.630493164E-3,-4.699707031E-3,-1.513671875E-2
9.395643476E0,-6.713867188E-3,-4.730224609E-3,-1.620483398E-2
9.400678876E0,-7.781982422E-3,-5.645751953E-3,-1.622009277E-2
9.405714277E0,-8.865356445E-3,-3.204345703E-4,-1.730346680E-2
9.410749677E0,-9.887695312E-3,2.777099609E-3,-1.829528809E-2
9.415785078E0,-9.796142578E-3,2.777099609E-3,-1.727294922E-2
9.420820478E0,-7.751464844E-3,2.639770508E-3,-1.727294922E-2
9.425855878E0,-7.675170898E-3,4.730224609E-4,-1.727294922E-2
9.430891279E0,-6.515502930E-3,-1.495361328E-3,-1.718139648E-2
9.435926679E0,-4.455566406E-3,-1.113891602E-3,-1.609802246E-2
9.440962080E0,-3.372192383E-3,3.097534180E-3,-1.524353027E-2
9.445997480E0,-2.410888672E-3,5.981445312E-3,-1.608276367E-2
9.451032880E0,-2.288818359E-3,5.706787109E-3,-1.513671875E-2
9.456068281E0,-9.155273438E-4,2.975463867E-3,-1.469421387E-2
9.461103681E0,2.151489258E-3,-2.868652344E-3,-1.177978516E-2
9.466139081E0,4.318237305E-3,-4.058837891E-3,-1.052856445E-2
9.471174482E0,6.134033203E-3,4.425048828E-4,-8.544921875E-3
9.476209882E0,6.317138672E-3,5.462646484E-3,-7.278442383E-3
9.481245283E0,7.202148438E-3,8.300781250E-3,-5.325317383E-3
9.486280683E0,7.400512695E-3,8.972167969E-3,-4.241943359E-3
9.491316083E0,8.483886719E-3,7.675170898E-3,-3.387451172E-3
9.496351484E0,9.552001953E-3,6.195068359E-3,-3.387451172E-3
9.501386884E0,9.689331055E-3,7.751464844E-3,-3.387451172E-3
9.506422285E0,6.454467773E-3,9.750366211E-3,-2.883911133E-3
9.511457685E0,3.723144531E-3,7.324218750E-3,-1.510620117E-3
9.516493085E0,2.929687500E-3,4.104614258E-3,-2.578735352E-3
9.521528486E0,2.639770508E-3,2.258300781E-3,-3.936767578E-3
9.526563886E0,2.151489258E-3,5.004882812E-3,-5.523681641E-3
9.531599287E0,2.929687500E-3,9.323120117E-3,-5.218505859E-3
9.536634687E0,3.540039062E-3,1.239013672E-2,-4.760742188E-3
9.541670087E0,5.706787109E-3,1.077270508E-2,-4.867553711E-3
9.546705488E0,7.522583008E-3,6.713867188E-3,-3.387451172E-3
9.551740888E0,8.270263672E-3,5.981445312E-3,-2.349853516E-3
9.556776288E0,8.956909180E-3,5.630493164E-3,5.187988281E-4
9.561811689E0,1.077270508E-2,6.011962891E-3,2.334594727E-3
9.566847089E0,1.260375977E-2,8.865356445E-3,4.165649414E-3
9.571882490E0,1.467895508E-2,1.025390625E-2,6.622314453E-3
9.576917890E0,1.626586914E-2,9.048461914E-3,8.102416992E-3
9.581953290E0,1.976013184E-2,5.004882812E-3,1.025390625E-2
9.586988691E0,2.108764648E-2,1.281738281E-3,1.240539551E-2
9.592024091E0,2.064514160E-2,1.922607422E-3,1.327514648E-2
9.597059492E0,2.001953125E-2,4.714965820E-3,1.263427734E-2
9.602094892E0,2.046203613E-2,5.065917969E-3,1.354980469E-2
9.607130292E0,2.061462402E-2,3.845214844E-3,1.524353027E-2
9.612165693E0,1.907348633E-2,3.372192383E-3,1.538085938E-2
9.617201093E0,1.690673828E-2,2.288818359E-3,1.525878906E-2
9.622236494E0,1.475524902E-2,7.171630859E-4,1.583862305E-2
9.627271894E0,1.411437988E-2,7.629394531E-5,1.483154297E-2
9.632307294E0,1.518249512E-2,1.663208008E-3,1.268005371E-2
9.637342695E0,1.521301270E-2,3.814697266E-3,1.210021973E-2
9.642378095E0,1.521301270E-2,7.049560547E-3,1.263427734E-2
9.647413496E0,1.519775391E-2,1.191711426E-2,1.210021973E-2
9.652448896E0,1.467895508E-2,1.564025879E-2,1.269531250E-2
9.657484296E0,1.467895508E-2,1.551818848E-2,1.370239258E-2
9.662519697E0,1.409912109E-2,1.106262207E-2,1.486206055E-2
9.667555097E0,1.419067383E-2,3.982543945E-3,1.702880859E-2
9.672590497E0,1.647949219E-2,-2.990722656E-3,1.797485352E-2
9.677625898E0,1.910400391E-2,-7.003784180E-3,1.797485352E-2
9.682661298E0,2.062988281E-2,-4.821777344E-3,1.797485352E-2
9.687696699E0,2.044677734E-2,1.205444336E-3,1.861572266E-2
9.692732099E0,2.001953125E-2,6.408691406E-3,1.969909668E-2
9.697767499E0,2.131652832E-2,1.007080078E-2,2.076721191E-2
9.702802900E0,2.281188965E-2,9.994506836E-3,2.250671387E-2
9.707838300E0,2.322387695E-2,7.827758789E-3,2.331542969E-2
9.712873701E0,2.458190918E-2,4.989624023E-3,2.468872070E-2
9.717909101E0,2.465820312E-2,1.754760742E-3,2.685546875E-2
9.722944501E0,2.429199219E-2,-1.480102539E-3,2.688598633E-2
9.727979902E0,2.499389648E-2,-3.280639648E-3,2.867126465E-2
9.733015302E0,2.536010742E-2,-2.182006836E-3,2.972412109E-2
9.738050703E0,2.461242676E-2,1.434326172E-3,2.972412109E-2
9.743086103E0,2.429199219E-2,4.257202148E-3,3.047180176E-2
9.748121503E0,2.276611328E-2,6.423950195E-3,3.079223633E-2
9.753156904E0,2.061462402E-2,8.575439453E-3,3.002929688E-2
9.758192304E0,2.001953125E-2,9.185791016E-3,2.894592285E-2
9.763227705E0,1.843261719E-2,5.218505859E-3,2.787780762E-2
9.768263105E0,1.948547363E-2,-9.613037109E-4,2.598571777E-2
9.773298505E0,1.921081543E-2,-4.989624023E-3,2.465820312E-2
9.778333906E0,1.895141602E-2,-6.591796875E-3,2.438354492E-2
9.783369306E0,1.895141602E-2,-6.011962891E-3,2.355957031E-2
9.788404706E0,1.895141602E-2,-4.089355469E-3,2.247619629E-2
9.793440107E0,1.895141602E-2,-1.937866211E-3,2.140808105E-2
9.798475507E0,1.980590820E-2,2.136230469E-4,2.117919922E-2
9.803510908E0,2.001953125E-2,3.265380859E-3,2.117919922E-2
9.808546308E0,2.001953125E-2,6.515502930E-3,2.029418945E-2
9.813581708E0,1.911926270E-2,5.249023438E-3,2.101135254E-2
9.818617109E0,1.895141602E-2,2.166748047E-3,2.392578125E-2
9.823652509E0,1.895141602E-2,-2.914428711E-3,2.438354492E-2
9.828687910E0,1.988220215E-2,-4.577636719E-3,2.252197266E-2
9.833723310E0,1.814270020E-2,-2.838134766E-3,2.224731445E-2
9.838758710E0,1.692199707E-2,2.746582031E-4,2.320861816E-2
9.843794111E0,1.585388184E-2,3.509521484E-3,2.523803711E-2
9.848829511E0,1.574707031E-2,7.720947266E-3,2.545166016E-2
9.853864912E0,1.377868652E-2,6.149291992E-3,2.447509766E-2
9.858900312E0,1.458740234E-2,2.059936523E-3,2.537536621E-2
9.863935712E0,1.567077637E-2,7.019042969E-4,2.645874023E-2
9.868971113E0,1.574707031E-2,1.647949219E-3,2.450561523E-2
9.874006513E0,1.472473145E-2,1.708984375E-3,2.235412598E-2
9.879041913E0,1.570129395E-2,6.713867188E-4,2.224731445E-2
9.884077314E0,1.678466797E-2,6.408691406E-4,2.017211914E-2
9.889112714E0,1.786804199E-2,2.746582031E-3,1.695251465E-2
9.894148115E0,1.361083984E-2,4.913330078E-3,1.370239258E-2
9.899183515E0,1.147460938E-2,1.663208008E-3,1.370239258E-2
9.904218915E0,1.142883301E-2,-1.556396484E-3,1.367187500E-2
9.909254316E0,9.292602539E-3,-4.776000977E-3,1.150512695E-2
9.914289716E0,8.148193359E-3,-6.759643555E-3,9.353637695E-3
9.919325117E0,4.959106445E-3,-4.653930664E-3,7.202148438E-3
9.924360517E0,2.807617188E-3,-3.585815430E-3,5.111694336E-3
9.929395917E0,7.171630859E-4,-2.563476562E-3,4.089355469E-3
9.934431318E0,-4.425048828E-4,-2.410888672E-3,3.936767578E-3
9.939466718E0,-2.517700195E-3,-1.525878906E-4,2.243041992E-3
9.944502119E0,-3.585815430E-3,2.777099609E-3,4.959106445E-3
9.949537519E0,-4.547119141E-3,2.655029297E-3,3.021240234E-3
9.954572919E0,-4.547119141E-3,1.571655273E-3,2.899169922E-3
9.959608320E0,-4.547119141E-3,6.408691406E-4,1.831054688E-3
9.964643720E0,-4.547119141E-3,7.781982422E-4,8.850097656E-4
9.969679121E0,-4.547119141E-3,1.861572266E-3,5.798339844E-4
9.974714521E0,-4.394531250E-3,2.929687500E-3,-1.251220703E-3
9.979749921E0,-3.311157227E-3,3.662109375E-3,-1.251220703E-3
9.984785322E0,-2.609252930E-3,2.960205078E-3,-1.251220703E-3
9.989820722E0,-3.295898438E-3,3.845214844E-3,-1.632690430E-3
9.994856122E0,-2.410888672E-3,3.417968750E-3,-3.387451172E-3
9.999891523E0,-2.639770508E-3,1.480102539E-3,-3.814697266E-3
1.000492692E1,-3.479003906E-3,3.967285156E-4,-5.523681641E-3
1.000996232E1,-3.479003906E-3,-9.155273438E-4,-5.523681641E-3
1.001499772E1,-3.982543945E-3,-2.319335938E-3,-5.523681641E-3
1.002003312E1,-6.149291992E-3,-7.171630859E-4,-5.783081055E-3
1.002506852E1,-8.300781250E-3,2.517700195E-3,-6.317138672E-3
1.003010392E1,-1.074218750E-2,5.187988281E-3,-6.072998047E-3
1.003513933E1,-1.368713379E-2,5.386352539E-3,-7.659912109E-3
1.004017473E1,-1.585388184E-2,3.524780273E-3,-8.575439453E-3
1.004521013E1,-1.736450195E-2,2.136230469E-3,-1.086425781E-2
1.005024553E1,-1.770019531E-2,-1.525878906E-5,-1.150512695E-2
1.005528093E1,-1.878356934E-2,-1.495361328E-3,-1.333618164E-2
1.006031633E1,-1.950073242E-2,-1.159667969E-3,-1.440429688E-2
1.006535173E1,-1.986694336E-2,-7.629394531E-5,-1.477050781E-2
1.007038713E1,-2.095031738E-2,1.373291016E-3,-1.553344727E-2
1.007542253E1,-2.127075195E-2,3.524780273E-3,-1.870727539E-2
1.008045793E1,-2.096557617E-2,4.913330078E-3,-1.979064941E-2
1.008549333E1,-2.124023438E-2,4.913330078E-3,-2.006530762E-2
1.009052873E1,-2.099609375E-2,4.074096680E-3,-1.940917969E-2
1.009556413E1,-2.122497559E-2,1.922607422E-3,-1.940917969E-2
1.010059953E1,-2.014160156E-2,1.983642578E-4,-1.896667480E-2
1.010563493E1,-1.995849609E-2,-4.272460938E-4,-1.834106445E-2
1.011067033E1,-2.012634277E-2,4.730224609E-4,-1.834106445E-2
1.011570573E1,-2.043151855E-2,4.028320312E-3,-1.786804199E-2
1.012074113E1,-2.212524414E-2,7.995605469E-3,-1.727294922E-2
1.012577653E1,-2.221679688E-2,9.674072266E-3,-1.727294922E-2
1.013081193E1,-2.214050293E-2,9.262084961E-3,-1.676940918E-2
1.013584733E1,-2.270507812E-2,7.095336914E-3,-1.568603516E-2
1.014088273E1,-2.270507812E-2,5.462646484E-3,-1.461791992E-2
1.014591813E1,-2.377319336E-2,4.379272461E-3,-1.458740234E-2
1.015095354E1,-2.430725098E-2,2.761840820E-3,-1.567077637E-2
1.015598894E1,-2.377319336E-2,5.950927734E-4,-1.730346680E-2
1.016102434E1,-2.377319336E-2,-4.272460938E-4,-1.889038086E-2
1.016605974E1,-2.377319336E-2,1.815795898E-3,-1.940917969E-2
1.017109514E1,-2.319335938E-2,6.164550781E-3,-1.940917969E-2
1.017613054E1,-2.270507812E-2,9.292602539E-3,-2.117919922E-2
1.018116594E1,-2.331542969E-2,1.145935059E-2,-2.261352539E-2
1.018620134E1,-2.377319336E-2,1.115417480E-2,-2.322387695E-2
1.019123674E1,-2.377319336E-2,7.141113281E-3,-2.429199219E-2
1.019627214E1,-2.314758301E-2,2.365112305E-3,-2.410888672E-2
1.020130754E1,-2.270507812E-2,6.408691406E-4,-2.302551270E-2
1.020634294E1,-2.336120605E-2,-6.713867188E-4,-2.130126953E-2
1.021137834E1,-2.311706543E-2,-1.678466797E-4,-2.047729492E-2
1.021641374E1,-2.270507812E-2,3.341674805E-3,-2.114868164E-2
1.022144914E1,-2.270507812E-2,7.659912109E-3,-2.154541016E-2
1.022648454E1,-2.410888672E-2,9.872436523E-3,-2.154541016E-2
1.023151994E1,-2.484130859E-2,8.819580078E-3,-2.224731445E-2
1.023655534E1,-2.484130859E-2,5.950927734E-3,-2.261352539E-2
1.024159074E1,-2.410888672E-2,3.433227539E-3,-2.261352539E-2
1.024662614E1,-2.377319336E-2,2.029418945E-3,-2.261352539E-2
1.025166154E1,-2.377319336E-2,9.460449219E-4,-2.410888672E-2
1.025669694E1,-2.302551270E-2,2.151489258E-3,-2.549743652E-2
1.026173234E1,-2.270507812E-2,2.777099609E-3,-2.503967285E-2
1.026676774E1,-2.270507812E-2,1.983642578E-3,-2.474975586E-2
1.027180314E1,-2.270507812E-2,1.708984375E-3,-2.394104004E-2
1.027683854E1,-2.270507812E-2,1.708984375E-3,-2.368164062E-2
1.028187395E1,-2.189636230E-2,3.341674805E-3,-2.368164062E-2
1.028690934E1,-2.247619629E-2,5.508422852E-3,-2.284240723E-2
1.029194475E1,-2.186584473E-2,6.820678711E-3,-2.091979980E-2
1.029698015E1,-2.079772949E-2,6.195068359E-3,-1.962280273E-2
1.030201555E1,-1.885986328E-2,5.111694336E-3,-1.768493652E-2
1.030705095E1,-1.843261719E-2,4.913330078E-3,-1.551818848E-2
1.031208635E1,-1.667785645E-2,2.273559570E-3,-1.336669922E-2
1.031712175E1,-1.541137695E-2,8.087158203E-4,-1.300048828E-2
1.032215715E1,-1.342773438E-2,-1.174926758E-3,-1.300048828E-2
1.032719255E1,-1.400756836E-2,-1.495361328E-3,-1.300048828E-2
1.033222795E1,-1.416015625E-2,2.197265625E-3,-1.391601562E-2
1.033726335E1,-1.416015625E-2,5.584716797E-3,-1.406860352E-2
1.034229875E1,-1.228332520E-2,6.912231445E-3,-1.499938965E-2
1.034733415E1,-1.298522949E-2,6.088256836E-3,-1.321411133E-2
