"Time (s)","Acceleration x (m/s^2)","Acceleration y (m/s^2)","Acceleration z (m/s^2)"
4.023770200E-2,-2.012023926E-1,9.540206909E0,-9.460342407E0
4.527310300E-2,-1.970214844E-1,9.551086426E0,-9.432998657E0
5.030850300E-2,-1.986083984E-1,9.543533325E0,-9.445587158E0
5.534390300E-2,-2.003936768E-1,9.550811768E0,-9.458206177E0
6.037930400E-2,-2.040863037E-1,9.548706055E0,-9.435989380E0
6.541470400E-2,-1.827239990E-1,9.528381348E0,-9.402786255E0
7.045010400E-2,-1.917877197E-1,9.565048218E0,-9.444992065E0
7.548550500E-2,-2.322692871E-1,9.546737671E0,-9.445968628E0
8.052090500E-2,-2.291259766E-1,9.567337036E0,-9.427597046E0
8.555630600E-2,-2.226104736E-1,9.523620605E0,-9.459945679E0
9.059170600E-2,-2.359313965E-1,9.550033569E0,-9.483169556E0
9.562710600E-2,-2.323608398E-1,9.591354370E0,-9.422714233E0
1.006625070E-1,-2.021331787E-1,9.551162720E0,-9.445678711E0
1.056979070E-1,-2.361297607E-1,9.544708252E0,-9.503326416E0
1.107333080E-1,-1.871948242E-1,9.544708252E0,-9.456222534E0
1.157687080E-1,-2.052917480E-1,9.546875000E0,-9.467788696E0
1.208041080E-1,-1.876983643E-1,9.531646729E0,-9.480453491E0
1.258395090E-1,-1.794128418E-1,9.523712158E0,-9.472396851E0
1.308749090E-1,-2.129364014E-1,9.550445557E0,-9.410690308E0
1.359103100E-1,-1.665344238E-1,9.542663574E0,-9.441925049E0
1.409457100E-1,-2.134552002E-1,9.570190430E0,-9.440917969E0
1.459811100E-1,-1.562652588E-1,9.552185059E0,-9.396469116E0
1.510165110E-1,-1.718292236E-1,9.542327881E0,-9.388504028E0
1.560519110E-1,-2.051391602E-1,9.530502319E0,-9.397994995E0
1.610873120E-1,-2.033081055E-1,9.538146973E0,-9.396286011E0
1.661227120E-1,-2.236785889E-1,9.560836792E0,-9.421127319E0
1.711581120E-1,-2.080535889E-1,9.546142578E0,-9.404769897E0
1.761935130E-1,-1.735839844E-1,9.528762817E0,-9.440048218E0
1.812289130E-1,-2.005615234E-1,9.542205811E0,-9.393295288E0
1.862643130E-1,-2.019653320E-1,9.572448730E0,-9.421676636E0
1.912997140E-1,-1.927947998E-1,9.562103271E0,-9.375991821E0
1.963351140E-1,-1.921844482E-1,9.548126221E0,-9.423751831E0
2.013705150E-1,-2.215270996E-1,9.558349609E0,-9.326568604E0
2.064059150E-1,-2.155914307E-1,9.567993164E0,-9.349044800E0
2.114413150E-1,-1.901855469E-1,9.552261353E0,-9.384719849E0
2.164767160E-1,-1.861114502E-1,9.570022583E0,-9.375457764E0
2.215121160E-1,-1.857147217E-1,9.572708130E0,-9.385406494E0
2.265475170E-1,-1.889953613E-1,9.546203613E0,-9.454406738E0
2.315829170E-1,-2.062225342E-1,9.547927856E0,-9.416641235E0
2.366183170E-1,-1.893005371E-1,9.555984497E0,-9.395233154E0
2.416537180E-1,-2.131347656E-1,9.510513306E0,-9.380157471E0
2.466891180E-1,-1.908721924E-1,9.547225952E0,-9.443710327E0
2.517245190E-1,-1.914672852E-1,9.548873901E0,-9.389099121E0
2.567599190E-1,-1.834411621E-1,9.568283081E0,-9.400299072E0
2.617953190E-1,-1.660919189E-1,9.543869019E0,-9.441574097E0
2.668307200E-1,-1.882476807E-1,9.541229248E0,-9.423522949E0
2.718661200E-1,-1.814422607E-1,9.554489136E0,-9.420410156E0
2.769015200E-1,-1.972656250E-1,9.550201416E0,-9.402160645E0
2.819369210E-1,-1.817626953E-1,9.544143677E0,-9.380996704E0
2.869723210E-1,-1.996612549E-1,9.536712646E0,-9.395690918E0
2.920077220E-1,-1.665649414E-1,9.564041138E0,-9.383132935E0
2.970431220E-1,-1.540832520E-1,9.557373047E0,-9.393096924E0
3.020785220E-1,-1.917572021E-1,9.540466309E0,-9.395553589E0
3.071139230E-1,-1.813049316E-1,9.561401367E0,-9.405700684E0
3.121493230E-1,-1.623077393E-1,9.534164429E0,-9.430297852E0
3.171847240E-1,-1.750335693E-1,9.555496216E0,-9.442459106E0
3.222201240E-1,-1.942749023E-1,9.562194824E0,-9.410476685E0
3.272555240E-1,-1.904602051E-1,9.582794189E0,-9.403457642E0
3.322909250E-1,-1.794738770E-1,9.558273315E0,-9.355270386E0
3.373263250E-1,-1.688079834E-1,9.550765991E0,-9.352783203E0
3.423617260E-1,-1.778411865E-1,9.565826416E0,-9.378021240E0
3.473971260E-1,-1.840972900E-1,9.549530029E0,-9.388061523E0
3.524325260E-1,-1.706542969E-1,9.551818848E0,-9.400405884E0
3.574679270E-1,-1.767272949E-1,9.566299438E0,-9.417404175E0
3.625033270E-1,-1.750488281E-1,9.575653076E0,-9.428649902E0
3.675387280E-1,-1.708831787E-1,9.565475464E0,-9.423095703E0
3.725741280E-1,-1.716156006E-1,9.544906616E0,-9.434600830E0
3.776095280E-1,-1.933746338E-1,9.553787231E0,-9.412673950E0
3.826449290E-1,-1.919250488E-1,9.576660156E0,-9.387130737E0
3.876803290E-1,-1.835327148E-1,9.567520142E0,-9.429122925E0
3.927157290E-1,-1.601715088E-1,9.548110962E0,-9.472656250E0
3.977511300E-1,-1.567993164E-1,9.564010620E0,-9.458206177E0
4.027865300E-1,-1.714935303E-1,9.566223145E0,-9.447662354E0
4.078219310E-1,-1.787261963E-1,9.531906128E0,-9.445877075E0
4.128573310E-1,-1.905517578E-1,9.549865723E0,-9.406448364E0
4.178927310E-1,-1.721954346E-1,9.576324463E0,-9.406433105E0
4.229281320E-1,-1.440124512E-1,9.561309814E0,-9.407516479E0
4.279635320E-1,-1.361236572E-1,9.551849365E0,-9.402786255E0
4.329989330E-1,-1.758422852E-1,9.548538208E0,-9.430908203E0
4.380343330E-1,-1.915740967E-1,9.545394897E0,-9.443252563E0
4.430697330E-1,-1.823425293E-1,9.556655884E0,-9.431289673E0
4.481051340E-1,-1.842193604E-1,9.538635254E0,-9.440567017E0
4.531405340E-1,-1.629638672E-1,9.544677734E0,-9.490158081E0
4.581759350E-1,-1.932067871E-1,9.562133789E0,-9.505142212E0
4.632113350E-1,-2.198791504E-1,9.534851074E0,-9.468338013E0
4.682467350E-1,-1.643829346E-1,9.508834839E0,-9.395843506E0
4.732821360E-1,-1.670227051E-1,9.542205811E0,-9.445419312E0
4.783175360E-1,-1.756896973E-1,9.522933960E0,-9.466140747E0
4.833529370E-1,-1.844177246E-1,9.545486450E0,-9.439651489E0
4.883883370E-1,-2.000274658E-1,9.553833008E0,-9.447631836E0
4.934237370E-1,-1.846466064E-1,9.519958496E0,-9.494720459E0
4.984591380E-1,-2.079315186E-1,9.546463013E0,-9.433242798E0
5.034945380E-1,-1.728973389E-1,9.587097168E0,-9.457077026E0
5.085299380E-1,-1.754913330E-1,9.569183350E0,-9.462295532E0
5.135653390E-1,-2.085723877E-1,9.534149170E0,-9.494262695E0
5.186007390E-1,-1.777191162E-1,9.571487427E0,-9.502319336E0
5.236361400E-1,-1.895446777E-1,9.540603638E0,-9.476470947E0
5.286715400E-1,-1.598052979E-1,9.546432495E0,-9.483062744E0
5.337069400E-1,-1.553039551E-1,9.544830322E0,-9.470214844E0
5.387423410E-1,-1.506195068E-1,9.549255371E0,-9.439819336E0
5.437777410E-1,-2.014923096E-1,9.563385010E0,-9.503494263E0
5.488131420E-1,-1.745605469E-1,9.540237427E0,-9.444000244E0
5.538485420E-1,-1.742095947E-1,9.516143799E0,-9.436111450E0
5.588839420E-1,-1.534423828E-1,9.528213501E0,-9.521423340E0
5.639193430E-1,-2.041168213E-1,9.542846680E0,-9.490509033E0
5.689547430E-1,-1.629333496E-1,9.562774658E0,-9.474990845E0
5.739901440E-1,-1.786346436E-1,9.538848877E0,-9.436065674E0
5.790255440E-1,-1.735839844E-1,9.565063477E0,-9.477676392E0
5.840609440E-1,-1.968994141E-1,9.582885742E0,-9.426208496E0
5.890963450E-1,-1.564788818E-1,9.555648804E0,-9.478469849E0
5.941317450E-1,-1.947021484E-1,9.566909790E0,-9.447067261E0
5.991671450E-1,-1.876983643E-1,9.532257080E0,-9.441116333E0
6.042025460E-1,-1.954040527E-1,9.545318604E0,-9.457290649E0
6.092379460E-1,-1.666107178E-1,9.536804199E0,-9.427490234E0
6.142733470E-1,-2.071990967E-1,9.558212280E0,-9.452819824E0
6.193087470E-1,-2.085723877E-1,9.541458130E0,-9.417007446E0
6.243441470E-1,-2.220916748E-1,9.543731689E0,-9.511718750E0
6.293795480E-1,-1.999664307E-1,9.520095825E0,-9.481246948E0
6.344149480E-1,-1.898345947E-1,9.544311523E0,-9.456054688E0
6.394503490E-1,-1.641235352E-1,9.566345215E0,-9.451965332E0
6.444857490E-1,-1.884918213E-1,9.545318604E0,-9.483917236E0
6.495211490E-1,-1.896362305E-1,9.542953491E0,-9.462341309E0
6.545565500E-1,-1.890716553E-1,9.567825317E0,-9.480621338E0
6.595919500E-1,-1.791076660E-1,9.535842896E0,-9.431869507E0
6.646273510E-1,-1.841430664E-1,9.561691284E0,-9.448074341E0
6.696627510E-1,-1.892700195E-1,9.543731689E0,-9.430786133E0
6.746981510E-1,-2.139739990E-1,9.551116943E0,-9.464675903E0
6.797335520E-1,-2.041168213E-1,9.532058716E0,-9.443069458E0
6.847689520E-1,-1.899871826E-1,9.540481567E0,-9.445175171E0
6.898043530E-1,-1.907958984E-1,9.547714233E0,-9.504608154E0
6.948397530E-1,-1.957397461E-1,9.531723022E0,-9.431930542E0
6.998751530E-1,-2.106628418E-1,9.535476685E0,-9.457733154E0
7.049105540E-1,-1.822357178E-1,9.519088745E0,-9.462295532E0
7.099459540E-1,-1.891937256E-1,9.542694092E0,-9.428253174E0
7.149813540E-1,-1.694793701E-1,9.567962646E0,-9.399841309E0
7.200167550E-1,-1.747436523E-1,9.574005127E0,-9.418914795E0
7.250521550E-1,-2.027740479E-1,9.544616699E0,-9.421112061E0
7.300875560E-1,-2.048492432E-1,9.544891357E0,-9.464355469E0
7.351229560E-1,-2.160644531E-1,9.555191040E0,-9.474517822E0
7.401583560E-1,-2.167358398E-1,9.576217651E0,-9.455230713E0
7.451937570E-1,-2.085418701E-1,9.557266235E0,-9.402709961E0
7.502291570E-1,-2.042236328E-1,9.527389526E0,-9.391738892E0
7.552645580E-1,-2.051544189E-1,9.549468994E0,-9.440872192E0
7.602999580E-1,-1.902923584E-1,9.581390381E0,-9.485046387E0
7.653353580E-1,-1.931457520E-1,9.574508667E0,-9.470993042E0
7.703707590E-1,-2.170562744E-1,9.561676025E0,-9.438796997E0
7.754061590E-1,-2.053680420E-1,9.562454224E0,-9.421386719E0
7.804415600E-1,-1.876220703E-1,9.545181274E0,-9.453155518E0
7.854769600E-1,-2.074432373E-1,9.550735474E0,-9.442901611E0
7.905123600E-1,-2.181701660E-1,9.562469482E0,-9.397857666E0
7.955477610E-1,-2.137298584E-1,9.575210571E0,-9.404724121E0
8.005831610E-1,-2.015380859E-1,9.567108154E0,-9.440429688E0
8.056185620E-1,-2.007141113E-1,9.567626953E0,-9.441741943E0
8.106539620E-1,-1.975708008E-1,9.563491821E0,-9.502059937E0
8.156893620E-1,-2.149353027E-1,9.551956177E0,-9.463439941E0
8.207247630E-1,-2.234344482E-1,9.524230957E0,-9.448638916E0
8.257601630E-1,-2.009429932E-1,9.543502808E0,-9.426940918E0
8.307955630E-1,-2.006988525E-1,9.547531128E0,-9.419738770E0
8.358309640E-1,-2.251434326E-1,9.557296753E0,-9.417541504E0
8.408663640E-1,-2.133941650E-1,9.556961060E0,-9.443481445E0
8.459017650E-1,-2.017211914E-1,9.549057007E0,-9.474105835E0
8.509371650E-1,-2.337036133E-1,9.545333862E0,-9.498855591E0
8.559725650E-1,-2.171173096E-1,9.553604126E0,-9.410705566E0
8.610079660E-1,-2.075347900E-1,9.536682129E0,-9.398895264E0
8.660433660E-1,-2.425079346E-1,9.515701294E0,-9.414352417E0
8.710787670E-1,-2.172546387E-1,9.528198242E0,-9.420806885E0
8.761141670E-1,-2.018432617E-1,9.553680420E0,-9.450302124E0
8.811495670E-1,-2.138977051E-1,9.570541382E0,-9.420898438E0
8.861849680E-1,-2.053222656E-1,9.543914795E0,-9.433822632E0
8.912203680E-1,-2.186737061E-1,9.537567139E0,-9.412658691E0
8.962557690E-1,-2.419738770E-1,9.547637939E0,-9.399475098E0
9.012911690E-1,-1.986083984E-1,9.549468994E0,-9.412322998E0
9.063265690E-1,-1.929626465E-1,9.516082764E0,-9.404251099E0
9.113619700E-1,-2.248229980E-1,9.538742065E0,-9.396469116E0
9.163973700E-1,-2.396240234E-1,9.533798218E0,-9.421218872E0
9.214327700E-1,-2.257385254E-1,9.532806396E0,-9.432846069E0
9.264681710E-1,-1.913452148E-1,9.534988403E0,-9.451248169E0
9.315035710E-1,-1.884918213E-1,9.548583984E0,-9.376831055E0
9.365389720E-1,-1.975555420E-1,9.533615112E0,-9.389938354E0
9.415743720E-1,-2.094879150E-1,9.576354980E0,-9.409225464E0
9.466097720E-1,-1.666107178E-1,9.543823242E0,-9.380279541E0
9.516451730E-1,-2.117004395E-1,9.542327881E0,-9.390731812E0
9.566805730E-1,-1.956329346E-1,9.530426025E0,-9.459915161E0
9.617159740E-1,-2.007751465E-1,9.516250610E0,-9.421325684E0
9.667513740E-1,-2.310028076E-1,9.525665283E0,-9.382293701E0
9.717867740E-1,-2.171478271E-1,9.527328491E0,-9.420318604E0
9.768221750E-1,-2.173461914E-1,9.569137573E0,-9.441848755E0
9.818575750E-1,-1.764526367E-1,9.536499023E0,-9.415557861E0
9.868929760E-1,-1.780700684E-1,9.556945801E0,-9.427215576E0
9.919283760E-1,-2.216796875E-1,9.561981201E0,-9.404541016E0
9.969637760E-1,-1.725006104E-1,9.568038940E0,-9.401519775E0
1.001999177E0,-2.024993896E-1,9.559005737E0,-9.427413940E0
1.007034577E0,-2.162322998E-1,9.524108887E0,-9.380676270E0
1.012069978E0,-1.971130371E-1,9.551895142E0,-9.414413452E0
1.017105378E0,-2.179718018E-1,9.582092285E0,-9.436935425E0
1.022140778E0,-1.925964355E-1,9.573852539E0,-9.404571533E0
1.027176179E0,-1.794586182E-1,9.551437378E0,-9.426177979E0
1.032211579E0,-1.958923340E-1,9.547271729E0,-9.420257568E0
1.037246979E0,-2.014617920E-1,9.538955688E0,-9.394836426E0
1.042282380E0,-1.810607910E-1,9.546188354E0,-9.367767334E0
1.047317780E0,-1.948699951E-1,9.561828613E0,-9.390594482E0
1.052353181E0,-1.943511963E-1,9.588134766E0,-9.401367188E0
1.057388581E0,-2.134857178E-1,9.554229736E0,-9.409332275E0
1.062423981E0,-1.707611084E-1,9.537490845E0,-9.394882202E0
1.067459382E0,-1.871337891E-1,9.534271240E0,-9.371902466E0
1.072494782E0,-2.000885010E-1,9.550079346E0,-9.377639771E0
1.077530183E0,-2.024230957E-1,9.553863525E0,-9.413360596E0
1.082565583E0,-2.189941406E-1,9.542327881E0,-9.358459473E0
1.087600983E0,-1.990356445E-1,9.559997559E0,-9.401473999E0
1.092636384E0,-1.773376465E-1,9.538299561E0,-9.430389404E0
1.097671784E0,-1.786193848E-1,9.528747559E0,-9.405166626E0
1.102707185E0,-1.921997070E-1,9.537719727E0,-9.403442383E0
1.107742585E0,-1.816711426E-1,9.549179077E0,-9.416427612E0
1.112777985E0,-1.999816895E-1,9.549362183E0,-9.434967041E0
1.117813386E0,-2.323303223E-1,9.564254761E0,-9.413284302E0
1.122848786E0,-2.008514404E-1,9.550018311E0,-9.428771973E0
1.127884187E0,-1.782531738E-1,9.550186157E0,-9.447265625E0
1.132919587E0,-1.816711426E-1,9.537445068E0,-9.413955688E0
1.137954987E0,-1.843109131E-1,9.530166626E0,-9.434432983E0
1.142990388E0,-1.985473633E-1,9.539367676E0,-9.457000732E0
1.148025788E0,-1.940460205E-1,9.547088623E0,-9.434509277E0
1.153061188E0,-1.732025146E-1,9.552856445E0,-9.406753540E0
1.158096589E0,-1.871795654E-1,9.540054321E0,-9.432296753E0
1.163131989E0,-1.869354248E-1,9.554840088E0,-9.460906982E0
1.168167390E0,-1.918945312E-1,9.561477661E0,-9.406936646E0
1.173202790E0,-2.032470703E-1,9.536285400E0,-9.395019531E0
1.178238190E0,-1.776580811E-1,9.536483765E0,-9.419448853E0
1.183273591E0,-1.965942383E-1,9.561477661E0,-9.392868042E0
1.188308991E0,-2.082366943E-1,9.546447754E0,-9.411224365E0
1.193344392E0,-1.744384766E-1,9.522277832E0,-9.436706543E0
1.198379792E0,-1.901397705E-1,9.527526855E0,-9.446472168E0
1.203415192E0,-1.875762939E-1,9.539138794E0,-9.455154419E0
1.208450593E0,-1.614074707E-1,9.555130005E0,-9.417907715E0
1.213485993E0,-1.868743896E-1,9.556838989E0,-9.404693604E0
1.218521394E0,-2.082519531E-1,9.548049927E0,-9.423797607E0
1.223556794E0,-2.115020752E-1,9.506851196E0,-9.469192505E0
1.228592194E0,-2.010650635E-1,9.535766602E0,-9.491683960E0
1.233627595E0,-2.005462646E-1,9.554077148E0,-9.483413696E0
1.238662995E0,-1.861267090E-1,9.530197144E0,-9.442321777E0
1.243698395E0,-1.857604980E-1,9.531066895E0,-9.470626831E0
1.248733796E0,-1.816864014E-1,9.562423706E0,-9.456130981E0
1.253769196E0,-1.789703369E-1,9.561050415E0,-9.420562744E0
1.258804597E0,-1.611633301E-1,9.561950684E0,-9.490692139E0
1.263839997E0,-1.696624756E-1,9.563751221E0,-9.482635498E0
1.268875397E0,-1.760559082E-1,9.560058594E0,-9.492050171E0
1.273910798E0,-1.541595459E-1,9.558990479E0,-9.466217041E0
1.278946198E0,-2.011871338E-1,9.555191040E0,-9.436645508E0
1.283981599E0,-1.587829590E-1,9.559997559E0,-9.419784546E0
1.289016999E0,-1.456451416E-1,9.557449341E0,-9.467941284E0
1.294052399E0,-1.972961426E-1,9.522842407E0,-9.451141357E0
1.299087800E0,-1.954498291E-1,9.562484741E0,-9.423461914E0
1.304123200E0,-1.891784668E-1,9.581100464E0,-9.413314819E0
1.309158601E0,-2.092437744E-1,9.562042236E0,-9.430969238E0
1.314194001E0,-1.534271240E-1,9.556884766E0,-9.425308228E0
1.319229401E0,-1.477813721E-1,9.563003540E0,-9.473236084E0
1.324264802E0,-1.847686768E-1,9.546447754E0,-9.461654663E0
1.329300202E0,-1.271667480E-1,9.557846069E0,-9.470855713E0
1.334335603E0,-1.840057373E-1,9.543441772E0,-9.438507080E0
1.339371003E0,-1.705017090E-1,9.551315308E0,-9.478836060E0
1.344406403E0,-1.899566650E-1,9.529067993E0,-9.392486572E0
1.349441804E0,-1.354980469E-1,9.528045654E0,-9.469253540E0
1.354477204E0,-1.804809570E-1,9.551406860E0,-9.429748535E0
1.359512604E0,-1.860961914E-1,9.535278320E0,-9.483367920E0
1.364548005E0,-1.692962646E-1,9.551986694E0,-9.407806396E0
1.369583405E0,-1.438903809E-1,9.575073242E0,-9.450866699E0
1.374618806E0,-1.758728027E-1,9.544631958E0,-9.475769043E0
1.379654206E0,-1.534118652E-1,9.542007446E0,-9.450393677E0
1.384689606E0,-1.670684814E-1,9.535568237E0,-9.450775146E0
1.389725007E0,-1.693267822E-1,9.542648315E0,-9.453353882E0
1.394760407E0,-1.981201172E-1,9.545379639E0,-9.399627686E0
1.399795808E0,-1.733703613E-1,9.526321411E0,-9.448471069E0
1.404831208E0,-1.850280762E-1,9.536529541E0,-9.468872070E0
1.409866608E0,-1.557312012E-1,9.569625854E0,-9.407531738E0
1.414902009E0,-1.605682373E-1,9.574508667E0,-9.443878174E0
1.419937409E0,-1.687316895E-1,9.553527832E0,-9.451370239E0
1.424972810E0,-1.874237061E-1,9.557540894E0,-9.469985962E0
1.430008210E0,-1.567535400E-1,9.525650024E0,-9.454788208E0
1.435043610E0,-1.668243408E-1,9.540542603E0,-9.424270630E0
1.440079011E0,-1.779937744E-1,9.562576294E0,-9.406494141E0
1.445114411E0,-1.827697754E-1,9.601409912E0,-9.426635742E0
1.450149812E0,-1.713104248E-1,9.604187012E0,-9.444610596E0
1.455185212E0,-1.497497559E-1,9.559951782E0,-9.448425293E0
1.460220612E0,-1.729888916E-1,9.576080322E0,-9.481643677E0
1.465256013E0,-1.698455811E-1,9.540557861E0,-9.485504150E0
1.470291413E0,-1.677551270E-1,9.528823853E0,-9.427673340E0
1.475326813E0,-2.019195557E-1,9.507781982E0,-9.418823242E0
1.480362214E0,-1.736602783E-1,9.560394287E0,-9.410766602E0
1.485397614E0,-1.844635010E-1,9.585739136E0,-9.443191528E0
1.490433015E0,-1.838378906E-1,9.578475952E0,-9.461791992E0
1.495468415E0,-1.750335693E-1,9.567871094E0,-9.423324585E0
1.500503815E0,-1.793365479E-1,9.520294189E0,-9.465103149E0
1.505539216E0,-2.053222656E-1,9.538726807E0,-9.462738037E0
1.510574616E0,-2.046661377E-1,9.545959473E0,-9.417175293E0
1.515610017E0,-1.929168701E-1,9.546279907E0,-9.462692261E0
1.520645417E0,-1.810302734E-1,9.550994873E0,-9.471572876E0
1.525680817E0,-1.675262451E-1,9.550994873E0,-9.432540894E0
1.530716218E0,-1.795959473E-1,9.552825928E0,-9.464279175E0
1.535751618E0,-1.952972412E-1,9.538574219E0,-9.457855225E0
1.540787019E0,-2.032165527E-1,9.548355103E0,-9.448776245E0
1.545822419E0,-2.153472900E-1,9.554656982E0,-9.428985596E0
1.550857819E0,-1.790313721E-1,9.549468994E0,-9.417938232E0
1.555893220E0,-1.636352539E-1,9.557327271E0,-9.445220947E0
1.560928620E0,-1.813964844E-1,9.541595459E0,-9.441085815E0
1.565964020E0,-1.933441162E-1,9.553253174E0,-9.405014038E0
1.570999421E0,-2.001800537E-1,9.564163208E0,-9.414474487E0
1.576034821E0,-1.882324219E-1,9.556259155E0,-9.460693359E0
1.581070222E0,-2.068634033E-1,9.558029175E0,-9.427932739E0
1.586105622E0,-2.068634033E-1,9.528686523E0,-9.404266357E0
1.591141022E0,-1.828155518E-1,9.529876709E0,-9.410339355E0
1.596176423E0,-2.122802734E-1,9.536834717E0,-9.424377441E0
1.601211823E0,-1.964263916E-1,9.552429199E0,-9.456710815E0
1.606247224E0,-1.728057861E-1,9.548950195E0,-9.435089111E0
1.611282624E0,-1.897430420E-1,9.534637451E0,-9.440048218E0
1.616318024E0,-1.935577393E-1,9.523864746E0,-9.415817261E0
1.621353425E0,-2.121429443E-1,9.567123413E0,-9.454666138E0
1.626388825E0,-2.087249756E-1,9.562179565E0,-9.487762451E0
1.631424226E0,-2.019805908E-1,9.546279907E0,-9.415115356E0
1.636459626E0,-1.851043701E-1,9.537445068E0,-9.422348022E0
1.641495026E0,-1.864166260E-1,9.563873291E0,-9.430160522E0
1.646530427E0,-1.942138672E-1,9.591339111E0,-9.394241333E0
1.651565827E0,-1.956329346E-1,9.561279297E0,-9.429077148E0
1.656601228E0,-2.146453857E-1,9.547088623E0,-9.423828125E0
1.661636628E0,-2.042999268E-1,9.533065796E0,-9.390151978E0
1.666672028E0,-2.389984131E-1,9.545852661E0,-9.374221802E0
1.671707429E0,-2.056884766E-1,9.548217773E0,-9.422531128E0
1.676742829E0,-1.816253662E-1,9.548934937E0,-9.438491821E0
1.681778229E0,-1.846313477E-1,9.541931152E0,-9.408340454E0
1.686813630E0,-2.014160156E-1,9.511245728E0,-9.446304321E0
1.691849030E0,-2.420654297E-1,9.525604248E0,-9.440048218E0
1.696884431E0,-2.425079346E-1,9.548156738E0,-9.455825806E0
1.701919831E0,-2.148590088E-1,9.497817993E0,-9.453903198E0
1.706955231E0,-1.754150391E-1,9.556594849E0,-9.442611694E0
1.711990632E0,-1.921081543E-1,9.584976196E0,-9.436752319E0
1.717026032E0,-2.081756592E-1,9.556228638E0,-9.431930542E0
1.722061433E0,-2.247467041E-1,9.524307251E0,-9.433456421E0
1.727096833E0,-1.815032959E-1,9.548797607E0,-9.371475220E0
1.732132233E0,-2.135925293E-1,9.558364868E0,-9.443023682E0
1.737167634E0,-2.104492188E-1,9.556777954E0,-9.388641357E0
1.742203034E0,-2.255554199E-1,9.565536499E0,-9.406082153E0
1.747238435E0,-2.152709961E-1,9.502746582E0,-9.416595459E0
1.752273835E0,-1.848754883E-1,9.575134277E0,-9.378082275E0
1.757309235E0,-2.394714355E-1,9.564086914E0,-9.409103394E0
1.762344636E0,-2.150115967E-1,9.533172607E0,-9.384063721E0
1.767380036E0,-1.813507080E-1,9.542327881E0,-9.414688110E0
1.772415437E0,-1.885833740E-1,9.552139282E0,-9.445159912E0
1.777450837E0,-1.969299316E-1,9.575592041E0,-9.406600952E0
1.782486237E0,-2.474822998E-1,9.571777344E0,-9.371200562E0
1.787521638E0,-2.346649170E-1,9.534439087E0,-9.416122437E0
1.792557038E0,-2.501373291E-1,9.564804077E0,-9.400939941E0
1.797592438E0,-2.113189697E-1,9.546630859E0,-9.444931030E0
1.802627839E0,-2.287597656E-1,9.571289062E0,-9.436508179E0
1.807663239E0,-2.321929932E-1,9.572845459E0,-9.442733765E0
1.812698640E0,-2.766113281E-1,9.546554565E0,-9.455444336E0
1.817734040E0,-2.214813232E-1,9.545532227E0,-9.420898438E0
1.822769440E0,-2.338562012E-1,9.565933228E0,-9.431671143E0
1.827804841E0,-2.194366455E-1,9.549118042E0,-9.425308228E0
1.832840241E0,-2.175445557E-1,9.548599243E0,-9.388366699E0
1.837875642E0,-2.157135010E-1,9.552520752E0,-9.451614380E0
1.842911042E0,-2.529602051E-1,9.536743164E0,-9.442626953E0
1.847946442E0,-2.413787842E-1,9.555618286E0,-9.383605957E0
1.852981843E0,-2.366943359E-1,9.555938721E0,-9.410324097E0
1.858017243E0,-2.433471680E-1,9.539321899E0,-9.407958984E0
1.863052644E0,-2.180480957E-1,9.548522949E0,-9.416900635E0
1.868088044E0,-1.998596191E-1,9.533416748E0,-9.390899658E0
1.873123444E0,-2.278442383E-1,9.542953491E0,-9.405166626E0
1.878158845E0,-2.274017334E-1,9.551269531E0,-9.410415649E0
1.883194245E0,-2.081451416E-1,9.566452026E0,-9.429000854E0
1.888229645E0,-1.875457764E-1,9.562072754E0,-9.433715820E0
1.893265046E0,-2.169494629E-1,9.561508179E0,-9.431961060E0
1.898300446E0,-2.718658447E-1,9.562789917E0,-9.452285767E0
1.903335847E0,-2.461700439E-1,9.566009521E0,-9.450683594E0
1.908371247E0,-2.076568604E-1,9.542922974E0,-9.481338501E0
1.913406647E0,-2.166137695E-1,9.530868530E0,-9.440902710E0
1.918442048E0,-2.286529541E-1,9.526840210E0,-9.425094604E0
1.923477448E0,-2.342681885E-1,9.526351929E0,-9.429336548E0
1.928512849E0,-2.275543213E-1,9.537017822E0,-9.429931641E0
1.933548249E0,-2.257385254E-1,9.559692383E0,-9.428115845E0
1.938583649E0,-2.323608398E-1,9.539016724E0,-9.437759399E0
1.943619050E0,-2.337188721E-1,9.523895264E0,-9.424575806E0
1.948654450E0,-2.412414551E-1,9.522811890E0,-9.460464478E0
1.953689851E0,-2.382507324E-1,9.544586182E0,-9.478546143E0
1.958725251E0,-2.152099609E-1,9.558120728E0,-9.432678223E0
1.963760651E0,-2.167053223E-1,9.551849365E0,-9.451614380E0
1.968796052E0,-2.384338379E-1,9.562484741E0,-9.448013306E0
1.973831452E0,-2.370300293E-1,9.580581665E0,-9.440750122E0
1.978866853E0,-2.265777588E-1,9.548614502E0,-9.434844971E0
1.983902253E0,-2.124481201E-1,9.531753540E0,-9.433731079E0
1.988937653E0,-2.201232910E-1,9.531311035E0,-9.441604614E0
1.993973054E0,-2.629699707E-1,9.549423218E0,-9.478912354E0
1.999008454E0,-2.466583252E-1,9.556793213E0,-9.471176147E0
2.004043854E0,-2.250518799E-1,9.534881592E0,-9.421371460E0
2.009079255E0,-2.232360840E-1,9.535186768E0,-9.395629883E0
2.014114655E0,-2.282104492E-1,9.529724121E0,-9.428848267E0
2.019150056E0,-2.158508301E-1,9.526260376E0,-9.457229614E0
2.024185456E0,-2.461700439E-1,9.544738770E0,-9.459915161E0
2.029220856E0,-2.338256836E-1,9.551132202E0,-9.413467407E0
2.034256257E0,-2.225646973E-1,9.541580200E0,-9.437393188E0
2.039291657E0,-2.152709961E-1,9.526245117E0,-9.452590942E0
2.044327058E0,-2.279663086E-1,9.543853760E0,-9.464401245E0
2.049362458E0,-2.411041260E-1,9.557556152E0,-9.496780396E0
2.054397858E0,-2.178344727E-1,9.569152832E0,-9.460083008E0
2.059433259E0,-2.023773193E-1,9.556030273E0,-9.439147949E0
2.064468659E0,-2.039337158E-1,9.560043335E0,-9.457885742E0
2.069504060E0,-2.195281982E-1,9.535003662E0,-9.462875366E0
2.074539460E0,-2.296752930E-1,9.529312134E0,-9.438552856E0
2.079574860E0,-2.369079590E-1,9.545257568E0,-9.418365479E0
2.084610261E0,-2.234191895E-1,9.551345825E0,-9.471191406E0
2.089645661E0,-2.136993408E-1,9.523147583E0,-9.400009155E0
2.094681062E0,-2.220153809E-1,9.556930542E0,-9.419769287E0
2.099716462E0,-2.261810303E-1,9.548385620E0,-9.385589600E0
2.104751862E0,-2.085723877E-1,9.548706055E0,-9.436614990E0
2.109787263E0,-1.990661621E-1,9.531188965E0,-9.443939209E0
2.114822663E0,-2.227325439E-1,9.540390015E0,-9.449417114E0
2.119858063E0,-1.785583496E-1,9.563201904E0,-9.446212769E0
2.124893464E0,-2.144470215E-1,9.557601929E0,-9.490371704E0
2.129928864E0,-2.216033936E-1,9.541473389E0,-9.461029053E0
2.134964265E0,-2.152862549E-1,9.561706543E0,-9.403091431E0
2.139999665E0,-1.904296875E-1,9.550506592E0,-9.521499634E0
2.145035065E0,-2.109832764E-1,9.551712036E0,-9.412170410E0
2.150070466E0,-2.145843506E-1,9.531341553E0,-9.405166626E0
2.155105866E0,-2.123718262E-1,9.555801392E0,-9.446685791E0
2.160141267E0,-2.076873779E-1,9.535827637E0,-9.445693970E0
2.165176667E0,-1.886138916E-1,9.518615723E0,-9.462188721E0
2.170212067E0,-1.932220459E-1,9.528198242E0,-9.504791260E0
2.175247468E0,-1.867828369E-1,9.554183960E0,-9.450561523E0
2.180282868E0,-2.209472656E-1,9.551773071E0,-9.460342407E0
2.185318269E0,-1.939697266E-1,9.548645020E0,-9.473480225E0
2.190353669E0,-2.105865479E-1,9.530288696E0,-9.461990356E0
2.195389069E0,-2.200622559E-1,9.529327393E0,-9.536209106E0
2.200424470E0,-1.990509033E-1,9.546508789E0,-9.500198364E0
2.205459870E0,-2.351989746E-1,9.539276123E0,-9.447631836E0
2.210495270E0,-2.022857666E-1,9.532302856E0,-9.488128662E0
2.215530671E0,-1.985778809E-1,9.529708862E0,-9.467437744E0
2.220566071E0,-2.015533447E-1,9.540786743E0,-9.490310669E0
2.225601472E0,-1.909027100E-1,9.530426025E0,-9.487976074E0
2.230636872E0,-1.780548096E-1,9.534805298E0,-9.414443970E0
2.235672272E0,-1.951904297E-1,9.558990479E0,-9.500396729E0
2.240707673E0,-2.314910889E-1,9.556854248E0,-9.470611572E0
2.245743073E0,-1.950378418E-1,9.547088623E0,-9.451187134E0
2.250778474E0,-2.149200439E-1,9.543624878E0,-9.488647461E0
2.255813874E0,-1.920776367E-1,9.545242310E0,-9.504455566E0
2.260849274E0,-1.986846924E-1,9.591339111E0,-9.485671997E0
2.265884675E0,-1.663513184E-1,9.560897827E0,-9.463897705E0
2.270920075E0,-1.391754150E-1,9.542205811E0,-9.474761963E0
2.275955476E0,-1.583862305E-1,9.525970459E0,-9.468780518E0
2.280990876E0,-1.704406738E-1,9.566375732E0,-9.461669922E0
2.286026276E0,-1.838836670E-1,9.590774536E0,-9.444503784E0
2.291061677E0,-1.803131104E-1,9.582305908E0,-9.452896118E0
2.296097077E0,-1.653900146E-1,9.541152954E0,-9.491607666E0
2.301132478E0,-1.996612549E-1,9.561355591E0,-9.496383667E0
2.306167878E0,-1.902770996E-1,9.558761597E0,-9.484756470E0
2.311203278E0,-2.036285400E-1,9.554870605E0,-9.469024658E0
2.316238679E0,-1.797485352E-1,9.559249878E0,-9.465957642E0
2.321274079E0,-1.470031738E-1,9.540618896E0,-9.414550781E0
2.326309479E0,-1.674957275E-1,9.555068970E0,-9.445877075E0
2.331344880E0,-1.814727783E-1,9.556991577E0,-9.440567017E0
2.336380280E0,-1.926574707E-1,9.548080444E0,-9.435943604E0
2.341415681E0,-1.752166748E-1,9.557632446E0,-9.464645386E0
2.346451081E0,-1.743774414E-1,9.568511963E0,-9.449829102E0
2.351486481E0,-1.869964600E-1,9.558776855E0,-9.458389282E0
2.356521882E0,-1.555175781E-1,9.570388794E0,-9.452301025E0
2.361557282E0,-1.404876709E-1,9.565170288E0,-9.451110840E0
2.366592683E0,-1.620941162E-1,9.538589478E0,-9.445938110E0
2.371628083E0,-1.682281494E-1,9.542297363E0,-9.442138672E0
2.376663483E0,-1.512756348E-1,9.544921875E0,-9.439193726E0
2.381698884E0,-1.697845459E-1,9.564407349E0,-9.460617065E0
2.386734284E0,-1.776428223E-1,9.566650391E0,-9.454681396E0
2.391769685E0,-1.530609131E-1,9.562942505E0,-9.409927368E0
2.396805085E0,-1.524505615E-1,9.551177979E0,-9.424850464E0
2.401840485E0,-1.672058105E-1,9.549591064E0,-9.462554932E0
2.406875886E0,-1.615295410E-1,9.570709229E0,-9.453994751E0
2.411911286E0,-1.340026855E-1,9.565948486E0,-9.450042725E0
2.416946687E0,-1.277465820E-1,9.550704956E0,-9.448684692E0
2.421982087E0,-1.268615723E-1,9.532043457E0,-9.429702759E0
2.427017487E0,-1.487579346E-1,9.550872803E0,-9.457092285E0
2.432052888E0,-1.591949463E-1,9.559875488E0,-9.417190552E0
2.437088288E0,-1.543731689E-1,9.547058105E0,-9.421127319E0
2.442123688E0,-1.511688232E-1,9.542327881E0,-9.420654297E0
2.447159089E0,-1.438140869E-1,9.568725586E0,-9.438705444E0
2.452194489E0,-1.375274658E-1,9.573684692E0,-9.447021484E0
2.457229890E0,-1.617584229E-1,9.574295044E0,-9.447326660E0
2.462265290E0,-1.357879639E-1,9.561904907E0,-9.434265137E0
2.467300690E0,-1.658325195E-1,9.531967163E0,-9.446563721E0
2.472336091E0,-1.741790771E-1,9.535858154E0,-9.470733643E0
2.477371491E0,-1.517639160E-1,9.547241211E0,-9.414505005E0
2.482406892E0,-1.363830566E-1,9.542037964E0,-9.462402344E0
2.487442292E0,-1.563568115E-1,9.541824341E0,-9.449310303E0
2.492477692E0,-1.604003906E-1,9.569107056E0,-9.456161499E0
2.497513093E0,-1.502227783E-1,9.554275513E0,-9.417175293E0
2.502548493E0,-1.440887451E-1,9.545516968E0,-9.437118530E0
2.507583894E0,-1.492767334E-1,9.574707031E0,-9.445251465E0
2.512619294E0,-1.443176270E-1,9.556045532E0,-9.443588257E0
2.517654694E0,-1.082611084E-1,9.572433472E0,-9.457656860E0
2.522690095E0,-1.571044922E-1,9.561035156E0,-9.443206787E0
2.527725495E0,-1.668090820E-1,9.567459106E0,-9.466278076E0
2.532760895E0,-1.391754150E-1,9.516983032E0,-9.430786133E0
2.537796296E0,-1.578979492E-1,9.565780640E0,-9.417877197E0
2.542831696E0,-1.577301025E-1,9.573089600E0,-9.445724487E0
2.547867097E0,-1.441497803E-1,9.555389404E0,-9.427902222E0
2.552902497E0,-1.613769531E-1,9.551956177E0,-9.433380127E0
2.557937897E0,-1.416778564E-1,9.531204224E0,-9.461242676E0
2.562973298E0,-1.919708252E-1,9.572219849E0,-9.448348999E0
2.568008698E0,-1.344757080E-1,9.568557739E0,-9.455062866E0
2.573044099E0,-1.385040283E-1,9.554229736E0,-9.443252563E0
2.578079499E0,-1.923522949E-1,9.568374634E0,-9.397628784E0
2.583114899E0,-1.440277100E-1,9.561370850E0,-9.377944946E0
2.588150300E0,-1.731719971E-1,9.561889648E0,-9.431777954E0
2.593185700E0,-1.459960938E-1,9.575180054E0,-9.442901611E0
2.598221101E0,-1.524963379E-1,9.562896729E0,-9.433166504E0
2.603256501E0,-1.482238770E-1,9.518875122E0,-9.386795044E0
2.608291901E0,-1.547698975E-1,9.575195312E0,-9.368820190E0
2.613327302E0,-1.905059814E-1,9.549438477E0,-9.393630981E0
2.618362702E0,-1.262664795E-1,9.573364258E0,-9.455947876E0
2.623398103E0,-1.608123779E-1,9.591430664E0,-9.399307251E0
2.628433503E0,-1.630401611E-1,9.583145142E0,-9.357009888E0
2.633468903E0,-1.465454102E-1,9.569427490E0,-9.456604004E0
2.638504304E0,-1.873321533E-1,9.562545776E0,-9.452056885E0
2.643539704E0,-1.711578369E-1,9.566802979E0,-9.397384644E0
2.648575104E0,-1.717376709E-1,9.565322876E0,-9.438491821E0
2.653610505E0,-1.490783691E-1,9.583633423E0,-9.432220459E0
2.658645905E0,-1.726684570E-1,9.546905518E0,-9.420822144E0
2.663681306E0,-1.381835938E-1,9.549987793E0,-9.459701538E0
2.668716706E0,-1.329803467E-1,9.580917358E0,-9.403808594E0
2.673752106E0,-1.528320312E-1,9.551879883E0,-9.357116699E0
2.678787507E0,-1.742095947E-1,9.556945801E0,-9.424301147E0
2.683822907E0,-1.650238037E-1,9.513351440E0,-9.424301147E0
2.688858308E0,-1.422576904E-1,9.529495239E0,-9.471267700E0
2.693893708E0,-1.628265381E-1,9.554458618E0,-9.414916992E0
2.698929108E0,-1.953277588E-1,9.549468994E0,-9.428543091E0
2.703964509E0,-1.828460693E-1,9.564941406E0,-9.474853516E0
2.708999909E0,-1.956939697E-1,9.587432861E0,-9.457183838E0
2.714035310E0,-2.051544189E-1,9.563507080E0,-9.428695679E0
2.719070710E0,-1.913757324E-1,9.541305542E0,-9.469268799E0
2.724106110E0,-1.670684814E-1,9.531875610E0,-9.414154053E0
2.729141511E0,-1.827087402E-1,9.554229736E0,-9.384231567E0
2.734176911E0,-1.942596436E-1,9.551376343E0,-9.415191650E0
2.739212312E0,-1.888885498E-1,9.546096802E0,-9.421493530E0
2.744247712E0,-2.018127441E-1,9.559906006E0,-9.414596558E0
2.749283112E0,-2.098083496E-1,9.546752930E0,-9.408294678E0
2.754318513E0,-2.294006348E-1,9.535568237E0,-9.439178467E0
2.759353913E0,-2.186584473E-1,9.549957275E0,-9.388351440E0
2.764389313E0,-2.100677490E-1,9.541168213E0,-9.394210815E0
2.769424714E0,-1.960906982E-1,9.555633545E0,-9.410278320E0
2.774460114E0,-2.028961182E-1,9.551849365E0,-9.401596069E0
2.779495515E0,-2.144622803E-1,9.541961670E0,-9.417495728E0
2.784530915E0,-1.899566650E-1,9.524139404E0,-9.441390991E0
2.789566315E0,-1.832122803E-1,9.545501709E0,-9.449096680E0
2.794601716E0,-1.987609863E-1,9.556671143E0,-9.440124512E0
2.799637116E0,-2.078552246E-1,9.521560669E0,-9.427001953E0
2.804672517E0,-2.071838379E-1,9.521072388E0,-9.398483276E0
2.809707917E0,-1.981506348E-1,9.550598145E0,-9.443038940E0
2.814743317E0,-2.047119141E-1,9.539901733E0,-9.440292358E0
2.819778718E0,-2.254486084E-1,9.537338257E0,-9.428909302E0
2.824814118E0,-1.979827881E-1,9.550659180E0,-9.381286621E0
2.829849519E0,-2.160797119E-1,9.551177979E0,-9.342605591E0
2.834884919E0,-2.276458740E-1,9.552551270E0,-9.388870239E0
2.839920319E0,-2.013244629E-1,9.552642822E0,-9.450958252E0
2.844955720E0,-1.956939697E-1,9.538986206E0,-9.418029785E0
2.849991120E0,-2.094726562E-1,9.552429199E0,-9.429244995E0
2.855026520E0,-2.213439941E-1,9.563034058E0,-9.428970337E0
2.860061921E0,-1.920166016E-1,9.560348511E0,-9.398101807E0
2.865097321E0,-2.255096436E-1,9.560699463E0,-9.426406860E0
2.870132722E0,-2.292327881E-1,9.587646484E0,-9.453125000E0
2.875168122E0,-2.366790771E-1,9.593505859E0,-9.445053101E0
2.880203522E0,-2.209472656E-1,9.543411255E0,-9.439056396E0
2.885238923E0,-2.183685303E-1,9.563003540E0,-9.432968140E0
2.890274323E0,-2.213134766E-1,9.571395874E0,-9.491165161E0
2.895309724E0,-1.800537109E-1,9.587966919E0,-9.410690308E0
2.900345124E0,-2.179412842E-1,9.602005005E0,-9.417144775E0
2.905380524E0,-2.151641846E-1,9.578582764E0,-9.465606689E0
2.910415925E0,-2.063446045E-1,9.539459229E0,-9.434417725E0
2.915451325E0,-2.112121582E-1,9.516677856E0,-9.483016968E0
2.920486726E0,-2.020111084E-1,9.567245483E0,-9.456207275E0
2.925522126E0,-2.233734131E-1,9.567291260E0,-9.362686157E0
2.930557526E0,-2.138824463E-1,9.559768677E0,-9.430877686E0
2.935592927E0,-2.316284180E-1,9.539657593E0,-9.391494751E0
2.940628327E0,-2.446136475E-1,9.548446655E0,-9.475326538E0
2.945663728E0,-2.390136719E-1,9.527404785E0,-9.426376343E0
2.950699128E0,-2.228546143E-1,9.534591675E0,-9.464279175E0
2.955734528E0,-2.082366943E-1,9.557815552E0,-9.444412231E0
2.960769929E0,-2.075347900E-1,9.563568115E0,-9.457000732E0
2.965805329E0,-2.075347900E-1,9.533554077E0,-9.418060303E0
2.970840729E0,-2.333984375E-1,9.589233398E0,-9.412353516E0
2.975876130E0,-2.170562744E-1,9.549468994E0,-9.438491821E0
2.980911530E0,-2.313232422E-1,9.549667358E0,-9.483184814E0
2.985946931E0,-2.288513184E-1,9.566177368E0,-9.441101074E0
2.990982331E0,-2.245483398E-1,9.568939209E0,-9.449340820E0
2.996017731E0,-2.339630127E-1,9.578887939E0,-9.423217773E0
3.001053132E0,-2.374725342E-1,9.550338745E0,-9.451705933E0
3.006088532E0,-2.244567871E-1,9.562347412E0,-9.467071533E0
3.011123933E0,-2.554931641E-1,9.542663574E0,-9.416534424E0
3.016159333E0,-2.316284180E-1,9.524169922E0,-9.505966187E0
3.021194733E0,-2.109832764E-1,9.550018311E0,-9.451690674E0
3.026230134E0,-2.033233643E-1,9.518478394E0,-9.477828979E0
3.031265534E0,-2.296600342E-1,9.532608032E0,-9.451477051E0
3.036300935E0,-2.608184814E-1,9.518234253E0,-9.447799683E0
3.041336335E0,-2.373504639E-1,9.540664673E0,-9.458999634E0
3.046371735E0,-2.280731201E-1,9.586914062E0,-9.392471313E0
3.051407136E0,-2.105407715E-1,9.549896240E0,-9.452239990E0
3.056442536E0,-2.085266113E-1,9.544662476E0,-9.431838989E0
3.061477937E0,-2.358093262E-1,9.526565552E0,-9.439773560E0
3.066513337E0,-2.465057373E-1,9.569778442E0,-9.434417725E0
3.071548737E0,-2.302246094E-1,9.581146240E0,-9.471038818E0
3.076584138E0,-2.432098389E-1,9.572052002E0,-9.484802246E0
3.081619538E0,-2.331237793E-1,9.558227539E0,-9.434722900E0
3.086654938E0,-2.521820068E-1,9.546829224E0,-9.417633057E0
3.091690339E0,-2.276763916E-1,9.533081055E0,-9.442947388E0
3.096725739E0,-2.458648682E-1,9.532592773E0,-9.520080566E0
3.101761140E0,-2.356567383E-1,9.550033569E0,-9.455886841E0
3.106796540E0,-2.296295166E-1,9.524353027E0,-9.454437256E0
3.111831940E0,-2.352142334E-1,9.555618286E0,-9.445587158E0
3.116867341E0,-2.292633057E-1,9.541076660E0,-9.447601318E0
3.121902741E0,-2.359008789E-1,9.557006836E0,-9.452148438E0
3.126938142E0,-2.242126465E-1,9.561676025E0,-9.450958252E0
3.131973542E0,-2.353057861E-1,9.541336060E0,-9.450653076E0
3.137008942E0,-2.546234131E-1,9.516128540E0,-9.437118530E0
3.142044343E0,-2.388916016E-1,9.523895264E0,-9.477966309E0
3.147079743E0,-2.384643555E-1,9.556961060E0,-9.488128662E0
3.152115144E0,-2.352142334E-1,9.555389404E0,-9.462402344E0
3.157150544E0,-2.324523926E-1,9.531723022E0,-9.455780029E0
3.162185944E0,-2.218170166E-1,9.555938721E0,-9.476577759E0
3.167221345E0,-2.363128662E-1,9.549850464E0,-9.475433350E0
3.172256745E0,-2.290039062E-1,9.539413452E0,-9.462509155E0
3.177292145E0,-2.433471680E-1,9.556533813E0,-9.468353271E0
3.182327546E0,-2.353820801E-1,9.547149658E0,-9.487319946E0
3.187362946E0,-2.210998535E-1,9.548202515E0,-9.465866089E0
3.192398347E0,-2.251281738E-1,9.536865234E0,-9.436691284E0
3.197433747E0,-2.113647461E-1,9.533264160E0,-9.451187134E0
3.202469147E0,-2.269592285E-1,9.536209106E0,-9.464050293E0
3.207504548E0,-2.469940186E-1,9.548904419E0,-9.443435669E0
3.212539948E0,-2.438049316E-1,9.551971436E0,-9.427139282E0
3.217575349E0,-2.380065918E-1,9.544219971E0,-9.480010986E0
3.222610749E0,-2.419433594E-1,9.533554077E0,-9.512649536E0
3.227646149E0,-2.381744385E-1,9.569747925E0,-9.474151611E0
3.232681550E0,-2.413177490E-1,9.571914673E0,-9.419357300E0
3.237716950E0,-2.487182617E-1,9.565170288E0,-9.462310791E0
3.242752351E0,-2.346191406E-1,9.554306030E0,-9.481414795E0
3.247787751E0,-2.153472900E-1,9.555114746E0,-9.491867065E0
3.252823151E0,-1.952056885E-1,9.534454346E0,-9.470932007E0
3.257858552E0,-2.101440430E-1,9.534927368E0,-9.459197998E0
3.262893952E0,-2.465515137E-1,9.561965942E0,-9.483627319E0
3.267929353E0,-2.316894531E-1,9.574325562E0,-9.493240356E0
3.272964753E0,-2.270812988E-1,9.558120728E0,-9.459930420E0
3.278000153E0,-2.075805664E-1,9.551849365E0,-9.453353882E0
3.283035554E0,-2.112731934E-1,9.555465698E0,-9.418930054E0
3.288070954E0,-2.275695801E-1,9.571319580E0,-9.420425415E0
3.293106354E0,-2.313385010E-1,9.556945801E0,-9.487762451E0
3.298141755E0,-2.199554443E-1,9.565124512E0,-9.474761963E0
3.303177155E0,-2.074279785E-1,9.572357178E0,-9.465118408E0
3.308212556E0,-2.169036865E-1,9.532165527E0,-9.425537109E0
3.313247956E0,-2.234191895E-1,9.519302368E0,-9.500473022E0
3.318283356E0,-2.362976074E-1,9.532623291E0,-9.486801147E0
3.323318757E0,-2.117462158E-1,9.555755615E0,-9.419616699E0
3.328354157E0,-2.117004395E-1,9.523696899E0,-9.451431274E0
3.333389558E0,-2.080993652E-1,9.560577393E0,-9.440704346E0
3.338424958E0,-2.096710205E-1,9.568252563E0,-9.466201782E0
3.343460358E0,-2.099151611E-1,9.549057007E0,-9.491043091E0
3.348495759E0,-2.231445312E-1,9.562515259E0,-9.420501709E0
3.353531159E0,-2.085723877E-1,9.527999878E0,-9.425857544E0
3.358566560E0,-2.142944336E-1,9.545898438E0,-9.444580078E0
3.363601960E0,-2.124023438E-1,9.574417114E0,-9.395507812E0
3.368637360E0,-2.284545898E-1,9.536422729E0,-9.425552368E0
3.373672761E0,-2.104949951E-1,9.544418335E0,-9.417343140E0
3.378708161E0,-2.146759033E-1,9.570892334E0,-9.424209595E0
3.383743562E0,-1.961669922E-1,9.554199219E0,-9.525482178E0
3.388778962E0,-2.380218506E-1,9.551849365E0,-9.439422607E0
3.393814362E0,-2.190093994E-1,9.550628662E0,-9.476577759E0
3.398849763E0,-2.087707520E-1,9.519546509E0,-9.473175049E0
3.403885163E0,-2.359619141E-1,9.542755127E0,-9.401519775E0
3.408920563E0,-2.302246094E-1,9.550155640E0,-9.454452515E0
3.413955964E0,-1.867370605E-1,9.555709839E0,-9.448287964E0
3.418991364E0,-1.941986084E-1,9.523941040E0,-9.476104736E0
3.424026765E0,-2.035675049E-1,9.555526733E0,-9.466033936E0
3.429062165E0,-2.131347656E-1,9.581954956E0,-9.420898438E0
3.434097565E0,-2.312927246E-1,9.560272217E0,-9.436798096E0
3.439132966E0,-2.035522461E-1,9.566757202E0,-9.474960327E0
3.444168366E0,-2.244873047E-1,9.564956665E0,-9.484115601E0
3.449203767E0,-2.335815430E-1,9.605697632E0,-9.437332153E0
3.454239167E0,-2.094879150E-1,9.588180542E0,-9.452011108E0
3.459274567E0,-2.094116211E-1,9.579010010E0,-9.481033325E0
3.464309968E0,-2.116088867E-1,9.572769165E0,-9.444839478E0
3.469345368E0,-1.956176758E-1,9.569305420E0,-9.455169678E0
3.474380769E0,-2.061920166E-1,9.559860229E0,-9.439590454E0
3.479416169E0,-1.826171875E-1,9.544158936E0,-9.443252563E0
3.484451569E0,-1.890106201E-1,9.536407471E0,-9.456741333E0
3.489486970E0,-2.352752686E-1,9.538650513E0,-9.476974487E0
3.494522370E0,-2.212066650E-1,9.541229248E0,-9.421203613E0
3.499557770E0,-2.005310059E-1,9.547485352E0,-9.426467896E0
3.504593171E0,-1.939544678E-1,9.532226562E0,-9.460128784E0
3.509628571E0,-2.147827148E-1,9.552398682E0,-9.426895142E0
3.514663972E0,-2.122955322E-1,9.546401978E0,-9.438323975E0
3.519699372E0,-2.154235840E-1,9.527725220E0,-9.469589233E0
3.524734772E0,-1.945190430E-1,9.553894043E0,-9.428115845E0
3.529770173E0,-1.798400879E-1,9.555221558E0,-9.414321899E0
3.534805573E0,-2.126464844E-1,9.573272705E0,-9.399597168E0
3.539840974E0,-2.021179199E-1,9.553634644E0,-9.394973755E0
3.544876374E0,-2.078857422E-1,9.535812378E0,-9.398818970E0
3.549911774E0,-2.374725342E-1,9.549255371E0,-9.440475464E0
3.554947175E0,-2.112731934E-1,9.553558350E0,-9.414627075E0
3.559982575E0,-1.856842041E-1,9.557983398E0,-9.394470215E0
3.565017976E0,-1.919250488E-1,9.547943115E0,-9.430023193E0
3.570053376E0,-2.107238770E-1,9.551849365E0,-9.428970337E0
3.575088776E0,-1.889038086E-1,9.554122925E0,-9.437255859E0
3.580124177E0,-1.906585693E-1,9.537918091E0,-9.443679810E0
3.585159577E0,-2.207489014E-1,9.523300171E0,-9.424224854E0
3.590194978E0,-2.139587402E-1,9.543991089E0,-9.444915771E0
3.595230378E0,-1.908721924E-1,9.570281982E0,-9.432281494E0
3.600265778E0,-1.985931396E-1,9.566268921E0,-9.424240112E0
3.605301179E0,-1.801910400E-1,9.572616577E0,-9.427963257E0
3.610336579E0,-1.773986816E-1,9.566055298E0,-9.392578125E0
3.615371979E0,-1.991119385E-1,9.557693481E0,-9.400665283E0
3.620407380E0,-2.135772705E-1,9.555328369E0,-9.465286255E0
3.625442780E0,-2.094268799E-1,9.538009644E0,-9.449813843E0
3.630478181E0,-2.086181641E-1,9.543563843E0,-9.428207397E0
3.635513581E0,-1.988983154E-1,9.538436890E0,-9.432235718E0
3.640548981E0,-1.939239502E-1,9.550155640E0,-9.440460205E0
3.645584382E0,-1.847991943E-1,9.555175781E0,-9.431686401E0
3.650619782E0,-1.915893555E-1,9.580230713E0,-9.449432373E0
3.655655183E0,-1.883850098E-1,9.578628540E0,-9.446228027E0
3.660690583E0,-2.050018311E-1,9.569244385E0,-9.436843872E0
3.665725983E0,-2.030334473E-1,9.571838379E0,-9.432769775E0
3.670761384E0,-1.895446777E-1,9.583435059E0,-9.416091919E0
3.675796784E0,-1.963348389E-1,9.522857666E0,-9.437164307E0
3.680832185E0,-2.091827393E-1,9.511138916E0,-9.430450439E0
3.685867585E0,-2.158660889E-1,9.546493530E0,-9.452774048E0
3.690902985E0,-1.971435547E-1,9.560226440E0,-9.447799683E0
3.695938386E0,-2.074432373E-1,9.550323486E0,-9.435882568E0
3.700973786E0,-2.029571533E-1,9.562042236E0,-9.422500610E0
3.706009187E0,-2.098999023E-1,9.537643433E0,-9.442214966E0
3.711044587E0,-2.006683350E-1,9.538177490E0,-9.422790527E0
3.716079987E0,-1.901855469E-1,9.575210571E0,-9.432739258E0
3.721115388E0,-2.202758789E-1,9.556961060E0,-9.416244507E0
3.726150788E0,-2.165069580E-1,9.533706665E0,-9.418350220E0
3.731186188E0,-1.840209961E-1,9.577438354E0,-9.468505859E0
3.736221589E0,-2.017822266E-1,9.585174561E0,-9.420578003E0
3.741256989E0,-2.030487061E-1,9.555541992E0,-9.444030762E0
3.746292390E0,-1.750488281E-1,9.545440674E0,-9.375457764E0
3.751327790E0,-1.739959717E-1,9.557662964E0,-9.412460327E0
3.756363190E0,-1.523132324E-1,9.532699585E0,-9.410491943E0
3.761398591E0,-1.837158203E-1,9.561492920E0,-9.387725830E0
3.766433991E0,-2.108612061E-1,9.532257080E0,-9.435592651E0
3.771469392E0,-1.781311035E-1,9.560028076E0,-9.443038940E0
3.776504792E0,-2.411956787E-1,9.552139282E0,-9.424789429E0
3.781540192E0,-1.661376953E-1,9.582214355E0,-9.424209595E0
3.786575593E0,-1.552276611E-1,9.582794189E0,-9.471511841E0
3.791610993E0,-1.932525635E-1,9.551986694E0,-9.445632935E0
3.796646394E0,-1.910552979E-1,9.574905396E0,-9.447341919E0
3.801681794E0,-1.997375488E-1,9.537292480E0,-9.412811279E0
3.806717194E0,-1.812286377E-1,9.602783203E0,-9.429779053E0
3.811752595E0,-2.293701172E-1,9.570495605E0,-9.445114136E0
3.816787995E0,-1.961212158E-1,9.563903809E0,-9.400131226E0
3.821823395E0,-2.012634277E-1,9.560424805E0,-9.459060669E0
3.826858796E0,-1.846160889E-1,9.496688843E0,-9.424224854E0
3.831894196E0,-1.952514648E-1,9.518371582E0,-9.446517944E0
3.836929597E0,-2.089691162E-1,9.536453247E0,-9.430389404E0
3.841964997E0,-1.858825684E-1,9.529876709E0,-9.411285400E0
3.847000397E0,-2.030944824E-1,9.549713135E0,-9.454788208E0
3.852035798E0,-2.172546387E-1,9.589935303E0,-9.461212158E0
3.857071198E0,-2.035827637E-1,9.557434082E0,-9.428176880E0
3.862106599E0,-1.960601807E-1,9.525665283E0,-9.429702759E0
3.867141999E0,-2.002868652E-1,9.531082153E0,-9.449264526E0
3.872177399E0,-2.075195312E-1,9.551330566E0,-9.428543091E0
3.877212800E0,-2.021026611E-1,9.532791138E0,-9.451751709E0
3.882248200E0,-2.159881592E-1,9.515258789E0,-9.465545654E0
3.887283601E0,-2.048492432E-1,9.546417236E0,-9.435531616E0
3.892319001E0,-1.813507080E-1,9.554275513E0,-9.427627563E0
3.897354401E0,-1.901550293E-1,9.561370850E0,-9.420593262E0
3.902389802E0,-2.087707520E-1,9.564651489E0,-9.459579468E0
3.907425202E0,-1.843414307E-1,9.572586060E0,-9.476165771E0
3.912460603E0,-1.759948730E-1,9.570159912E0,-9.451049805E0
3.917496003E0,-2.014617920E-1,9.558639526E0,-9.443695068E0
3.922531403E0,-1.830139160E-1,9.544616699E0,-9.431686401E0
3.927566804E0,-1.766510010E-1,9.556579590E0,-9.407943726E0
3.932602204E0,-1.802520752E-1,9.551849365E0,-9.457443237E0
3.937637604E0,-1.948699951E-1,9.550094604E0,-9.424835205E0
3.942673005E0,-2.339630127E-1,9.561569214E0,-9.410049438E0
3.947708405E0,-2.219085693E-1,9.571151733E0,-9.416107178E0
3.952743806E0,-1.925201416E-1,9.543685913E0,-9.458999634E0
3.957779206E0,-1.658935547E-1,9.557022095E0,-9.453750610E0
3.962814606E0,-1.843719482E-1,9.582473755E0,-9.441528320E0
3.967850007E0,-2.053222656E-1,9.559997559E0,-9.443542480E0
3.972885407E0,-1.973876953E-1,9.546417236E0,-9.428970337E0
3.977920808E0,-1.919403076E-1,9.547637939E0,-9.442092896E0
3.982956208E0,-1.975555420E-1,9.543304443E0,-9.457336426E0
3.987991608E0,-1.930847168E-1,9.550582886E0,-9.415115356E0
3.993027009E0,-2.039794922E-1,9.568588257E0,-9.454345703E0
3.998062409E0,-2.174224854E-1,9.554565430E0,-9.477783203E0
4.003097810E0,-2.126464844E-1,9.544357300E0,-9.408218384E0
4.008133210E0,-2.198638916E-1,9.552551270E0,-9.423950195E0
4.013168610E0,-2.437438965E-1,9.552337646E0,-9.453094482E0
4.018204011E0,-2.345733643E-1,9.574066162E0,-9.446975708E0
4.023239411E0,-2.187194824E-1,9.579315186E0,-9.464477539E0
4.028274812E0,-2.034606934E-1,9.566253662E0,-9.458343506E0
4.033310212E0,-2.171020508E-1,9.558502197E0,-9.444198608E0
4.038345612E0,-2.196655273E-1,9.558059692E0,-9.440322876E0
4.043381013E0,-1.944274902E-1,9.538131714E0,-9.416137695E0
4.048416413E0,-1.913299561E-1,9.543884277E0,-9.443786621E0
4.053451813E0,-2.343444824E-1,9.557312012E0,-9.474792480E0
4.058487214E0,-2.299194336E-1,9.552673340E0,-9.491561890E0
4.063522614E0,-2.122497559E-1,9.549468994E0,-9.438552856E0
4.068558015E0,-2.050170898E-1,9.554367065E0,-9.440994263E0
4.073593415E0,-2.044525146E-1,9.571578979E0,-9.465133667E0
4.078628815E0,-2.221069336E-1,9.533981323E0,-9.394897461E0
4.083664216E0,-2.255249023E-1,9.536819458E0,-9.426727295E0
4.088699616E0,-2.277069092E-1,9.560470581E0,-9.434616089E0
4.093735017E0,-2.182769775E-1,9.553649902E0,-9.427185059E0
4.098770417E0,-2.401885986E-1,9.551284790E0,-9.395614624E0
4.103805817E0,-2.295684814E-1,9.551849365E0,-9.406387329E0
4.108841218E0,-1.999053955E-1,9.559326172E0,-9.475860596E0
4.113876618E0,-2.160339355E-1,9.540481567E0,-9.443878174E0
4.118912019E0,-2.218170166E-1,9.546737671E0,-9.421707153E0
4.123947419E0,-2.218170166E-1,9.565216064E0,-9.417465210E0
4.128982819E0,-2.278289795E-1,9.530487061E0,-9.407058716E0
4.134018220E0,-2.086639404E-1,9.553726196E0,-9.431549072E0
4.139053620E0,-1.990203857E-1,9.563079834E0,-9.432006836E0
4.144089020E0,-2.230529785E-1,9.565826416E0,-9.427169800E0
4.149124421E0,-1.887054443E-1,9.568222046E0,-9.464462280E0
4.154159821E0,-1.966094971E-1,9.553482056E0,-9.426528931E0
4.159195222E0,-2.437133789E-1,9.554016113E0,-9.423995972E0
4.164230622E0,-2.281646729E-1,9.543197632E0,-9.472717285E0
4.169266022E0,-2.064819336E-1,9.531143188E0,-9.463165283E0
4.174301423E0,-2.028961182E-1,9.564376831E0,-9.457763672E0
4.179336823E0,-2.096557617E-1,9.552368164E0,-9.423141479E0
4.184372224E0,-2.238616943E-1,9.568099976E0,-9.407882690E0
4.189407624E0,-2.194976807E-1,9.537933350E0,-9.386383057E0
4.194443024E0,-2.289581299E-1,9.578033447E0,-9.428970337E0
4.199478425E0,-1.986083984E-1,9.563339233E0,-9.505050659E0
4.204513825E0,-2.449340820E-1,9.530715942E0,-9.498336792E0
4.209549226E0,-2.169799805E-1,9.543457031E0,-9.508071899E0
4.214584626E0,-2.150268555E-1,9.571395874E0,-9.401062012E0
4.219620026E0,-2.210998535E-1,9.535476685E0,-9.459762573E0
4.224655427E0,-2.100982666E-1,9.539764404E0,-9.456130981E0
4.229690827E0,-2.137298584E-1,9.541641235E0,-9.438491821E0
4.234726228E0,-2.263946533E-1,9.582824707E0,-9.441757202E0
4.239761628E0,-2.041015625E-1,9.557418823E0,-9.475494385E0
4.244797028E0,-2.155609131E-1,9.525665283E0,-9.497833252E0
4.249832429E0,-2.211761475E-1,9.528869629E0,-9.451400757E0
4.254867829E0,-2.212677002E-1,9.545608521E0,-9.490921021E0
4.259903229E0,-2.452545166E-1,9.528594971E0,-9.487289429E0
4.264938630E0,-2.399749756E-1,9.552520752E0,-9.396118164E0
4.269974030E0,-2.272644043E-1,9.535858154E0,-9.413864136E0
4.275009431E0,-2.347869873E-1,9.543380737E0,-9.426208496E0
4.280044831E0,-2.094268799E-1,9.523422241E0,-9.408599854E0
4.285080231E0,-2.050323486E-1,9.542816162E0,-9.434890747E0
4.290115632E0,-1.928710938E-1,9.550247192E0,-9.459854126E0
4.295151032E0,-1.965942383E-1,9.565582275E0,-9.393615723E0
4.300186433E0,-2.385559082E-1,9.557830811E0,-9.433792114E0
4.305221833E0,-2.417449951E-1,9.552307129E0,-9.440216064E0
4.310257233E0,-2.286224365E-1,9.536224365E0,-9.460311890E0
4.315292634E0,-2.155151367E-1,9.549591064E0,-9.482406616E0
4.320328034E0,-2.128143311E-1,9.536453247E0,-9.430709839E0
4.325363435E0,-2.340393066E-1,9.553054810E0,-9.471008301E0
4.330398835E0,-2.273254395E-1,9.576400757E0,-9.443191528E0
4.335434235E0,-2.309112549E-1,9.590011597E0,-9.449127197E0
4.340469636E0,-2.135314941E-1,9.569854736E0,-9.427627563E0
4.345505036E0,-2.145690918E-1,9.540557861E0,-9.447738647E0
4.350540437E0,-1.934967041E-1,9.557968140E0,-9.474533081E0
4.355575837E0,-2.020111084E-1,9.554046631E0,-9.479888916E0
4.360611237E0,-2.265777588E-1,9.571411133E0,-9.482299805E0
4.365646638E0,-2.245635986E-1,9.565567017E0,-9.475646973E0
4.370682038E0,-2.310943604E-1,9.544631958E0,-9.444061279E0
4.375717438E0,-2.432403564E-1,9.551040649E0,-9.433990479E0
4.380752839E0,-2.202453613E-1,9.553359985E0,-9.451858521E0
4.385788239E0,-2.033843994E-1,9.542922974E0,-9.455871582E0
4.390823640E0,-2.285308838E-1,9.559997559E0,-9.448516846E0
4.395859040E0,-2.397003174E-1,9.581497192E0,-9.431350708E0
4.400894440E0,-2.324676514E-1,9.594650269E0,-9.449523926E0
4.405929841E0,-2.128295898E-1,9.568725586E0,-9.454635620E0
4.410965241E0,-2.069091797E-1,9.547088623E0,-9.435623169E0
4.416000642E0,-2.263793945E-1,9.540588379E0,-9.440658569E0
4.421036042E0,-2.268066406E-1,9.537841797E0,-9.433105469E0
4.426071442E0,-2.153625488E-1,9.563034058E0,-9.472412109E0
4.431106843E0,-2.150726318E-1,9.560989380E0,-9.444305420E0
4.436142243E0,-2.326507568E-1,9.544250488E0,-9.436721802E0
4.441177644E0,-2.085571289E-1,9.552444458E0,-9.454544067E0
4.446213044E0,-2.111968994E-1,9.560455322E0,-9.453903198E0
4.451248444E0,-2.205657959E-1,9.573394775E0,-9.437973022E0
4.456283845E0,-2.231903076E-1,9.545135498E0,-9.408187866E0
4.461319245E0,-2.047119141E-1,9.541290283E0,-9.443328857E0
4.466354645E0,-1.932525635E-1,9.554229736E0,-9.475006104E0
4.471390046E0,-2.046051025E-1,9.540390015E0,-9.383316040E0
4.476425446E0,-1.884765625E-1,9.534454346E0,-9.411117554E0
4.481460847E0,-2.092132568E-1,9.567092896E0,-9.507064819E0
4.486496247E0,-2.406158447E-1,9.565032959E0,-9.448272705E0
4.491531647E0,-2.184600830E-1,9.553771973E0,-9.414688110E0
4.496567048E0,-2.199096680E-1,9.588943481E0,-9.442947388E0
4.501602448E0,-2.188110352E-1,9.569503784E0,-9.406066895E0
4.506637849E0,-2.407989502E-1,9.571762085E0,-9.434692383E0
4.511673249E0,-2.331695557E-1,9.562667847E0,-9.377532959E0
4.516708649E0,-1.912841797E-1,9.538253784E0,-9.453628540E0
4.521744050E0,-2.177124023E-1,9.563400269E0,-9.413909912E0
4.526779450E0,-2.227020264E-1,9.547576904E0,-9.417434692E0
4.531814851E0,-2.356262207E-1,9.542327881E0,-9.441543579E0
4.536850251E0,-2.364807129E-1,9.560333252E0,-9.413619995E0
4.541885651E0,-2.360992432E-1,9.565780640E0,-9.435958862E0
4.546921052E0,-2.113952637E-1,9.537292480E0,-9.385269165E0
4.551956452E0,-2.242431641E-1,9.526535034E0,-9.426712036E0
4.556991853E0,-2.265777588E-1,9.555297852E0,-9.490890503E0
4.562027253E0,-1.943817139E-1,9.554687500E0,-9.450759888E0
4.567062653E0,-2.191619873E-1,9.521575928E0,-9.449981689E0
4.572098054E0,-2.306518555E-1,9.536163330E0,-9.417312622E0
4.577133454E0,-2.291107178E-1,9.539794922E0,-9.481704712E0
4.582168854E0,-1.791687012E-1,9.524093628E0,-9.395553589E0
4.587204255E0,-2.015075684E-1,9.570846558E0,-9.433914185E0
4.592239655E0,-2.259979248E-1,9.582550049E0,-9.396636963E0
4.597275056E0,-2.218780518E-1,9.545166016E0,-9.372131348E0
4.602310456E0,-2.289581299E-1,9.563751221E0,-9.462295532E0
4.607345856E0,-2.072143555E-1,9.542648315E0,-9.409362793E0
4.612381257E0,-1.829986572E-1,9.567459106E0,-9.367141724E0
4.617416657E0,-2.466125488E-1,9.526443481E0,-9.464233398E0
4.622452058E0,-2.087554932E-1,9.547424316E0,-9.451370239E0
4.627487458E0,-1.855316162E-1,9.553924561E0,-9.427993774E0
4.632522858E0,-1.779937744E-1,9.548583984E0,-9.485916138E0
4.637558259E0,-2.015686035E-1,9.537765503E0,-9.482482910E0
4.642593659E0,-2.583618164E-1,9.542739868E0,-9.463821411E0
4.647629060E0,-2.014465332E-1,9.568237305E0,-9.413619995E0
4.652664460E0,-2.093353271E-1,9.562332153E0,-9.419235229E0
4.657699860E0,-2.051544189E-1,9.535827637E0,-9.388229370E0
4.662735261E0,-2.034149170E-1,9.539596558E0,-9.422668457E0
4.667770661E0,-1.913604736E-1,9.531478882E0,-9.455902100E0
4.672806062E0,-1.838073730E-1,9.507644653E0,-9.448455811E0
4.677841462E0,-1.978302002E-1,9.543579102E0,-9.408157349E0
4.682876862E0,-1.986694336E-1,9.538314819E0,-9.472793579E0
4.687912263E0,-1.643066406E-1,9.577926636E0,-9.469528198E0
4.692947663E0,-1.907653809E-1,9.563766479E0,-9.474746704E0
4.697983063E0,-2.475433350E-1,9.543197632E0,-9.464340210E0
4.703018464E0,-2.065124512E-1,9.528076172E0,-9.472518921E0
4.708053864E0,-1.856536865E-1,9.538070679E0,-9.449081421E0
4.713089265E0,-1.967315674E-1,9.584976196E0,-9.437835693E0
4.718124665E0,-1.932525635E-1,9.562576294E0,-9.445510864E0
4.723160065E0,-1.953582764E-1,9.541503906E0,-9.463821411E0
4.728195466E0,-2.003936768E-1,9.573486328E0,-9.438705444E0
4.733230866E0,-1.973571777E-1,9.556198120E0,-9.419891357E0
4.738266267E0,-1.908721924E-1,9.561447144E0,-9.429794312E0
4.743301667E0,-1.949615479E-1,9.536880493E0,-9.420333862E0
4.748337067E0,-1.968536377E-1,9.544708252E0,-9.443527222E0
4.753372468E0,-1.967010498E-1,9.538528442E0,-9.475952148E0
4.758407868E0,-1.991424561E-1,9.533523560E0,-9.486267090E0
4.763443269E0,-1.835632324E-1,9.536712646E0,-9.483978271E0
4.768478669E0,-1.874237061E-1,9.553100586E0,-9.448791504E0
4.773514069E0,-1.827545166E-1,9.581985474E0,-9.461730957E0
4.778549470E0,-2.278442383E-1,9.566772461E0,-9.488998413E0
4.783584870E0,-2.585296631E-1,9.574157715E0,-9.455078125E0
4.788620270E0,-2.338562012E-1,9.565979004E0,-9.420379639E0
4.793655671E0,-1.981964111E-1,9.539779663E0,-9.415451050E0
4.798691071E0,-1.914062500E-1,9.561691284E0,-9.452255249E0
4.803726472E0,-2.028656006E-1,9.566436768E0,-9.437805176E0
4.808761872E0,-1.956176758E-1,9.537414551E0,-9.425582886E0
4.813797272E0,-2.019500732E-1,9.548004150E0,-9.452041626E0
4.818832673E0,-2.048645020E-1,9.560928345E0,-9.452178955E0
4.823868073E0,-1.888427734E-1,9.543945312E0,-9.443252563E0
4.828903474E0,-1.776580811E-1,9.531234741E0,-9.439300537E0
4.833938874E0,-1.833190918E-1,9.556243896E0,-9.445510864E0
4.838974274E0,-1.871185303E-1,9.543502808E0,-9.451385498E0
4.844009675E0,-2.116088867E-1,9.529846191E0,-9.441894531E0
4.849045075E0,-1.815490723E-1,9.537567139E0,-9.440414429E0
4.854080476E0,-2.015228271E-1,9.559463501E0,-9.459304810E0
4.859115876E0,-2.069091797E-1,9.546447754E0,-9.464965820E0
4.864151276E0,-1.954345703E-1,9.530426025E0,-9.448623657E0
4.869186677E0,-1.964569092E-1,9.552230835E0,-9.461105347E0
4.874222077E0,-1.924591064E-1,9.568511963E0,-9.470214844E0
4.879257478E0,-1.941223145E-1,9.566024780E0,-9.477539062E0
4.884292878E0,-2.071990967E-1,9.570343018E0,-9.461532593E0
4.889328278E0,-1.991119385E-1,9.538635254E0,-9.452774048E0
4.894363679E0,-1.932525635E-1,9.570770264E0,-9.439193726E0
4.899399079E0,-2.054290771E-1,9.563858032E0,-9.473693848E0
4.904434479E0,-2.046203613E-1,9.545379639E0,-9.442535400E0
4.909469880E0,-2.225341797E-1,9.554901123E0,-9.505615234E0
4.914505280E0,-2.180175781E-1,9.540725708E0,-9.463775635E0
4.919540681E0,-2.017059326E-1,9.564849854E0,-9.424697876E0
4.924576081E0,-1.848297119E-1,9.580795288E0,-9.443923950E0
4.929611481E0,-1.775360107E-1,9.559829712E0,-9.404479980E0
4.934646882E0,-1.902008057E-1,9.544509888E0,-9.441818237E0
4.939682282E0,-2.070617676E-1,9.550201416E0,-9.474456787E0
4.944717683E0,-1.899108887E-1,9.533828735E0,-9.444946289E0
4.949753083E0,-1.881561279E-1,9.556808472E0,-9.483139038E0
4.954788483E0,-1.617279053E-1,9.544891357E0,-9.503204346E0
4.959823884E0,-1.763458252E-1,9.540237427E0,-9.488433838E0
4.964859284E0,-1.874542236E-1,9.531463623E0,-9.509384155E0
4.969894685E0,-2.314300537E-1,9.528274536E0,-9.415679932E0
4.974930085E0,-2.056427002E-1,9.588958740E0,-9.437805176E0
4.979965485E0,-2.204284668E-1,9.561614990E0,-9.469528198E0
4.985000886E0,-1.994781494E-1,9.565689087E0,-9.433822632E0
4.990036286E0,-2.274475098E-1,9.586502075E0,-9.476608276E0
4.995071687E0,-2.358398438E-1,9.569198608E0,-9.483535767E0
5.000107087E0,-1.850280762E-1,9.573150635E0,-9.476745605E0
5.005142487E0,-2.237091064E-1,9.556808472E0,-9.398986816E0
5.010177888E0,-1.884918213E-1,9.561370850E0,-9.455154419E0
5.015213288E0,-1.815643311E-1,9.556976318E0,-9.462432861E0
5.020248688E0,-1.985473633E-1,9.586380005E0,-9.473892212E0
5.025284089E0,-2.197875977E-1,9.539596558E0,-9.461242676E0
5.030319489E0,-2.282714844E-1,9.531585693E0,-9.436996460E0
5.035354890E0,-2.156982422E-1,9.554519653E0,-9.495407104E0
5.040390290E0,-2.294158936E-1,9.558456421E0,-9.420318604E0
5.045425690E0,-2.061767578E-1,9.553070068E0,-9.430938721E0
5.050461091E0,-2.165985107E-1,9.566131592E0,-9.434753418E0
5.055496491E0,-2.080993652E-1,9.567703247E0,-9.503067017E0
5.060531892E0,-1.771392822E-1,9.576019287E0,-9.443328857E0
5.065567292E0,-2.002716064E-1,9.546310425E0,-9.421478271E0
5.070602692E0,-2.129364014E-1,9.559753418E0,-9.492813110E0
5.075638093E0,-2.069549561E-1,9.569671631E0,-9.475051880E0
5.080673493E0,-2.248840332E-1,9.528518677E0,-9.458877563E0
5.085708894E0,-2.091064453E-1,9.541885376E0,-9.416809082E0
5.090744294E0,-2.289276123E-1,9.539947510E0,-9.404693604E0
5.095779694E0,-2.295532227E-1,9.542922974E0,-9.424621582E0
5.100815095E0,-2.040557861E-1,9.544754028E0,-9.494369507E0
5.105850495E0,-2.287292480E-1,9.515808105E0,-9.450225830E0
5.110885895E0,-2.163848877E-1,9.528076172E0,-9.459274292E0
5.115921296E0,-2.209930420E-1,9.538681030E0,-9.456085205E0
5.120956696E0,-2.018737793E-1,9.574508667E0,-9.439697266E0
5.125992097E0,-2.149963379E-1,9.532806396E0,-9.458923340E0
5.131027497E0,-2.351379395E-1,9.532104492E0,-9.435668945E0
5.136062897E0,-2.444152832E-1,9.541366577E0,-9.410614014E0
5.141098298E0,-2.008514404E-1,9.560043335E0,-9.429168701E0
5.146133698E0,-2.304687500E-1,9.549453735E0,-9.424179077E0
5.151169099E0,-2.526245117E-1,9.555862427E0,-9.437805176E0
5.156204499E0,-2.271575928E-1,9.559829712E0,-9.438842773E0
5.161239899E0,-1.945190430E-1,9.559616089E0,-9.418701172E0
5.166275300E0,-2.011718750E-1,9.556610107E0,-9.411499023E0
5.171310700E0,-2.190246582E-1,9.559402466E0,-9.415283203E0
5.176346101E0,-2.330017090E-1,9.564712524E0,-9.419616699E0
5.181381501E0,-2.469940186E-1,9.565124512E0,-9.468673706E0
5.186416901E0,-2.310028076E-1,9.554550171E0,-9.489120483E0
5.191452302E0,-2.461853027E-1,9.564132690E0,-9.423126221E0
5.196487702E0,-2.337341309E-1,9.584899902E0,-9.383209229E0
5.201523103E0,-2.199249268E-1,9.565795898E0,-9.417922974E0
5.206558503E0,-2.377014160E-1,9.559875488E0,-9.454330444E0
5.211593903E0,-2.219543457E-1,9.553268433E0,-9.442596436E0
5.216629304E0,-2.482147217E-1,9.535156250E0,-9.438644409E0
5.221664704E0,-2.469940186E-1,9.540237427E0,-9.429092407E0
5.226700104E0,-2.197113037E-1,9.565780640E0,-9.400665283E0
5.231735505E0,-2.241973877E-1,9.553421021E0,-9.430862427E0
5.236770905E0,-2.202606201E-1,9.546188354E0,-9.461959839E0
5.241806306E0,-2.439270020E-1,9.557632446E0,-9.455993652E0
5.246841706E0,-2.358398438E-1,9.537384033E0,-9.440139771E0
5.251877106E0,-2.259063721E-1,9.533096313E0,-9.451522827E0
5.256912507E0,-2.179870605E-1,9.529922485E0,-9.439392090E0
5.261947907E0,-2.309112549E-1,9.543716431E0,-9.400833130E0
5.266983308E0,-2.560577393E-1,9.565536499E0,-9.415908813E0
5.272018708E0,-2.303924561E-1,9.551147461E0,-9.432205200E0
5.277054108E0,-2.122955322E-1,9.533752441E0,-9.420501709E0
5.282089509E0,-2.122955322E-1,9.546188354E0,-9.413101196E0
5.287124909E0,-2.187347412E-1,9.555831909E0,-9.449249268E0
5.292160310E0,-2.528991699E-1,9.563140869E0,-9.481765747E0
5.297195710E0,-2.437438965E-1,9.557800293E0,-9.425216675E0
5.302231110E0,-2.438964844E-1,9.540664673E0,-9.389541626E0
5.307266511E0,-2.359466553E-1,9.545516968E0,-9.422302246E0
5.312301911E0,-2.260894775E-1,9.551208496E0,-9.422088623E0
5.317337312E0,-2.170715332E-1,9.541152954E0,-9.420623779E0
5.322372712E0,-2.291717529E-1,9.557479858E0,-9.434494019E0
5.327408112E0,-2.263641357E-1,9.561904907E0,-9.420089722E0
5.332443513E0,-2.372894287E-1,9.552017212E0,-9.395980835E0
5.337478913E0,-2.465667725E-1,9.558959961E0,-9.432647705E0
5.342514313E0,-1.863250732E-1,9.544021606E0,-9.416259766E0
5.347549714E0,-2.403259277E-1,9.543853760E0,-9.451019287E0
5.352585114E0,-2.174072266E-1,9.540725708E0,-9.388412476E0
5.357620515E0,-2.220153809E-1,9.543975830E0,-9.448776245E0
5.362655915E0,-2.446441650E-1,9.548782349E0,-9.409133911E0
5.367691315E0,-2.687530518E-1,9.545318604E0,-9.427352905E0
5.372726716E0,-2.549896240E-1,9.567825317E0,-9.401901245E0
5.377762116E0,-2.165222168E-1,9.566619873E0,-9.387359619E0
5.382797517E0,-2.187805176E-1,9.529388428E0,-9.420700073E0
5.387832917E0,-2.391662598E-1,9.556320190E0,-9.376007080E0
5.392868317E0,-2.120056152E-1,9.539001465E0,-9.422882080E0
5.397903718E0,-2.773895264E-1,9.557800293E0,-9.397338867E0
5.402939118E0,-2.425994873E-1,9.545318604E0,-9.425247192E0
5.407974519E0,-2.154846191E-1,9.540084839E0,-9.398895264E0
5.413009919E0,-2.100067139E-1,9.563308716E0,-9.391006470E0
5.418045319E0,-2.406768799E-1,9.556640625E0,-9.428726196E0
5.423080720E0,-2.407531738E-1,9.570739746E0,-9.424728394E0
5.428116120E0,-2.229156494E-1,9.546951294E0,-9.509368896E0
5.433151520E0,-2.791442871E-1,9.540603638E0,-9.478118896E0
5.438186921E0,-2.118682861E-1,9.561767578E0,-9.378631592E0
5.443222321E0,-2.529144287E-1,9.570755005E0,-9.423156738E0
5.448257722E0,-2.187042236E-1,9.570587158E0,-9.406768799E0
5.453293122E0,-2.717285156E-1,9.592239380E0,-9.429336548E0
5.458328522E0,-2.460937500E-1,9.513809204E0,-9.434387207E0
5.463363923E0,-2.674865723E-1,9.562362671E0,-9.443588257E0
5.468399323E0,-2.126922607E-1,9.566452026E0,-9.459274292E0
5.473434724E0,-2.306671143E-1,9.541381836E0,-9.404998779E0
5.478470124E0,-2.109375000E-1,9.593063354E0,-9.438461304E0
5.483505524E0,-2.210845947E-1,9.553863525E0,-9.452407837E0
5.488540925E0,-2.432403564E-1,9.555786133E0,-9.446838379E0
5.493576325E0,-2.457580566E-1,9.573974609E0,-9.425201416E0
5.498611726E0,-2.566680908E-1,9.566986084E0,-9.413970947E0
5.503647126E0,-2.489166260E-1,9.569442749E0,-9.435058594E0
5.508682526E0,-2.291259766E-1,9.562210083E0,-9.417602539E0
5.513717927E0,-2.122955322E-1,9.553894043E0,-9.464782715E0
5.518753327E0,-2.197113037E-1,9.550964355E0,-9.426055908E0
5.523788728E0,-2.504272461E-1,9.578674316E0,-9.401733398E0
5.528824128E0,-2.636566162E-1,9.585510254E0,-9.466293335E0
5.533859528E0,-2.356109619E-1,9.534027100E0,-9.466064453E0
5.538894929E0,-2.245483398E-1,9.535568237E0,-9.486419678E0
5.543930329E0,-2.327575684E-1,9.571685791E0,-9.465820312E0
5.548965729E0,-2.331237793E-1,9.552139282E0,-9.433425903E0
5.554001130E0,-2.343292236E-1,9.555480957E0,-9.437057495E0
5.559036530E0,-2.295074463E-1,9.573944092E0,-9.419387817E0
5.564071931E0,-2.018127441E-1,9.551605225E0,-9.428237915E0
5.569107331E0,-2.463989258E-1,9.544036865E0,-9.477798462E0
5.574142731E0,-2.537231445E-1,9.555099487E0,-9.463272095E0
5.579178132E0,-2.194976807E-1,9.561141968E0,-9.406143188E0
5.584213532E0,-2.394409180E-1,9.559906006E0,-9.419937134E0
5.589248933E0,-2.457580566E-1,9.572708130E0,-9.444168091E0
5.594284333E0,-2.316131592E-1,9.561447144E0,-9.475097656E0
5.599319733E0,-2.235260010E-1,9.570510864E0,-9.454528809E0
5.604355134E0,-2.386627197E-1,9.596817017E0,-9.469497681E0
5.609390534E0,-2.296752930E-1,9.578643799E0,-9.447372437E0
5.614425935E0,-2.316131592E-1,9.548599243E0,-9.428909302E0
5.619461335E0,-2.277374268E-1,9.557312012E0,-9.475845337E0
5.624496735E0,-2.171325684E-1,9.556701660E0,-9.489730835E0
5.629532136E0,-2.088012695E-1,9.529037476E0,-9.420776367E0
5.634567536E0,-2.209930420E-1,9.524719238E0,-9.396972656E0
5.639602937E0,-2.302398682E-1,9.548202515E0,-9.427856445E0
5.644638337E0,-2.235412598E-1,9.591033936E0,-9.439361572E0
5.649673737E0,-2.210540771E-1,9.584503174E0,-9.451995850E0
5.654709138E0,-2.174072266E-1,9.568161011E0,-9.460586548E0
5.659744538E0,-2.136840820E-1,9.557998657E0,-9.445251465E0
5.664779938E0,-2.175140381E-1,9.555572510E0,-9.415756226E0
5.669815339E0,-2.165527344E-1,9.546905518E0,-9.444198608E0
5.674850739E0,-2.250061035E-1,9.581802368E0,-9.473846436E0
5.679886140E0,-2.117919922E-1,9.613479614E0,-9.475067139E0
5.684921540E0,-2.203369141E-1,9.582382202E0,-9.468063354E0
5.689956940E0,-2.204132080E-1,9.571563721E0,-9.509979248E0
5.694992341E0,-2.115020752E-1,9.577239990E0,-9.479583740E0
5.700027741E0,-2.455902100E-1,9.553710938E0,-9.439804077E0
5.705063142E0,-2.358856201E-1,9.548919678E0,-9.422164917E0
5.710098542E0,-1.956481934E-1,9.558563232E0,-9.437210083E0
5.715133942E0,-2.367095947E-1,9.563064575E0,-9.443923950E0
5.720169343E0,-2.227783203E-1,9.570693970E0,-9.464096069E0
5.725204743E0,-2.187652588E-1,9.566192627E0,-9.447067261E0
5.730240144E0,-2.397918701E-1,9.576324463E0,-9.477996826E0
5.735275544E0,-2.237243652E-1,9.543899536E0,-9.456176758E0
5.740310944E0,-2.189178467E-1,9.538360596E0,-9.428939819E0
5.745346345E0,-2.062530518E-1,9.539947510E0,-9.446807861E0
5.750381745E0,-2.142639160E-1,9.566726685E0,-9.471893311E0
5.755417145E0,-2.151184082E-1,9.553848267E0,-9.451324463E0
5.760452546E0,-2.225646973E-1,9.594802856E0,-9.445632935E0
5.765487946E0,-2.162017822E-1,9.558197021E0,-9.471633911E0
5.770523347E0,-2.532501221E-1,9.551498413E0,-9.488754272E0
5.775558747E0,-2.640228271E-1,9.553894043E0,-9.474380493E0
5.780594147E0,-2.166442871E-1,9.556304932E0,-9.478073120E0
5.785629548E0,-2.078094482E-1,9.539657593E0,-9.440841675E0
5.790664948E0,-2.139892578E-1,9.576202393E0,-9.483337402E0
5.795700349E0,-2.146759033E-1,9.547760010E0,-9.464538574E0
5.800735749E0,-2.037963867E-1,9.538162231E0,-9.455749512E0
5.805771149E0,-2.206420898E-1,9.542022705E0,-9.452911377E0
5.810806550E0,-2.263488770E-1,9.537796021E0,-9.470870972E0
5.815841950E0,-2.449340820E-1,9.553604126E0,-9.451171875E0
5.820877351E0,-2.015075684E-1,9.565826416E0,-9.424850464E0
5.825912751E0,-1.814727783E-1,9.582687378E0,-9.431304932E0
5.830948151E0,-2.335510254E-1,9.554138184E0,-9.476104736E0
5.835983552E0,-2.051849365E-1,9.540313721E0,-9.402145386E0
5.841018952E0,-2.077178955E-1,9.570114136E0,-9.540161133E0
5.846054353E0,-2.156066895E-1,9.540557861E0,-9.419754028E0
5.851089753E0,-2.336120605E-1,9.553298950E0,-9.428817749E0
5.856125153E0,-1.923217773E-1,9.538360596E0,-9.462554932E0
5.861160554E0,-2.122955322E-1,9.548507690E0,-9.406280518E0
5.866195954E0,-2.105560303E-1,9.537994385E0,-9.471557617E0
5.871231354E0,-1.922607422E-1,9.544311523E0,-9.442901611E0
5.876266755E0,-1.856842041E-1,9.559417725E0,-9.427215576E0
5.881302155E0,-2.010192871E-1,9.545013428E0,-9.484558105E0
5.886337556E0,-2.108764648E-1,9.556152344E0,-9.466125488E0
5.891372956E0,-2.386932373E-1,9.597839355E0,-9.424728394E0
5.896408356E0,-2.055206299E-1,9.526031494E0,-9.467056274E0
5.901443757E0,-2.245635986E-1,9.542053223E0,-9.459854126E0
5.906479157E0,-1.946105957E-1,9.551849365E0,-9.433364868E0
5.911514558E0,-1.950988770E-1,9.556182861E0,-9.466629028E0
5.916549958E0,-1.747283936E-1,9.561004639E0,-9.481155396E0
5.921585358E0,-1.863250732E-1,9.526397705E0,-9.467483521E0
5.926620759E0,-2.251434326E-1,9.561370850E0,-9.443084717E0
5.931656159E0,-2.330627441E-1,9.561965942E0,-9.421875000E0
5.936691560E0,-2.046661377E-1,9.565002441E0,-9.459182739E0
5.941726960E0,-2.132110596E-1,9.567184448E0,-9.467285156E0
5.946762360E0,-2.183990479E-1,9.562377930E0,-9.429000854E0
5.951797761E0,-2.034759521E-1,9.562561035E0,-9.420120239E0
5.956833161E0,-1.937103271E-1,9.562698364E0,-9.393432617E0
5.961868562E0,-2.113494873E-1,9.556304932E0,-9.440093994E0
5.966903962E0,-2.153625488E-1,9.573974609E0,-9.444915771E0
5.971939362E0,-1.938629150E-1,9.552200317E0,-9.443374634E0
5.976974763E0,-1.964569092E-1,9.549819946E0,-9.428268433E0
5.982010163E0,-1.879577637E-1,9.579208374E0,-9.452453613E0
5.987045563E0,-1.635131836E-1,9.567687988E0,-9.447021484E0
5.992080964E0,-2.098846436E-1,9.544692993E0,-9.438919067E0
5.997116364E0,-2.108001709E-1,9.542053223E0,-9.436981201E0
6.002151765E0,-2.015075684E-1,9.540130615E0,-9.413589478E0
6.007187165E0,-2.196350098E-1,9.551422119E0,-9.434265137E0
6.012222565E0,-2.011413574E-1,9.551101685E0,-9.436523438E0
6.017257966E0,-1.877899170E-1,9.565551758E0,-9.427108765E0
6.022293366E0,-1.892242432E-1,9.564270020E0,-9.455215454E0
6.027328767E0,-2.118682861E-1,9.538070679E0,-9.440811157E0
6.032364167E0,-2.183074951E-1,9.530364990E0,-9.383850098E0
6.037399567E0,-1.917419434E-1,9.567825317E0,-9.398635864E0
6.042434968E0,-1.841430664E-1,9.574829102E0,-9.447479248E0
6.047470368E0,-1.996154785E-1,9.568038940E0,-9.447036743E0
6.052505769E0,-2.051544189E-1,9.568923950E0,-9.423324585E0
6.057541169E0,-2.051544189E-1,9.556045532E0,-9.419998169E0
6.062576569E0,-1.902160645E-1,9.562713623E0,-9.485321045E0
6.067611970E0,-1.706542969E-1,9.552856445E0,-9.471664429E0
6.072647370E0,-1.788635254E-1,9.549850464E0,-9.424713135E0
6.077682770E0,-1.884918213E-1,9.552261353E0,-9.431945801E0
6.082718171E0,-1.958770752E-1,9.543563843E0,-9.462081909E0
6.087753571E0,-1.988983154E-1,9.544448853E0,-9.485595703E0
6.092788972E0,-1.748809814E-1,9.550170898E0,-9.472335815E0
6.097824372E0,-1.844024658E-1,9.540802002E0,-9.408660889E0
6.102859772E0,-2.066802979E-1,9.550949097E0,-9.395553589E0
6.107895173E0,-1.944580078E-1,9.558990479E0,-9.406021118E0
6.112930573E0,-1.678009033E-1,9.563980103E0,-9.414199829E0
6.117965974E0,-1.616363525E-1,9.559341431E0,-9.378097534E0
6.123001374E0,-1.640319824E-1,9.560043335E0,-9.369201660E0
6.128036774E0,-1.646881104E-1,9.573623657E0,-9.419143677E0
6.133072175E0,-1.789550781E-1,9.570892334E0,-9.430755615E0
6.138107575E0,-1.674346924E-1,9.584808350E0,-9.432586670E0
6.143142976E0,-1.972808838E-1,9.575210571E0,-9.455810547E0
6.148178376E0,-1.551971436E-1,9.565277100E0,-9.460418701E0
6.153213776E0,-1.788635254E-1,9.565643311E0,-9.458007812E0
6.158249177E0,-2.116241455E-1,9.566131592E0,-9.420898438E0
6.163284577E0,-2.014160156E-1,9.575912476E0,-9.439697266E0
6.168319978E0,-2.019958496E-1,9.572067261E0,-9.453567505E0
6.173355378E0,-1.826324463E-1,9.530578613E0,-9.441040039E0
6.178390778E0,-1.932830811E-1,9.568252563E0,-9.407821655E0
6.183426179E0,-2.060089111E-1,9.556976318E0,-9.402786255E0
6.188461579E0,-1.906127930E-1,9.543640137E0,-9.434509277E0
6.193496979E0,-1.970367432E-1,9.559387207E0,-9.400085449E0
6.198532380E0,-1.807250977E-1,9.541915894E0,-9.430221558E0
6.203567780E0,-1.789703369E-1,9.542129517E0,-9.444671631E0
6.208603181E0,-1.878509521E-1,9.584487915E0,-9.399017334E0
6.213638581E0,-1.930236816E-1,9.571701050E0,-9.456726074E0
6.218673981E0,-2.047271729E-1,9.529617310E0,-9.381958008E0
6.223709382E0,-2.097778320E-1,9.574188232E0,-9.383590698E0
6.228744782E0,-2.005157471E-1,9.545089722E0,-9.386093140E0
6.233780183E0,-1.956329346E-1,9.551849365E0,-9.371841431E0
6.238815583E0,-1.930541992E-1,9.523422241E0,-9.472366333E0
6.243850983E0,-1.770019531E-1,9.536697388E0,-9.514877319E0
6.248886384E0,-1.933441162E-1,9.594436646E0,-9.427993774E0
6.253921784E0,-1.968078613E-1,9.526245117E0,-9.402893066E0
6.258957185E0,-2.184295654E-1,9.538284302E0,-9.403839111E0
6.263992585E0,-2.015533447E-1,9.549118042E0,-9.384613037E0
6.269027985E0,-1.883697510E-1,9.543685913E0,-9.392166138E0
6.274063386E0,-2.139434814E-1,9.534439087E0,-9.360305786E0
6.279098786E0,-2.276458740E-1,9.552352905E0,-9.405960083E0
6.284134187E0,-2.123870850E-1,9.568344116E0,-9.388580322E0
6.289169587E0,-1.786499023E-1,9.519668579E0,-9.362884521E0
6.294204987E0,-1.772918701E-1,9.547927856E0,-9.413345337E0
6.299240388E0,-1.862945557E-1,9.582687378E0,-9.431213379E0
6.304275788E0,-2.127075195E-1,9.588150024E0,-9.483825684E0
6.309311188E0,-2.146759033E-1,9.557479858E0,-9.434097290E0
6.314346589E0,-2.062683105E-1,9.566040039E0,-9.417480469E0
6.319381989E0,-1.772918701E-1,9.577224731E0,-9.433425903E0
6.324417390E0,-1.990661621E-1,9.551284790E0,-9.463531494E0
6.329452790E0,-2.022247314E-1,9.563354492E0,-9.481033325E0
6.334488190E0,-1.927642822E-1,9.558334351E0,-9.404922485E0
6.339523591E0,-1.719512939E-1,9.568389893E0,-9.456665039E0
6.344558991E0,-1.841125488E-1,9.558151245E0,-9.420944214E0
6.349594392E0,-1.953125000E-1,9.545410156E0,-9.392761230E0
6.354629792E0,-1.834869385E-1,9.540908813E0,-9.451080322E0
6.359665192E0,-1.807708740E-1,9.554962158E0,-9.429397583E0
6.364700593E0,-1.973114014E-1,9.556610107E0,-9.425521851E0
6.369735993E0,-1.820373535E-1,9.562225342E0,-9.458450317E0
6.374771394E0,-1.888275146E-1,9.557449341E0,-9.488113403E0
6.379806794E0,-2.251129150E-1,9.544403076E0,-9.494796753E0
6.384842194E0,-2.036895752E-1,9.559005737E0,-9.456970215E0
6.389877595E0,-1.923370361E-1,9.540695190E0,-9.427886963E0
6.394912995E0,-1.851806641E-1,9.559906006E0,-9.430877686E0
6.399948395E0,-1.854095459E-1,9.564880371E0,-9.439300537E0
6.404983796E0,-2.049865723E-1,9.563400269E0,-9.430648804E0
6.410019196E0,-2.055053711E-1,9.561370850E0,-9.393264771E0
6.415054597E0,-1.815338135E-1,9.543457031E0,-9.394317627E0
6.420089997E0,-1.878814697E-1,9.527038574E0,-9.407684326E0
6.425125397E0,-2.246704102E-1,9.528320312E0,-9.446563721E0
6.430160798E0,-2.188720703E-1,9.546585083E0,-9.456878662E0
6.435196198E0,-2.015686035E-1,9.539840698E0,-9.436111450E0
6.440231599E0,-2.160644531E-1,9.563873291E0,-9.455535889E0
6.445266999E0,-2.253417969E-1,9.554748535E0,-9.449264526E0
6.450302399E0,-1.924438477E-1,9.576782227E0,-9.448333740E0
6.455337800E0,-1.841888428E-1,9.569976807E0,-9.436935425E0
6.460373200E0,-1.964111328E-1,9.536224365E0,-9.439147949E0
6.465408601E0,-1.851043701E-1,9.552841187E0,-9.429687500E0
6.470444001E0,-2.025604248E-1,9.580001831E0,-9.444000244E0
6.475479401E0,-2.166137695E-1,9.571517944E0,-9.446319580E0
6.480514802E0,-1.987762451E-1,9.548858643E0,-9.439086914E0
6.485550202E0,-1.693267822E-1,9.543792725E0,-9.450042725E0
6.490585603E0,-1.966552734E-1,9.541687012E0,-9.448257446E0
6.495621003E0,-2.194366455E-1,9.533813477E0,-9.456359863E0
6.500656403E0,-2.319488525E-1,9.578857422E0,-9.460723877E0
6.505691804E0,-2.146148682E-1,9.589889526E0,-9.477416992E0
6.510727204E0,-2.173767090E-1,9.556854248E0,-9.487716675E0
6.515762604E0,-2.044067383E-1,9.567810059E0,-9.465362549E0
6.520798005E0,-2.342681885E-1,9.601531982E0,-9.455154419E0
6.525833405E0,-2.110900879E-1,9.560089111E0,-9.444900513E0
6.530868806E0,-2.147521973E-1,9.543411255E0,-9.440872192E0
6.535904206E0,-2.200622559E-1,9.544708252E0,-9.470901489E0
6.540939606E0,-2.086029053E-1,9.566390991E0,-9.457839966E0
6.545975007E0,-2.162017822E-1,9.554870605E0,-9.431991577E0
6.551010407E0,-1.971435547E-1,9.519729614E0,-9.458160400E0
6.556045808E0,-2.040710449E-1,9.539627075E0,-9.423721313E0
6.561081208E0,-2.324066162E-1,9.568130493E0,-9.439086914E0
6.566116608E0,-2.169952393E-1,9.586944580E0,-9.484710693E0
6.571152009E0,-2.182312012E-1,9.542556763E0,-9.459671021E0
6.576187409E0,-2.234649658E-1,9.556961060E0,-9.440689087E0
6.581222810E0,-2.201232910E-1,9.526611328E0,-9.438491821E0
6.586258210E0,-2.298126221E-1,9.554077148E0,-9.457153320E0
6.591293610E0,-2.502746582E-1,9.546371460E0,-9.493560791E0
6.596329011E0,-2.421112061E-1,9.531906128E0,-9.474533081E0
6.601364411E0,-2.019653320E-1,9.556350708E0,-9.441543579E0
6.606399812E0,-2.527770996E-1,9.567749023E0,-9.471343994E0
6.611435212E0,-2.775115967E-1,9.544082642E0,-9.500823975E0
6.616470612E0,-2.542114258E-1,9.549072266E0,-9.480270386E0
6.621506013E0,-2.026519775E-1,9.556289673E0,-9.474395752E0
6.626541413E0,-2.419281006E-1,9.572753906E0,-9.421127319E0
6.631576813E0,-2.502593994E-1,9.561584473E0,-9.508224487E0
6.636612214E0,-2.432861328E-1,9.568466187E0,-9.436553955E0
6.641647614E0,-2.361755371E-1,9.561050415E0,-9.419830322E0
6.646683015E0,-2.476959229E-1,9.512390137E0,-9.484237671E0
6.651718415E0,-2.314910889E-1,9.566055298E0,-9.510086060E0
6.656753815E0,-2.359008789E-1,9.562316895E0,-9.442703247E0
6.661789216E0,-2.310791016E-1,9.531082153E0,-9.482391357E0
6.666824616E0,-2.277069092E-1,9.544403076E0,-9.458618164E0
6.671860017E0,-2.422943115E-1,9.572509766E0,-9.442764282E0
6.676895417E0,-2.295989990E-1,9.564834595E0,-9.464004517E0
6.681930817E0,-2.167663574E-1,9.573654175E0,-9.460250854E0
6.686966218E0,-2.526550293E-1,9.557708740E0,-9.480377197E0
6.692001618E0,-2.282104492E-1,9.563674927E0,-9.465881348E0
6.697037019E0,-1.986083984E-1,9.552124023E0,-9.532073975E0
6.702072419E0,-2.423400879E-1,9.579132080E0,-9.486663818E0
6.707107819E0,-2.218627930E-1,9.560150146E0,-9.455841064E0
6.712143220E0,-2.143096924E-1,9.562927246E0,-9.478515625E0
6.717178620E0,-2.370147705E-1,9.544815063E0,-9.450958252E0
6.722214020E0,-2.394256592E-1,9.529876709E0,-9.447097778E0
6.727249421E0,-2.388305664E-1,9.516662598E0,-9.457687378E0
6.732284821E0,-2.532043457E-1,9.551177979E0,-9.441940308E0
6.737320222E0,-2.293701172E-1,9.572128296E0,-9.448471069E0
6.742355622E0,-2.135772705E-1,9.563110352E0,-9.451538086E0
6.747391022E0,-2.508850098E-1,9.541427612E0,-9.443771362E0
6.752426423E0,-2.344512939E-1,9.538146973E0,-9.489547729E0
6.757461823E0,-2.202606201E-1,9.569519043E0,-9.501770020E0
6.762497224E0,-2.546691895E-1,9.562545776E0,-9.429946899E0
6.767532624E0,-2.368316650E-1,9.555709839E0,-9.474060059E0
6.772568024E0,-2.192687988E-1,9.565170288E0,-9.498168945E0
6.777603425E0,-2.377471924E-1,9.566787720E0,-9.475677490E0
6.782638825E0,-2.447967529E-1,9.560516357E0,-9.437438965E0
6.787674226E0,-2.441101074E-1,9.572692871E0,-9.403396606E0
6.792709626E0,-2.251434326E-1,9.541427612E0,-9.430419922E0
6.797745026E0,-2.065124512E-1,9.532577515E0,-9.457366943E0
6.802780427E0,-2.379913330E-1,9.520904541E0,-9.464675903E0
6.807815827E0,-2.431182861E-1,9.528717041E0,-9.453903198E0
6.812851228E0,-2.542419434E-1,9.536911011E0,-9.434448242E0
6.817886628E0,-2.488861084E-1,9.551467896E0,-9.460067749E0
6.822922028E0,-2.152557373E-1,9.552185059E0,-9.450271606E0
6.827957429E0,-2.130584717E-1,9.547378540E0,-9.455307007E0
6.832992829E0,-2.230224609E-1,9.558776855E0,-9.490966797E0
6.838028229E0,-2.409820557E-1,9.552703857E0,-9.447891235E0
6.843063630E0,-2.289276123E-1,9.556549072E0,-9.452774048E0
6.848099030E0,-2.254791260E-1,9.537322998E0,-9.455200195E0
6.853134431E0,-2.389526367E-1,9.541778564E0,-9.461273193E0
6.858169831E0,-2.300109863E-1,9.541366577E0,-9.431259155E0
6.863205231E0,-2.133636475E-1,9.550140381E0,-9.446151733E0
6.868240632E0,-2.337951660E-1,9.555374146E0,-9.446395874E0
6.873276032E0,-2.449035645E-1,9.537475586E0,-9.430419922E0
6.878311433E0,-2.366943359E-1,9.527633667E0,-9.418975830E0
6.883346833E0,-2.195587158E-1,9.575241089E0,-9.437744141E0
6.888382233E0,-2.258300781E-1,9.565597534E0,-9.455566406E0
6.893417634E0,-2.184143066E-1,9.556732178E0,-9.449813843E0
6.898453034E0,-2.362976074E-1,9.566986084E0,-9.469192505E0
6.903488435E0,-2.388305664E-1,9.556838989E0,-9.400833130E0
6.908523835E0,-2.155761719E-1,9.553421021E0,-9.401718140E0
6.913559235E0,-2.300262451E-1,9.557434082E0,-9.403320312E0
6.918594636E0,-2.425079346E-1,9.554077148E0,-9.375259399E0
6.923630036E0,-2.166137695E-1,9.553512573E0,-9.430328369E0
6.928665437E0,-2.034606934E-1,9.561004639E0,-9.445663452E0
6.933700837E0,-2.286224365E-1,9.549957275E0,-9.458099365E0
6.938736237E0,-2.297210693E-1,9.565734863E0,-9.424362183E0
6.943771638E0,-2.460632324E-1,9.560867310E0,-9.452423096E0
6.948807038E0,-2.401123047E-1,9.543945312E0,-9.434524536E0
6.953842438E0,-2.158660889E-1,9.532577515E0,-9.422363281E0
6.958877839E0,-2.304840088E-1,9.560333252E0,-9.440521240E0
6.963913239E0,-2.171173096E-1,9.534332275E0,-9.436126709E0
6.968948640E0,-1.911010742E-1,9.581558228E0,-9.412521362E0
6.973984040E0,-2.311248779E-1,9.553588867E0,-9.366439819E0
6.979019440E0,-2.507934570E-1,9.536758423E0,-9.397277832E0
6.984054841E0,-2.285919189E-1,9.521072388E0,-9.411209106E0
6.989090241E0,-2.058105469E-1,9.551223755E0,-9.383682251E0
6.994125642E0,-2.048492432E-1,9.525497437E0,-9.364456177E0
6.999161042E0,-2.093658447E-1,9.560852051E0,-9.379135132E0
7.004196442E0,-2.355041504E-1,9.604507446E0,-9.449584961E0
7.009231843E0,-2.514495850E-1,9.567901611E0,-9.403488159E0
7.014267243E0,-2.311248779E-1,9.529113770E0,-9.389358521E0
7.019302644E0,-2.112274170E-1,9.530090332E0,-9.399581909E0
7.024338044E0,-2.279205322E-1,9.543914795E0,-9.447631836E0
7.029373444E0,-2.403564453E-1,9.524200439E0,-9.425323486E0
7.034408845E0,-2.154846191E-1,9.550964355E0,-9.426513672E0
7.039444245E0,-2.053375244E-1,9.547164917E0,-9.386856079E0
7.044479645E0,-2.217254639E-1,9.573104858E0,-9.442886353E0
7.049515046E0,-2.288665771E-1,9.559188843E0,-9.431411743E0
7.054550446E0,-2.122192383E-1,9.591339111E0,-9.443161011E0
7.059585847E0,-2.084960938E-1,9.541030884E0,-9.436874390E0
7.064621247E0,-2.365417480E-1,9.575241089E0,-9.387649536E0
7.069656647E0,-1.927337646E-1,9.564804077E0,-9.421829224E0
7.074692048E0,-1.835784912E-1,9.543609619E0,-9.419738770E0
7.079727448E0,-1.830596924E-1,9.557952881E0,-9.391830444E0
7.084762849E0,-2.056274414E-1,9.520919800E0,-9.403869629E0
7.089798249E0,-2.277679443E-1,9.546432495E0,-9.418151855E0
7.094833649E0,-1.777038574E-1,9.556640625E0,-9.440521240E0
7.099869050E0,-1.858062744E-1,9.525192261E0,-9.386184692E0
7.104904450E0,-1.860961914E-1,9.555236816E0,-9.407821655E0
7.109939851E0,-2.033233643E-1,9.558074951E0,-9.428985596E0
7.114975251E0,-2.103729248E-1,9.544281006E0,-9.386062622E0
7.120010651E0,-1.735839844E-1,9.566131592E0,-9.426940918E0
7.125046052E0,-2.097015381E-1,9.559783936E0,-9.396987915E0
7.130081452E0,-1.918792725E-1,9.540023804E0,-9.411941528E0
7.135116853E0,-2.005615234E-1,9.565948486E0,-9.445449829E0
7.140152253E0,-1.810302734E-1,9.553359985E0,-9.438812256E0
7.145187653E0,-1.775360107E-1,9.549148560E0,-9.434341431E0
7.150223054E0,-1.992340088E-1,9.562500000E0,-9.401062012E0
7.155258454E0,-2.099151611E-1,9.547607422E0,-9.428207397E0
7.160293854E0,-2.026977539E-1,9.575653076E0,-9.422073364E0
7.165329255E0,-1.768798828E-1,9.575653076E0,-9.426910400E0
7.170364655E0,-1.692352295E-1,9.576354980E0,-9.421829224E0
7.175400056E0,-2.013092041E-1,9.560150146E0,-9.425552368E0
7.180435456E0,-2.079467773E-1,9.537155151E0,-9.447662354E0
7.185470856E0,-1.830596924E-1,9.566864014E0,-9.454086304E0
7.190506257E0,-1.954040527E-1,9.551498413E0,-9.427398682E0
7.195541657E0,-1.749114990E-1,9.558242798E0,-9.452148438E0
7.200577058E0,-1.569519043E-1,9.571533203E0,-9.428680420E0
7.205612458E0,-1.636199951E-1,9.535552979E0,-9.416900635E0
7.210647858E0,-1.789550781E-1,9.528549194E0,-9.427047729E0
7.215683259E0,-1.942443848E-1,9.530944824E0,-9.417648315E0
7.220718659E0,-1.895904541E-1,9.545883179E0,-9.411117554E0
7.225754060E0,-1.823883057E-1,9.538406372E0,-9.445556641E0
7.230789460E0,-1.912078857E-1,9.544372559E0,-9.448928833E0
7.235824860E0,-1.982116699E-1,9.543945312E0,-9.441909790E0
7.240860261E0,-1.855163574E-1,9.555343628E0,-9.459915161E0
7.245895661E0,-2.076721191E-1,9.548522949E0,-9.454132080E0
7.250931062E0,-2.148590088E-1,9.525741577E0,-9.456283569E0
7.255966462E0,-1.933898926E-1,9.523498535E0,-9.459823608E0
7.261001862E0,-1.855010986E-1,9.547592163E0,-9.445220947E0
7.266037263E0,-1.756439209E-1,9.571685791E0,-9.446273804E0
7.271072663E0,-1.698760986E-1,9.573684692E0,-9.465545654E0
7.276108063E0,-1.716156006E-1,9.540878296E0,-9.468872070E0
7.281143464E0,-1.884918213E-1,9.543991089E0,-9.445648193E0
7.286178864E0,-1.845397949E-1,9.553039551E0,-9.432723999E0
7.291214265E0,-1.879272461E-1,9.555572510E0,-9.419555664E0
7.296249665E0,-2.057647705E-1,9.574371338E0,-9.447509766E0
7.301285065E0,-1.960754395E-1,9.568038940E0,-9.468856812E0
7.306320466E0,-2.011566162E-1,9.554473877E0,-9.441482544E0
7.311355866E0,-2.068634033E-1,9.573303223E0,-9.429641724E0
7.316391267E0,-1.835479736E-1,9.571273804E0,-9.417449951E0
7.321426667E0,-1.813354492E-1,9.589050293E0,-9.430480957E0
7.326462067E0,-2.007141113E-1,9.585617065E0,-9.418167114E0
7.331497468E0,-2.157897949E-1,9.554916382E0,-9.457046509E0
7.336532868E0,-1.959381104E-1,9.558135986E0,-9.463836670E0
7.341568269E0,-2.083282471E-1,9.558624268E0,-9.425064087E0
7.346603669E0,-1.770935059E-1,9.565292358E0,-9.469650269E0
7.351639069E0,-1.782226562E-1,9.549072266E0,-9.478485107E0
7.356674470E0,-1.819458008E-1,9.558486938E0,-9.414916992E0
7.361709870E0,-1.996154785E-1,9.560089111E0,-9.421188354E0
7.366745270E0,-2.051544189E-1,9.571960449E0,-9.451217651E0
7.371780671E0,-1.731414795E-1,9.549270630E0,-9.446228027E0
7.376816071E0,-2.201690674E-1,9.553802490E0,-9.448989868E0
7.381851472E0,-1.773986816E-1,9.581848145E0,-9.442611694E0
7.386886872E0,-1.844177246E-1,9.565856934E0,-9.494094849E0
7.391922272E0,-2.205047607E-1,9.547363281E0,-9.455123901E0
7.396957673E0,-1.900482178E-1,9.565002441E0,-9.459838867E0
7.401993073E0,-2.125701904E-1,9.545852661E0,-9.429336548E0
7.407028474E0,-2.108001709E-1,9.548583984E0,-9.422119141E0
7.412063874E0,-2.480316162E-1,9.534637451E0,-9.430297852E0
7.417099274E0,-1.990966797E-1,9.528503418E0,-9.457107544E0
7.422134675E0,-2.063140869E-1,9.554153442E0,-9.470794678E0
7.427170075E0,-1.854858398E-1,9.567626953E0,-9.480636597E0
7.432205476E0,-1.748046875E-1,9.543930054E0,-9.447814941E0
7.437240876E0,-1.810150146E-1,9.553634644E0,-9.463729858E0
7.442276276E0,-1.975097656E-1,9.563446045E0,-9.455444336E0
7.447311677E0,-1.631927490E-1,9.554458618E0,-9.469085693E0
7.452347077E0,-2.046356201E-1,9.570678711E0,-9.450622559E0
7.457382478E0,-2.027740479E-1,9.535186768E0,-9.371841431E0
7.462417878E0,-1.511993408E-1,9.567916870E0,-9.483596802E0
7.467453278E0,-2.147521973E-1,9.521987915E0,-9.473754883E0
7.472488679E0,-2.162475586E-1,9.558227539E0,-9.461639404E0
7.477524079E0,-1.974334717E-1,9.591293335E0,-9.498977661E0
7.482559479E0,-1.858215332E-1,9.527114868E0,-9.470062256E0
7.487594880E0,-1.834564209E-1,9.548065186E0,-9.444641113E0
7.492630280E0,-2.074584961E-1,9.532058716E0,-9.461883545E0
7.497665681E0,-1.850891113E-1,9.548965454E0,-9.460754395E0
7.502701081E0,-2.156829834E-1,9.547180176E0,-9.484329224E0
7.507736481E0,-2.031250000E-1,9.563491821E0,-9.459777832E0
7.512771882E0,-1.929931641E-1,9.537628174E0,-9.501541138E0
7.517790759E0,-2.211303711E-1,9.500045776E0,-9.443801880E0
7.522826160E0,-2.250823975E-1,9.551956177E0,-9.415618896E0
7.527861560E0,-2.564697266E-1,9.583145142E0,-9.404525757E0
7.532896960E0,-2.111358643E-1,9.549591064E0,-9.434829712E0
7.537932361E0,-2.261199951E-1,9.547409058E0,-9.402984619E0
7.542967761E0,-2.241973877E-1,9.584518433E0,-9.456298828E0
7.548003162E0,-2.231292725E-1,9.590606689E0,-9.433731079E0
7.553038562E0,-2.171630859E-1,9.525192261E0,-9.436004639E0
7.558073962E0,-2.111206055E-1,9.534103394E0,-9.441452026E0
7.563109363E0,-2.077789307E-1,9.575622559E0,-9.439865112E0
7.568144763E0,-1.917877197E-1,9.554809570E0,-9.447097778E0
7.573180164E0,-2.031402588E-1,9.582748413E0,-9.459075928E0
7.578215564E0,-2.041931152E-1,9.570175171E0,-9.499160767E0
7.583250964E0,-2.020568848E-1,9.556594849E0,-9.448120117E0
7.588286365E0,-2.258148193E-1,9.531967163E0,-9.410995483E0
7.593321765E0,-2.250061035E-1,9.546417236E0,-9.449554443E0
7.598357165E0,-2.299194336E-1,9.554351807E0,-9.441574097E0
7.603392566E0,-2.171478271E-1,9.543548584E0,-9.447097778E0
7.608427966E0,-2.015533447E-1,9.557525635E0,-9.464965820E0
7.613463367E0,-2.248992920E-1,9.550811768E0,-9.465744019E0
7.618498767E0,-2.156219482E-1,9.561584473E0,-9.448654175E0
7.623534167E0,-2.122650146E-1,9.531295776E0,-9.430389404E0
7.628569568E0,-2.051544189E-1,9.522552490E0,-9.468261719E0
7.633604968E0,-2.259063721E-1,9.532180786E0,-9.510391235E0
7.638640369E0,-2.261199951E-1,9.547149658E0,-9.482818604E0
7.643675769E0,-2.107849121E-1,9.565551758E0,-9.451721191E0
7.648711169E0,-2.335968018E-1,9.559768677E0,-9.429229736E0
7.653746570E0,-2.510986328E-1,9.542388916E0,-9.429977417E0
7.658781970E0,-2.398529053E-1,9.552947998E0,-9.434921265E0
7.663817371E0,-2.207946777E-1,9.545516968E0,-9.456756592E0
7.668852771E0,-2.388916016E-1,9.539306641E0,-9.477706909E0
7.673888171E0,-2.416534424E-1,9.567092896E0,-9.421936035E0
7.678923572E0,-2.452087402E-1,9.572601318E0,-9.452194214E0
7.683958972E0,-2.501068115E-1,9.548843384E0,-9.439956665E0
7.688994372E0,-2.344207764E-1,9.556915283E0,-9.430587769E0
7.694029773E0,-2.380828857E-1,9.560775757E0,-9.441680908E0
7.699065173E0,-2.352600098E-1,9.544754028E0,-9.438812256E0
7.704100574E0,-2.121276855E-1,9.541381836E0,-9.424362183E0
7.709135974E0,-2.308044434E-1,9.524627686E0,-9.386886597E0
7.714171374E0,-2.239379883E-1,9.542327881E0,-9.380233765E0
7.719206775E0,-2.206573486E-1,9.551315308E0,-9.389862061E0
7.724242175E0,-2.172088623E-1,9.539260864E0,-9.451065063E0
7.729277576E0,-2.075347900E-1,9.538360596E0,-9.443130493E0
7.734312976E0,-2.343444824E-1,9.556152344E0,-9.399887085E0
7.739348376E0,-2.430572510E-1,9.553848267E0,-9.409942627E0
7.744383777E0,-2.475891113E-1,9.552825928E0,-9.461425781E0
7.749419177E0,-2.418518066E-1,9.561050415E0,-9.461868286E0
7.754454578E0,-2.436981201E-1,9.553314209E0,-9.449935913E0
7.759489978E0,-2.633056641E-1,9.568893433E0,-9.474517822E0
7.764525378E0,-2.317047119E-1,9.561279297E0,-9.501678467E0
7.769560779E0,-2.431793213E-1,9.554779053E0,-9.494735718E0
7.774596179E0,-2.707824707E-1,9.563491821E0,-9.424087524E0
7.779631580E0,-2.407836914E-1,9.535980225E0,-9.408920288E0
7.784666980E0,-2.696075439E-1,9.539520264E0,-9.444351196E0
7.789702380E0,-2.634124756E-1,9.546203613E0,-9.396438599E0
7.794737781E0,-2.835693359E-1,9.541168213E0,-9.352188110E0
7.799773181E0,-2.604675293E-1,9.567947388E0,-9.437683105E0
7.804808581E0,-2.449951172E-1,9.565139771E0,-9.410491943E0
7.809843982E0,-2.267761230E-1,9.557571411E0,-9.458374023E0
7.814879382E0,-2.450866699E-1,9.552429199E0,-9.408584595E0
7.819914783E0,-2.225952148E-1,9.568786621E0,-9.457565308E0
7.824950183E0,-2.516479492E-1,9.562301636E0,-9.462524414E0
7.829985583E0,-2.682800293E-1,9.565734863E0,-9.396606445E0
7.835020984E0,-2.495727539E-1,9.544067383E0,-9.382049561E0
7.840056384E0,-2.435455322E-1,9.546783447E0,-9.408172607E0
7.845091785E0,-2.183532715E-1,9.544815063E0,-9.443878174E0
7.850127185E0,-2.697906494E-1,9.553878784E0,-9.386016846E0
7.855162585E0,-2.300109863E-1,9.558868408E0,-9.379089355E0
7.860197986E0,-2.833709717E-1,9.592102051E0,-9.461776733E0
7.865233386E0,-2.241973877E-1,9.568511963E0,-9.438491821E0
7.870268787E0,-2.362823486E-1,9.573348999E0,-9.396194458E0
7.875304187E0,-2.499847412E-1,9.581100464E0,-9.440567017E0
7.880339587E0,-2.341613770E-1,9.605880737E0,-9.426849365E0
7.885374988E0,-2.464141846E-1,9.528549194E0,-9.374862671E0
7.890410388E0,-2.578277588E-1,9.575775146E0,-9.427383423E0
7.895445789E0,-2.268829346E-1,9.544891357E0,-9.441528320E0
7.900481189E0,-2.078247070E-1,9.551239014E0,-9.464965820E0
7.905516589E0,-2.560424805E-1,9.586853027E0,-9.356872559E0
7.910551990E0,-2.413024902E-1,9.544662476E0,-9.412307739E0
7.915587390E0,-2.259674072E-1,9.576416016E0,-9.420883179E0
7.920622790E0,-2.228240967E-1,9.551452637E0,-9.475967407E0
7.925658191E0,-2.354278564E-1,9.563751221E0,-9.450042725E0
7.930693591E0,-2.730102539E-1,9.557434082E0,-9.420532227E0
7.935728992E0,-2.653503418E-1,9.529052734E0,-9.487823486E0
7.940764392E0,-2.570800781E-1,9.543792725E0,-9.455795288E0
7.945799792E0,-2.517700195E-1,9.551025391E0,-9.496292114E0
7.950835193E0,-2.359313965E-1,9.587539673E0,-9.408218384E0
7.955870593E0,-2.325286865E-1,9.565139771E0,-9.430252075E0
7.960905994E0,-2.487792969E-1,9.576324463E0,-9.463058472E0
7.965941394E0,-2.307128906E-1,9.572082520E0,-9.452774048E0
7.970976794E0,-2.165679932E-1,9.564971924E0,-9.450485229E0
7.976012195E0,-2.224884033E-1,9.534515381E0,-9.422882080E0
7.981047595E0,-2.207794189E-1,9.537597656E0,-9.435913086E0
7.986082996E0,-2.144470215E-1,9.558044434E0,-9.446517944E0
7.991118396E0,-2.254028320E-1,9.562393188E0,-9.397445679E0
7.996153796E0,-2.423553467E-1,9.527267456E0,-9.444015503E0
8.001189197E0,-2.487792969E-1,9.533691406E0,-9.432769775E0
8.006224597E0,-2.406311035E-1,9.550292969E0,-9.416702271E0
8.011259997E0,-2.416839600E-1,9.559600830E0,-9.450088501E0
8.016295398E0,-2.527770996E-1,9.561691284E0,-9.457565308E0
8.021330798E0,-2.261505127E-1,9.537719727E0,-9.413543701E0
8.026366199E0,-2.198638916E-1,9.543701172E0,-9.415588379E0
8.031401599E0,-2.358398438E-1,9.565704346E0,-9.416961670E0
8.036436999E0,-2.399597168E-1,9.566482544E0,-9.387130737E0
8.041472400E0,-2.574157715E-1,9.562713623E0,-9.405090332E0
8.046507800E0,-2.490692139E-1,9.552841187E0,-9.435104370E0
8.051543201E0,-2.492980957E-1,9.530273438E0,-9.446716309E0
8.056578601E0,-2.255249023E-1,9.530746460E0,-9.462615967E0
8.061614001E0,-2.119445801E-1,9.552856445E0,-9.472030640E0
8.066649402E0,-2.407684326E-1,9.540054321E0,-9.449295044E0
8.071684802E0,-2.284393311E-1,9.519683838E0,-9.444625854E0
8.076720203E0,-2.115783691E-1,9.518524170E0,-9.467559814E0
8.081755603E0,-2.027740479E-1,9.512161255E0,-9.448455811E0
8.086791003E0,-2.264099121E-1,9.552108765E0,-9.398422241E0
8.091826404E0,-2.293395996E-1,9.568664551E0,-9.406875610E0
8.096861804E0,-2.160339355E-1,9.559997559E0,-9.449340820E0
8.101897205E0,-2.297515869E-1,9.560577393E0,-9.446640015E0
8.106932605E0,-2.365570068E-1,9.552352905E0,-9.408233643E0
8.111968005E0,-2.442626953E-1,9.539337158E0,-9.422683716E0
8.117003406E0,-2.273559570E-1,9.568191528E0,-9.450622559E0
8.122038806E0,-2.161865234E-1,9.552322388E0,-9.459655762E0
8.127074206E0,-2.263183594E-1,9.558181763E0,-9.429885864E0
8.132109607E0,-2.329101562E-1,9.548187256E0,-9.479705811E0
8.137145007E0,-2.241821289E-1,9.551101685E0,-9.458938599E0
8.142180408E0,-1.999969482E-1,9.555740356E0,-9.445938110E0
8.147215808E0,-1.941833496E-1,9.562469482E0,-9.426361084E0
8.152251208E0,-1.990051270E-1,9.554367065E0,-9.426437378E0
8.157286609E0,-2.328643799E-1,9.561416626E0,-9.492858887E0
8.162322009E0,-2.282562256E-1,9.574813843E0,-9.444046021E0
8.167357410E0,-2.112274170E-1,9.533843994E0,-9.425903320E0
8.172392810E0,-2.183227539E-1,9.531097412E0,-9.423568726E0
8.177428210E0,-2.200012207E-1,9.540649414E0,-9.441894531E0
8.182463611E0,-2.138519287E-1,9.570312500E0,-9.438674927E0
8.187499011E0,-2.293853760E-1,9.543853760E0,-9.422821045E0
8.192534412E0,-2.086639404E-1,9.544815063E0,-9.456069946E0
8.197569812E0,-2.047271729E-1,9.554855347E0,-9.408264160E0
8.202605212E0,-1.992187500E-1,9.572463989E0,-9.451171875E0
8.207640613E0,-2.121276855E-1,9.561538696E0,-9.448181152E0
8.212676013E0,-2.146759033E-1,9.561019897E0,-9.410873413E0
8.217711414E0,-2.167510986E-1,9.584167480E0,-9.454925537E0
8.222746814E0,-2.044525146E-1,9.585449219E0,-9.434951782E0
8.227782214E0,-1.922454834E-1,9.545150757E0,-9.486099243E0
8.232817615E0,-2.189483643E-1,9.572311401E0,-9.458694458E0
8.237853015E0,-1.758270264E-1,9.569076538E0,-9.483627319E0
8.242888415E0,-1.895904541E-1,9.586257935E0,-9.408401489E0
8.247923816E0,-2.223663330E-1,9.569549561E0,-9.427520752E0
8.252959216E0,-1.900329590E-1,9.570785522E0,-9.444915771E0
8.257994617E0,-2.000427246E-1,9.517822266E0,-9.415634155E0
8.263030017E0,-2.074127197E-1,9.539505005E0,-9.461410522E0
8.268065417E0,-1.389312744E-1,9.544677734E0,-9.424438477E0
8.273100818E0,-1.930236816E-1,9.563751221E0,-9.395736694E0
8.278136218E0,-1.560516357E-1,9.563522339E0,-9.413650513E0
8.283171619E0,-2.019805908E-1,9.551910400E0,-9.487182617E0
8.288207019E0,-1.776123047E-1,9.554626465E0,-9.519042969E0
8.293242419E0,-2.018432617E-1,9.562423706E0,-9.454498291E0
8.298277820E0,-2.236938477E-1,9.542190552E0,-9.403900146E0
8.303313220E0,-1.852569580E-1,9.570800781E0,-9.422485352E0
8.308348621E0,-1.997222900E-1,9.546051025E0,-9.459060669E0
8.313384021E0,-1.709442139E-1,9.581054688E0,-9.473937988E0
8.318419421E0,-1.845703125E-1,9.565841675E0,-9.471527100E0
8.323454822E0,-1.911926270E-1,9.566497803E0,-9.470962524E0
8.328490222E0,-1.956329346E-1,9.576385498E0,-9.472549438E0
8.333525622E0,-2.057495117E-1,9.527069092E0,-9.421340942E0
8.338561023E0,-1.788330078E-1,9.549530029E0,-9.430526733E0
8.343596423E0,-1.639404297E-1,9.564422607E0,-9.430526733E0
8.348631824E0,-1.981048584E-1,9.582229614E0,-9.451278687E0
8.353667224E0,-1.764984131E-1,9.589019775E0,-9.446304321E0
8.358702624E0,-1.676025391E-1,9.554718018E0,-9.379745483E0
8.363738025E0,-1.794433594E-1,9.566055298E0,-9.405303955E0
8.368773425E0,-2.006225586E-1,9.548156738E0,-9.458602905E0
8.373808826E0,-1.622467041E-1,9.565505981E0,-9.467376709E0
8.378844226E0,-1.686706543E-1,9.566314697E0,-9.440872192E0
8.383879626E0,-2.065124512E-1,9.563858032E0,-9.432128906E0
8.388915027E0,-2.036132812E-1,9.536437988E0,-9.415527344E0
8.393950427E0,-1.965332031E-1,9.530227661E0,-9.449401855E0
8.398985828E0,-1.979827881E-1,9.545043945E0,-9.487258911E0
8.404021228E0,-1.788787842E-1,9.569274902E0,-9.463912964E0
8.409056628E0,-2.122955322E-1,9.558471680E0,-9.448684692E0
8.414092029E0,-2.021331787E-1,9.527359009E0,-9.439163208E0
8.419127429E0,-1.916198730E-1,9.549697876E0,-9.434356689E0
8.424162830E0,-1.915740967E-1,9.587310791E0,-9.444015503E0
8.429198230E0,-1.890869141E-1,9.577865601E0,-9.459991455E0
8.434233630E0,-2.040252686E-1,9.562438965E0,-9.428665161E0
8.439269031E0,-1.932678223E-1,9.572067261E0,-9.407165527E0
8.444304431E0,-2.170715332E-1,9.546371460E0,-9.460311890E0
8.449339831E0,-2.286987305E-1,9.535964966E0,-9.496673584E0
8.454375232E0,-2.182006836E-1,9.549652100E0,-9.458709717E0
8.459410632E0,-2.129058838E-1,9.548202515E0,-9.433334351E0
8.464446033E0,-2.126617432E-1,9.550613403E0,-9.423553467E0
8.469481433E0,-2.051391602E-1,9.562484741E0,-9.440643311E0
8.474516833E0,-1.990814209E-1,9.586517334E0,-9.448867798E0
8.479552234E0,-1.897277832E-1,9.587112427E0,-9.411941528E0
8.484587634E0,-2.086639404E-1,9.573104858E0,-9.428192139E0
8.489623035E0,-2.073059082E-1,9.544891357E0,-9.424392700E0
8.494658435E0,-1.905975342E-1,9.549850464E0,-9.410751343E0
8.499693835E0,-1.952972412E-1,9.577682495E0,-9.417068481E0
8.504729236E0,-1.948547363E-1,9.573074341E0,-9.415679932E0
8.509764636E0,-1.908721924E-1,9.547714233E0,-9.403350830E0
8.514800037E0,-2.053375244E-1,9.527954102E0,-9.436111450E0
8.519835437E0,-2.264862061E-1,9.555725098E0,-9.449020386E0
8.524870837E0,-2.156829834E-1,9.551574707E0,-9.443878174E0
8.529906238E0,-1.930389404E-1,9.563308716E0,-9.465316772E0
8.534941638E0,-2.000885010E-1,9.565612793E0,-9.456390381E0
8.539977039E0,-2.218627930E-1,9.547836304E0,-9.429702759E0
8.545012439E0,-2.143707275E-1,9.550430298E0,-9.442901611E0
8.550047839E0,-2.141418457E-1,9.554229736E0,-9.475875854E0
8.555083240E0,-1.868286133E-1,9.557586670E0,-9.422271729E0
8.560118640E0,-2.066802979E-1,9.536773682E0,-9.409301758E0
8.565154040E0,-2.298736572E-1,9.545410156E0,-9.461593628E0
8.570189441E0,-2.390289307E-1,9.535934448E0,-9.480712891E0
8.575224841E0,-1.866455078E-1,9.530426025E0,-9.488555908E0
8.580260242E0,-2.243194580E-1,9.585281372E0,-9.426849365E0
8.585295642E0,-2.390136719E-1,9.559173584E0,-9.418670654E0
8.590331042E0,-2.215270996E-1,9.579101562E0,-9.414291382E0
8.595366443E0,-2.266845703E-1,9.581771851E0,-9.402679443E0
8.600401843E0,-2.152709961E-1,9.590194702E0,-9.396484375E0
8.605437244E0,-1.924438477E-1,9.588333130E0,-9.401596069E0
8.610472644E0,-2.086486816E-1,9.553283691E0,-9.420913696E0
8.615508044E0,-2.143402100E-1,9.555252075E0,-9.448730469E0
8.620543445E0,-2.188262939E-1,9.569046021E0,-9.405075073E0
8.625578845E0,-2.026214600E-1,9.524627686E0,-9.406433105E0
8.630614246E0,-1.982727051E-1,9.541976929E0,-9.456573486E0
8.635649646E0,-2.131500244E-1,9.527404785E0,-9.427703857E0
8.640685046E0,-2.322082520E-1,9.556320190E0,-9.415435791E0
8.645720447E0,-2.248535156E-1,9.561203003E0,-9.416900635E0
8.650755847E0,-2.219543457E-1,9.568115234E0,-9.414810181E0
8.655791247E0,-2.195434570E-1,9.527496338E0,-9.496688843E0
8.660826648E0,-2.286682129E-1,9.541809082E0,-9.424224854E0
8.665862048E0,-2.546691895E-1,9.554000854E0,-9.445190430E0
8.670897449E0,-2.102050781E-1,9.599166870E0,-9.398315430E0
8.675932849E0,-2.360992432E-1,9.549468994E0,-9.412734985E0
8.680968249E0,-2.336425781E-1,9.552276611E0,-9.482437134E0
8.686003650E0,-2.291870117E-1,9.575134277E0,-9.414016724E0
8.691039050E0,-2.354125977E-1,9.558166504E0,-9.392791748E0
8.696074451E0,-2.225494385E-1,9.544799805E0,-9.386795044E0
8.701109851E0,-2.319793701E-1,9.577362061E0,-9.432327271E0
8.706145251E0,-2.133941650E-1,9.515533447E0,-9.414886475E0
8.711180652E0,-2.487487793E-1,9.582122803E0,-9.414260864E0
8.716216052E0,-2.289886475E-1,9.551589966E0,-9.391128540E0
8.721251453E0,-1.984710693E-1,9.536849976E0,-9.416091919E0
8.726286853E0,-2.482757568E-1,9.577011108E0,-9.441314697E0
8.731322253E0,-2.204895020E-1,9.546951294E0,-9.428268433E0
8.736357654E0,-2.330322266E-1,9.581100464E0,-9.425720215E0
8.741393054E0,-2.625579834E-1,9.545440674E0,-9.433731079E0
8.746428455E0,-2.408599854E-1,9.530990601E0,-9.445983887E0
8.751463855E0,-2.366638184E-1,9.507461548E0,-9.484954834E0
8.756499255E0,-2.263946533E-1,9.534881592E0,-9.422821045E0
8.761534656E0,-2.506713867E-1,9.545532227E0,-9.419219971E0
8.766570056E0,-2.382507324E-1,9.530487061E0,-9.405471802E0
8.771605456E0,-2.224121094E-1,9.561813354E0,-9.445037842E0
8.776640857E0,-2.248229980E-1,9.577804565E0,-9.430358887E0
8.781676257E0,-2.297973633E-1,9.552749634E0,-9.397109985E0
8.786711658E0,-2.458801270E-1,9.557769775E0,-9.422317505E0
8.791747058E0,-2.436370850E-1,9.589355469E0,-9.444488525E0
8.796782458E0,-1.976470947E-1,9.567962646E0,-9.411926270E0
8.801817859E0,-2.212066650E-1,9.558319092E0,-9.427139282E0
8.806853259E0,-2.440795898E-1,9.547103882E0,-9.424285889E0
8.811888660E0,-2.231750488E-1,9.536743164E0,-9.391555786E0
8.816924060E0,-2.253265381E-1,9.543655396E0,-9.407455444E0
8.821959460E0,-2.391357422E-1,9.563369751E0,-9.430236816E0
8.826994861E0,-2.156982422E-1,9.574508667E0,-9.413742065E0
8.832030261E0,-2.289581299E-1,9.578552246E0,-9.436782837E0
8.837065662E0,-2.299194336E-1,9.571853638E0,-9.421844482E0
8.842101062E0,-2.452545166E-1,9.552215576E0,-9.424606323E0
8.847136462E0,-2.585449219E-1,9.532806396E0,-9.432357788E0
8.852171863E0,-2.588043213E-1,9.560134888E0,-9.435760498E0
8.857207263E0,-2.456512451E-1,9.573074341E0,-9.448226929E0
8.862242664E0,-2.248382568E-1,9.528213501E0,-9.437850952E0
8.867278064E0,-2.382812500E-1,9.523696899E0,-9.411880493E0
8.872313464E0,-2.187194824E-1,9.522460938E0,-9.413116455E0
8.877348865E0,-2.327728271E-1,9.534179688E0,-9.452880859E0
8.882384265E0,-2.521820068E-1,9.567352295E0,-9.454635620E0
8.887419665E0,-2.450256348E-1,9.535858154E0,-9.434722900E0
8.892455066E0,-2.525787354E-1,9.540023804E0,-9.457046509E0
8.897490466E0,-2.503814697E-1,9.554046631E0,-9.435577393E0
8.902525867E0,-2.584991455E-1,9.545028687E0,-9.450408936E0
8.907561267E0,-2.563934326E-1,9.551223755E0,-9.440216064E0
8.912596667E0,-2.588043213E-1,9.554229736E0,-9.438812256E0
8.917632068E0,-2.432098389E-1,9.572830200E0,-9.425079346E0
8.922667468E0,-2.494049072E-1,9.583709717E0,-9.425216675E0
8.927702869E0,-2.369689941E-1,9.576828003E0,-9.439376831E0
8.932738269E0,-2.416839600E-1,9.538116455E0,-9.452239990E0
8.937773669E0,-2.589874268E-1,9.557342529E0,-9.447479248E0
8.942809070E0,-2.512512207E-1,9.546478271E0,-9.403015137E0
8.947844470E0,-2.375946045E-1,9.536849976E0,-9.394973755E0
8.952879871E0,-2.255554199E-1,9.567749023E0,-9.429840088E0
8.957915271E0,-2.318115234E-1,9.563751221E0,-9.411621094E0
8.962950671E0,-2.548522949E-1,9.577056885E0,-9.416763306E0
8.967986072E0,-2.588348389E-1,9.590347290E0,-9.415573120E0
8.973021472E0,-2.242279053E-1,9.590560913E0,-9.442092896E0
8.978056872E0,-2.283325195E-1,9.532913208E0,-9.450988770E0
8.983092273E0,-2.554626465E-1,9.544540405E0,-9.426849365E0
8.988127673E0,-2.457275391E-1,9.572616577E0,-9.458084106E0
8.993163074E0,-2.333374023E-1,9.547927856E0,-9.424285889E0
8.998198474E0,-2.389526367E-1,9.541839600E0,-9.423706055E0
9.003233874E0,-2.389373779E-1,9.511474609E0,-9.438140869E0
9.008269275E0,-2.463073730E-1,9.555114746E0,-9.417388916E0
9.013304675E0,-2.400665283E-1,9.554214478E0,-9.438125610E0
9.018340076E0,-2.405090332E-1,9.517578125E0,-9.400924683E0
9.023375476E0,-2.244110107E-1,9.552520752E0,-9.434402466E0
9.028410876E0,-2.488098145E-1,9.561065674E0,-9.484451294E0
9.033446277E0,-2.128143311E-1,9.561370850E0,-9.457199097E0
9.038481677E0,-1.990203857E-1,9.561370850E0,-9.448501587E0
9.043517078E0,-2.239532471E-1,9.600265503E0,-9.465301514E0
9.048552478E0,-2.420196533E-1,9.557922363E0,-9.418563843E0
9.053587878E0,-2.745208740E-1,9.565399170E0,-9.432556152E0
9.058623279E0,-2.158355713E-1,9.552627563E0,-9.462966919E0
9.063658679E0,-2.214660645E-1,9.547256470E0,-9.487594604E0
9.068694080E0,-2.496948242E-1,9.542434692E0,-9.449005127E0
9.073729480E0,-2.221679688E-1,9.539962769E0,-9.436248779E0
9.078764880E0,-2.575225830E-1,9.530426025E0,-9.476577759E0
9.083800281E0,-2.260894775E-1,9.544647217E0,-9.414703369E0
9.088835681E0,-1.874694824E-1,9.540054321E0,-9.416885376E0
9.093871081E0,-2.409515381E-1,9.544357300E0,-9.411941528E0
9.098906482E0,-2.439422607E-1,9.535644531E0,-9.466186523E0
9.103941882E0,-2.551879883E-1,9.543823242E0,-9.494735718E0
9.108977283E0,-2.215423584E-1,9.536026001E0,-9.482559204E0
9.114012683E0,-2.443237305E-1,9.601882935E0,-9.493499756E0
9.119048083E0,-2.084350586E-1,9.556976318E0,-9.449356079E0
9.124083484E0,-2.369079590E-1,9.603424072E0,-9.482391357E0
9.129118884E0,-2.239074707E-1,9.592987061E0,-9.472106934E0
9.134154285E0,-2.234039307E-1,9.562164307E0,-9.464675903E0
9.139189685E0,-2.304687500E-1,9.551193237E0,-9.408309937E0
9.144225085E0,-2.084045410E-1,9.550125122E0,-9.446289062E0
9.149260486E0,-2.048950195E-1,9.565719604E0,-9.457382202E0
9.154295886E0,-2.217712402E-1,9.558044434E0,-9.439422607E0
9.159331287E0,-1.985321045E-1,9.542144775E0,-9.457656860E0
9.164366687E0,-2.023010254E-1,9.573455811E0,-9.429458618E0
9.169402087E0,-2.382659912E-1,9.550231934E0,-9.437652588E0
9.174437488E0,-2.150726318E-1,9.563583374E0,-9.445480347E0
9.179472888E0,-2.107696533E-1,9.561538696E0,-9.413787842E0
9.184508289E0,-1.866302490E-1,9.539550781E0,-9.461669922E0
9.189543689E0,-2.328948975E-1,9.561553955E0,-9.443847656E0
9.194579089E0,-2.208404541E-1,9.562454224E0,-9.427932739E0
9.199614490E0,-2.129974365E-1,9.542175293E0,-9.462951660E0
9.204649890E0,-2.212524414E-1,9.544296265E0,-9.395767212E0
9.209685290E0,-2.231903076E-1,9.573364258E0,-9.436767578E0
9.214720691E0,-1.964263916E-1,9.563766479E0,-9.436935425E0
9.219756091E0,-2.061920166E-1,9.545227051E0,-9.429931641E0
9.224791492E0,-2.243652344E-1,9.530578613E0,-9.440872192E0
9.229826892E0,-2.237091064E-1,9.547439575E0,-9.445251465E0
9.234862292E0,-2.128753662E-1,9.572128296E0,-9.445526123E0
9.239897693E0,-1.996459961E-1,9.563079834E0,-9.456146240E0
9.244933093E0,-1.943359375E-1,9.554397583E0,-9.475433350E0
9.249968494E0,-2.168731689E-1,9.563735962E0,-9.466674805E0
9.255003894E0,-2.102355957E-1,9.559341431E0,-9.453384399E0
9.260039294E0,-2.086029053E-1,9.554489136E0,-9.417327881E0
9.265074695E0,-2.173919678E-1,9.516067505E0,-9.423309326E0
9.270110095E0,-1.946868896E-1,9.519607544E0,-9.437194824E0
9.275145496E0,-2.069244385E-1,9.552551270E0,-9.470138550E0
9.280180896E0,-2.111968994E-1,9.560211182E0,-9.471878052E0
9.285216296E0,-1.846923828E-1,9.560287476E0,-9.450210571E0
9.290251697E0,-1.830139160E-1,9.542541504E0,-9.448318481E0
9.295287097E0,-1.907196045E-1,9.545028687E0,-9.481826782E0
9.300322497E0,-1.884918213E-1,9.564819336E0,-9.499938965E0
9.305357898E0,-1.738891602E-1,9.535842896E0,-9.442459106E0
9.310393298E0,-1.704711914E-1,9.535491943E0,-9.460159302E0
9.315428699E0,-1.682739258E-1,9.537963867E0,-9.500976562E0
9.320464099E0,-1.807250977E-1,9.545028687E0,-9.483825684E0
9.325499499E0,-1.903686523E-1,9.549377441E0,-9.429367065E0
9.330534900E0,-1.826019287E-1,9.560928345E0,-9.416625977E0
9.335570300E0,-2.015380859E-1,9.545318604E0,-9.443130493E0
9.340605701E0,-2.238769531E-1,9.553421021E0,-9.461959839E0
9.345641101E0,-2.102203369E-1,9.545806885E0,-9.456115723E0
9.350676501E0,-2.147216797E-1,9.535186768E0,-9.471084595E0
9.355711902E0,-2.039947510E-1,9.562728882E0,-9.481338501E0
9.360747302E0,-1.923370361E-1,9.572341919E0,-9.436782837E0
9.365782703E0,-2.143859863E-1,9.564163208E0,-9.425460815E0
9.370818103E0,-2.105407715E-1,9.593826294E0,-9.425552368E0
9.375853503E0,-1.912536621E-1,9.575317383E0,-9.431152344E0
9.380888904E0,-2.249908447E-1,9.535476685E0,-9.454925537E0
9.385924304E0,-1.702270508E-1,9.538238525E0,-9.431747437E0
9.390959705E0,-1.900177002E-1,9.549621582E0,-9.436431885E0
9.395995105E0,-2.064971924E-1,9.566680908E0,-9.461257935E0
9.401030505E0,-1.830596924E-1,9.531326294E0,-9.431259155E0
9.406065906E0,-2.093200684E-1,9.549774170E0,-9.464172363E0
9.411101306E0,-1.818389893E-1,9.560516357E0,-9.489837646E0
9.416136706E0,-1.979064941E-1,9.583084106E0,-9.455734253E0
9.421172107E0,-2.067871094E-1,9.567535400E0,-9.445999146E0
9.426207507E0,-1.933288574E-1,9.553588867E0,-9.472015381E0
9.431242908E0,-2.011718750E-1,9.555953979E0,-9.484802246E0
9.436278308E0,-1.565551758E-1,9.531387329E0,-9.462982178E0
9.441313708E0,-1.735839844E-1,9.557525635E0,-9.451477051E0
9.446349109E0,-1.960296631E-1,9.535461426E0,-9.450393677E0
9.451384509E0,-2.067260742E-1,9.550216675E0,-9.419906616E0
9.456419910E0,-1.831359863E-1,9.558502197E0,-9.414840698E0
9.461455310E0,-1.948547363E-1,9.601715088E0,-9.394439697E0
9.466490710E0,-2.161407471E-1,9.551818848E0,-9.354522705E0
9.471526111E0,-1.709136963E-1,9.554077148E0,-9.442779541E0
9.476561511E0,-2.161865234E-1,9.593948364E0,-9.443283081E0
9.481596912E0,-2.218017578E-1,9.552108765E0,-9.469268799E0
9.486632312E0,-2.123260498E-1,9.540344238E0,-9.428894043E0
9.491667712E0,-2.160186768E-1,9.605758667E0,-9.416931152E0
9.496703113E0,-1.607360840E-1,9.561294556E0,-9.411239624E0
9.501738513E0,-1.854095459E-1,9.558059692E0,-9.451034546E0
9.506773914E0,-1.724853516E-1,9.541625977E0,-9.412826538E0
9.511809314E0,-2.234039307E-1,9.609100342E0,-9.425201416E0
9.516844714E0,-2.119293213E-1,9.578399658E0,-9.468765259E0
9.521880115E0,-2.035980225E-1,9.580383301E0,-9.431091309E0
9.526915515E0,-1.646881104E-1,9.553878784E0,-9.405410767E0
9.531950915E0,-1.669158936E-1,9.535690308E0,-9.405868530E0
9.536986316E0,-1.852722168E-1,9.569519043E0,-9.388046265E0
9.542021716E0,-1.959838867E-1,9.530731201E0,-9.359848022E0
9.547057117E0,-1.965637207E-1,9.549636841E0,-9.409713745E0
9.552092517E0,-1.988067627E-1,9.556213379E0,-9.449188232E0
9.557127917E0,-2.381286621E-1,9.523773193E0,-9.460403442E0
9.562163318E0,-1.865234375E-1,9.547546387E0,-9.468383789E0
9.567198718E0,-1.980133057E-1,9.552352905E0,-9.397933960E0
9.572234119E0,-1.959838867E-1,9.567825317E0,-9.380187988E0
9.577269519E0,-1.906585693E-1,9.575225830E0,-9.424850464E0
9.582304919E0,-2.014617920E-1,9.539718628E0,-9.435791016E0
9.587340320E0,-2.086181641E-1,9.524322510E0,-9.414138794E0
9.592375720E0,-1.986694336E-1,9.572357178E0,-9.431655884E0
9.597411121E0,-1.990509033E-1,9.580764771E0,-9.451904297E0
9.602446521E0,-1.949462891E-1,9.561630249E0,-9.425048828E0
9.607481921E0,-2.078704834E-1,9.527313232E0,-9.428985596E0
9.612517322E0,-2.264404297E-1,9.537048340E0,-9.420455933E0
9.617552722E0,-1.995849609E-1,9.555053711E0,-9.433029175E0
9.622588122E0,-1.952819824E-1,9.536590576E0,-9.424865723E0
9.627623523E0,-1.972503662E-1,9.534133911E0,-9.445022583E0
9.632658923E0,-2.406158447E-1,9.545074463E0,-9.405166626E0
9.637694324E0,-2.252349854E-1,9.544799805E0,-9.409683228E0
9.642729724E0,-2.075347900E-1,9.564071655E0,-9.408645630E0
9.647765124E0,-2.065734863E-1,9.580459595E0,-9.427444458E0
9.652800525E0,-2.180786133E-1,9.587554932E0,-9.468231201E0
9.657835925E0,-2.299804688E-1,9.592651367E0,-9.450714111E0
9.662871326E0,-2.302398682E-1,9.582626343E0,-9.433227539E0
9.667906726E0,-2.376251221E-1,9.557037354E0,-9.414688110E0
9.672942126E0,-2.248535156E-1,9.558502197E0,-9.422592163E0
9.677977527E0,-2.226562500E-1,9.564987183E0,-9.469650269E0
9.683012927E0,-2.184906006E-1,9.547393799E0,-9.480377197E0
9.688048328E0,-2.183380127E-1,9.541198730E0,-9.446685791E0
9.693083728E0,-2.313385010E-1,9.555526733E0,-9.413085938E0
9.698119128E0,-2.175292969E-1,9.560241699E0,-9.407928467E0
9.703154529E0,-1.974487305E-1,9.567794800E0,-9.403121948E0
9.708189929E0,-2.132263184E-1,9.562744141E0,-9.434005737E0
9.713225330E0,-2.111968994E-1,9.517944336E0,-9.406585693E0
9.718260730E0,-2.038726807E-1,9.496810913E0,-9.428573608E0
9.723296130E0,-2.043151855E-1,9.529891968E0,-9.471939087E0
9.728331531E0,-2.333221436E-1,9.573791504E0,-9.474197388E0
9.733366931E0,-2.522277832E-1,9.553421021E0,-9.420532227E0
9.738402331E0,-2.325134277E-1,9.528930664E0,-9.373306274E0
9.743437732E0,-2.383270264E-1,9.552047729E0,-9.410583496E0
9.748473132E0,-2.387847900E-1,9.564590454E0,-9.459167480E0
9.753508533E0,-2.211151123E-1,9.552703857E0,-9.432373047E0
9.758543933E0,-2.130737305E-1,9.542266846E0,-9.418731689E0
9.763579333E0,-2.287597656E-1,9.566268921E0,-9.421829224E0
9.768614734E0,-2.226715088E-1,9.564590454E0,-9.423507690E0
9.773650134E0,-2.119750977E-1,9.538604736E0,-9.397033691E0
9.778685535E0,-2.288818359E-1,9.532135010E0,-9.458496094E0
9.783720935E0,-2.255249023E-1,9.555725098E0,-9.457885742E0
9.788756335E0,-2.110443115E-1,9.549377441E0,-9.482131958E0
9.793791736E0,-2.330932617E-1,9.561126709E0,-9.460372925E0
9.798827136E0,-2.445831299E-1,9.534591675E0,-9.442962646E0
9.803862537E0,-2.362670898E-1,9.542510986E0,-9.457717896E0
9.808897937E0,-2.356414795E-1,9.533706665E0,-9.433639526E0
9.813933337E0,-2.244567871E-1,9.540130615E0,-9.364425659E0
9.818968738E0,-2.277374268E-1,9.524581909E0,-9.417434692E0
9.824004138E0,-2.169647217E-1,9.542907715E0,-9.413330078E0
9.829039539E0,-2.146759033E-1,9.538955688E0,-9.420074463E0
9.834074939E0,-2.229156494E-1,9.562271118E0,-9.446533203E0
9.839110339E0,-2.450866699E-1,9.580734253E0,-9.437850952E0
9.844145740E0,-2.353057861E-1,9.544677734E0,-9.414932251E0
9.849181140E0,-2.315826416E-1,9.531356812E0,-9.423034668E0
9.854216540E0,-2.052307129E-1,9.554351807E0,-9.419845581E0
9.859251941E0,-2.799682617E-1,9.558807373E0,-9.426055908E0
9.864287341E0,-2.190704346E-1,9.536636353E0,-9.457855225E0
9.869322742E0,-2.576904297E-1,9.544235229E0,-9.428222656E0
9.874358142E0,-1.911315918E-1,9.569915771E0,-9.408233643E0
9.879393542E0,-2.303009033E-1,9.559280396E0,-9.423797607E0
9.884428943E0,-2.313385010E-1,9.584838867E0,-9.431259155E0
9.889464343E0,-2.503509521E-1,9.582656860E0,-9.460021973E0
9.894499744E0,-2.425537109E-1,9.561096191E0,-9.478332520E0
9.899535144E0,-2.062530518E-1,9.547225952E0,-9.445480347E0
9.904570544E0,-2.408599854E-1,9.552551270E0,-9.439529419E0
9.909605945E0,-2.412567139E-1,9.567840576E0,-9.412551880E0
9.914641345E0,-2.480010986E-1,9.556442261E0,-9.454956055E0
9.919676746E0,-2.470550537E-1,9.556686401E0,-9.423614502E0
9.924712146E0,-2.385101318E-1,9.579467773E0,-9.468521118E0
9.929747546E0,-2.563323975E-1,9.524765015E0,-9.435607910E0
9.934782947E0,-2.093200684E-1,9.539230347E0,-9.436065674E0
9.939818347E0,-2.417907715E-1,9.548782349E0,-9.467819214E0
9.944853747E0,-2.480010986E-1,9.531402588E0,-9.441207886E0
9.949889148E0,-2.465515137E-1,9.552566528E0,-9.457855225E0
9.954924548E0,-2.444000244E-1,9.554229736E0,-9.525054932E0
9.959959949E0,-2.674102783E-1,9.540206909E0,-9.442276001E0
9.964995349E0,-2.365570068E-1,9.535842896E0,-9.399902344E0
9.970030749E0,-2.389678955E-1,9.562362671E0,-9.515075684E0
9.975066150E0,-2.444458008E-1,9.567474365E0,-9.491348267E0
9.980101550E0,-2.537536621E-1,9.545669556E0,-9.468673706E0
9.985136951E0,-2.420043945E-1,9.567001343E0,-9.467361450E0
9.990172351E0,-2.546081543E-1,9.551864624E0,-9.438446045E0
9.995207751E0,-2.631225586E-1,9.561721802E0,-9.422088623E0
1.000024315E1,-2.195281982E-1,9.550125122E0,-9.440048218E0
1.000527855E1,-2.350311279E-1,9.550460815E0,-9.441406250E0
1.001031395E1,-2.360229492E-1,9.549255371E0,-9.437576294E0
1.001534935E1,-2.523193359E-1,9.551239014E0,-9.462570190E0
1.002038475E1,-2.432098389E-1,9.550933838E0,-9.434371948E0
1.002542015E1,-2.365570068E-1,9.552291870E0,-9.453659058E0
1.003045555E1,-2.138366699E-1,9.535507202E0,-9.468383789E0
1.003549096E1,-2.158050537E-1,9.547332764E0,-9.463562012E0
1.004052636E1,-2.200164795E-1,9.539169312E0,-9.438919067E0
1.004556176E1,-2.133636475E-1,9.529602051E0,-9.449600220E0
1.005059716E1,-2.094421387E-1,9.538558960E0,-9.403961182E0
1.005563256E1,-2.341461182E-1,9.535583496E0,-9.367889404E0
1.006066796E1,-2.554779053E-1,9.560699463E0,-9.431411743E0
1.006570336E1,-2.306365967E-1,9.555664062E0,-9.454772949E0
1.007073876E1,-2.038726807E-1,9.546630859E0,-9.457702637E0
1.007577416E1,-2.064208984E-1,9.549468994E0,-9.486892700E0
1.008080956E1,-2.150878906E-1,9.528137207E0,-9.466217041E0
1.008584496E1,-2.191772461E-1,9.537338257E0,-9.452850342E0
1.009088036E1,-2.193603516E-1,9.551849365E0,-9.446807861E0
1.009591576E1,-2.186584473E-1,9.579986572E0,-9.445632935E0
1.010095116E1,-2.464141846E-1,9.572814941E0,-9.475769043E0
1.010598656E1,-2.380676270E-1,9.549835205E0,-9.469345093E0
1.011102196E1,-2.102508545E-1,9.543701172E0,-9.439544678E0
1.011605736E1,-2.202453613E-1,9.539215088E0,-9.426391602E0
1.012109276E1,-2.364959717E-1,9.543701172E0,-9.406005859E0
1.012612816E1,-2.243194580E-1,9.541870117E0,-9.410766602E0
1.013116356E1,-2.017517090E-1,9.550003052E0,-9.415130615E0
1.013619896E1,-1.991424561E-1,9.549255371E0,-9.476959229E0
1.014123436E1,-2.148132324E-1,9.547714233E0,-9.479431152E0
1.014626976E1,-2.172241211E-1,9.538726807E0,-9.477462769E0
1.015130516E1,-2.318725586E-1,9.532806396E0,-9.471282959E0
1.015634056E1,-2.408599854E-1,9.555084229E0,-9.462295532E0
1.016137596E1,-2.522125244E-1,9.554779053E0,-9.478500366E0
1.016641136E1,-2.261810303E-1,9.524703979E0,-9.453094482E0
1.017144676E1,-2.207031250E-1,9.540618896E0,-9.409927368E0
1.017648217E1,-2.037048340E-1,9.534759521E0,-9.461242676E0
1.018151757E1,-2.338714600E-1,9.559310913E0,-9.444381714E0
1.018655297E1,-2.020721436E-1,9.558517456E0,-9.446640015E0
1.019158837E1,-2.220458984E-1,9.545242310E0,-9.452774048E0
1.019662377E1,-1.953887939E-1,9.533187866E0,-9.399826050E0
1.020165917E1,-2.282562256E-1,9.558242798E0,-9.424530029E0
1.020669457E1,-2.126159668E-1,9.549163818E0,-9.477554321E0
1.021172997E1,-1.936798096E-1,9.546615601E0,-9.448303223E0
1.021676537E1,-2.064208984E-1,9.550964355E0,-9.450134277E0
1.022180077E1,-2.138671875E-1,9.543960571E0,-9.452774048E0
1.022683617E1,-1.966705322E-1,9.558319092E0,-9.436767578E0
1.023187157E1,-2.034149170E-1,9.559326172E0,-9.443878174E0
1.023690697E1,-2.133941650E-1,9.552810669E0,-9.464157104E0
1.024194237E1,-1.917114258E-1,9.556015015E0,-9.500457764E0
1.024697777E1,-2.520294189E-1,9.562957764E0,-9.477600098E0
1.025201317E1,-1.912231445E-1,9.570190430E0,-9.508529663E0
