"Time (s)","Gyroscope x (rad/s)","Gyroscope y (rad/s)","Gyroscope z (rad/s)"
4.027865300E-1,4.302978516E-3,-4.425048828E-4,-4.577636719E-4
4.078219310E-1,5.126953125E-3,-1.251220703E-3,-4.577636719E-4
4.128573310E-1,4.425048828E-3,-5.645751953E-4,-1.831054688E-3
4.178927310E-1,4.058837891E-3,-1.586914062E-3,-1.190185547E-3
4.229281320E-1,4.058837891E-3,-1.617431641E-3,-4.577636719E-4
4.279635320E-1,4.058837891E-3,-1.251220703E-3,-4.577636719E-4
4.329989330E-1,4.058837891E-3,-5.187988281E-4,-4.577636719E-4
4.380343330E-1,4.058837891E-3,-9.460449219E-4,-1.205444336E-3
4.430697330E-1,3.280639648E-3,-1.251220703E-3,-1.525878906E-3
4.481051340E-1,2.197265625E-3,-1.251220703E-3,-1.525878906E-3
4.531405340E-1,2.716064453E-3,-2.059936523E-3,-1.525878906E-3
4.581759350E-1,2.990722656E-3,-3.143310547E-3,-7.019042969E-4
4.632113350E-1,2.151489258E-3,-2.563476562E-3,3.814697266E-4
4.682467350E-1,1.922607422E-3,-1.495361328E-3,-2.136230469E-4
4.732821360E-1,3.616333008E-3,-2.105712891E-3,-2.151489258E-3
4.783175360E-1,3.189086914E-3,-3.189086914E-3,-8.544921875E-4
4.833529370E-1,3.860473633E-3,-3.387451172E-3,-4.577636719E-4
4.883883370E-1,4.058837891E-3,-2.502441406E-3,-2.227783203E-3
4.934237370E-1,3.143310547E-3,3.814697266E-4,-2.593994141E-3
4.984591380E-1,3.906250000E-3,-4.577636719E-5,-7.476806641E-4
5.034945380E-1,3.128051758E-3,-1.831054688E-4,-4.577636719E-4
5.085299380E-1,2.044677734E-3,-1.831054688E-4,-4.577636719E-4
5.135653390E-1,2.868652344E-3,-1.144409180E-3,-1.403808594E-3
5.186007390E-1,2.990722656E-3,-2.227783203E-3,-5.493164062E-4
5.236361400E-1,2.990722656E-3,-2.319335938E-3,-4.577636719E-4
5.286715400E-1,2.990722656E-3,-3.326416016E-3,-4.577636719E-4
5.337069400E-1,2.990722656E-3,-1.373291016E-3,-1.464843750E-3
5.387423410E-1,3.997802734E-3,-2.441406250E-4,-1.525878906E-3
5.437777410E-1,3.005981445E-3,8.544921875E-4,-1.525878906E-3
5.488131420E-1,1.922607422E-3,-1.235961914E-3,-2.578735352E-3
5.538485420E-1,2.990722656E-3,-1.831054688E-4,-1.525878906E-3
5.588839420E-1,2.990722656E-3,-1.831054688E-4,-1.525878906E-3
5.639193430E-1,4.028320312E-3,8.850097656E-4,-1.541137695E-3
5.689547430E-1,2.944946289E-3,7.934570312E-4,-2.593994141E-3
5.739901440E-1,1.922607422E-3,-1.205444336E-3,-2.532958984E-3
5.790255440E-1,1.922607422E-3,-1.831054688E-4,-1.525878906E-3
5.840609440E-1,1.754760742E-3,-1.831054688E-4,-1.678466797E-3
5.890963450E-1,6.103515625E-5,-1.831054688E-4,-3.662109375E-3
5.941317450E-1,2.883911133E-3,-2.899169922E-4,-3.662109375E-3
5.991671450E-1,1.922607422E-3,-1.022338867E-3,-3.662109375E-3
6.042025460E-1,1.647949219E-3,8.850097656E-4,-3.524780273E-3
6.092379460E-1,-2.136230469E-4,5.798339844E-4,-2.441406250E-3
6.142733470E-1,-6.103515625E-5,-1.419067383E-3,-1.525878906E-3
6.193087470E-1,6.713867188E-4,-2.151489258E-3,-1.525878906E-3
6.243441470E-1,-2.136230469E-4,-1.449584961E-3,-1.525878906E-3
6.293795480E-1,1.678466797E-4,-2.716064453E-3,-1.708984375E-3
6.344149480E-1,1.922607422E-3,-4.028320312E-3,-2.593994141E-3
6.394503490E-1,1.693725586E-3,-2.319335938E-3,-2.365112305E-3
6.444857490E-1,6.103515625E-4,-2.563476562E-3,-1.525878906E-3
6.495211490E-1,-2.136230469E-4,-3.387451172E-3,-2.029418945E-3
6.545565500E-1,-2.136230469E-4,-3.387451172E-3,-3.387451172E-3
6.595919500E-1,6.103515625E-5,-3.677368164E-3,-2.593994141E-3
6.646273510E-1,5.493164062E-4,-4.165649414E-3,-2.883911133E-3
6.696627510E-1,3.967285156E-4,-3.082275391E-3,-3.662109375E-3
6.746981510E-1,1.586914062E-3,-2.319335938E-3,-3.326416016E-3
6.797335520E-1,5.187988281E-4,-2.319335938E-3,-2.593994141E-3
6.847689520E-1,-2.136230469E-4,-2.319335938E-3,-2.243041992E-3
6.898043530E-1,-2.136230469E-4,-1.968383789E-3,-1.525878906E-3
6.948397530E-1,-5.950927734E-4,-1.632690430E-3,-1.892089844E-3
6.998751530E-1,-9.002685547E-4,-2.319335938E-3,-2.197265625E-3
7.049105540E-1,-2.136230469E-4,-2.319335938E-3,-1.525878906E-3
7.099459540E-1,-2.136230469E-4,-1.907348633E-3,-1.525878906E-3
7.149813540E-1,-6.408691406E-4,-1.251220703E-3,-1.525878906E-3
7.200167550E-1,-8.544921875E-4,-1.693725586E-3,-2.395629883E-3
7.250521550E-1,-2.136230469E-4,-2.319335938E-3,-3.204345703E-3
7.300875560E-1,-1.144409180E-3,-2.792358398E-3,-2.593994141E-3
7.351229560E-1,-1.876831055E-3,-2.914428711E-3,-2.593994141E-3
7.401583560E-1,-1.281738281E-3,-1.342773438E-3,-1.602172852E-3
7.451937570E-1,-1.281738281E-3,-7.019042969E-4,-9.613037109E-4
7.502291570E-1,-1.281738281E-3,-2.288818359E-3,-2.029418945E-3
7.552645580E-1,-1.281738281E-3,-3.387451172E-3,-2.593994141E-3
7.602999580E-1,-1.281738281E-3,-2.853393555E-3,-1.495361328E-3
7.653353580E-1,-1.846313477E-3,-2.319335938E-3,-4.577636719E-4
7.703707590E-1,-1.220703125E-3,-2.899169922E-3,-1.022338867E-3
7.754061590E-1,-2.136230469E-4,-3.387451172E-3,-1.525878906E-3
7.804415600E-1,-8.239746094E-4,-2.792358398E-3,-1.525878906E-3
7.854769600E-1,-1.281738281E-3,-1.708984375E-3,-2.136230469E-3
7.905123600E-1,-6.561279297E-4,-1.251220703E-3,-1.953125000E-3
7.955477610E-1,-8.697509766E-4,-1.907348633E-3,-1.525878906E-3
8.005831610E-1,-1.937866211E-3,-4.287719727E-3,-2.166748047E-3
8.056185620E-1,-2.349853516E-3,-5.523681641E-3,-1.922607422E-3
8.106539620E-1,-1.678466797E-3,-5.523681641E-3,-8.392333984E-4
8.156893620E-1,-1.281738281E-3,-5.523681641E-3,-4.577636719E-4
8.207247630E-1,-1.998901367E-3,-4.119873047E-3,-1.159667969E-3
8.257601630E-1,-1.632690430E-3,-4.119873047E-3,-1.525878906E-3
8.307955630E-1,-2.761840820E-3,-2.990722656E-3,-2.258300781E-3
8.358309640E-1,-2.685546875E-3,-1.586914062E-3,-1.846313477E-3
8.408663640E-1,-2.349853516E-3,-1.251220703E-3,-1.525878906E-3
8.459017650E-1,-1.586914062E-3,-1.251220703E-3,-1.525878906E-3
8.509371650E-1,-5.035400391E-4,-2.044677734E-3,-1.525878906E-3
8.559725650E-1,-2.136230469E-4,-3.128051758E-3,7.629394531E-5
8.610079660E-1,-2.136230469E-4,-3.387451172E-3,-1.983642578E-4
8.660433660E-1,-1.052856445E-3,-2.563476562E-3,-4.577636719E-4
8.710787670E-1,-1.281738281E-3,-1.495361328E-3,-4.577636719E-4
8.761141670E-1,-1.281738281E-3,-1.251220703E-3,-4.577636719E-4
8.811495670E-1,-1.281738281E-3,-1.251220703E-3,-4.577636719E-4
8.861849680E-1,-4.119873047E-4,-2.136230469E-3,-1.327514648E-3
8.912203680E-1,-1.998901367E-3,-2.319335938E-3,-1.525878906E-3
8.962557690E-1,-1.449584961E-3,-2.319335938E-3,-2.426147461E-3
9.012911690E-1,-2.212524414E-3,-1.403808594E-3,-1.663208008E-3
9.063265690E-1,-1.419067383E-3,-2.197265625E-3,-1.525878906E-3
9.113619700E-1,-1.281738281E-3,-3.265380859E-3,-1.525878906E-3
9.163973700E-1,-1.281738281E-3,-1.480102539E-3,-1.525878906E-3
9.214327700E-1,-3.204345703E-4,-2.227783203E-3,-1.525878906E-3
9.264681710E-1,-1.205444336E-3,-2.319335938E-3,-1.525878906E-3
9.315035710E-1,-1.281738281E-3,-1.327514648E-3,-1.525878906E-3
9.365389720E-1,-2.746582031E-4,7.781982422E-4,-2.532958984E-3
9.415743720E-1,-2.136230469E-4,-1.525878906E-4,-1.556396484E-3
9.466097720E-1,-1.251220703E-3,-1.831054688E-4,-4.882812500E-4
9.516451730E-1,-2.288818359E-4,-1.251220703E-3,-4.577636719E-4
9.566805730E-1,-1.281738281E-3,-1.251220703E-3,-4.577636719E-4
9.617159740E-1,-1.281738281E-3,-1.251220703E-3,-4.577636719E-4
9.667513740E-1,-1.678466797E-4,-1.251220703E-3,-4.730224609E-4
9.717867740E-1,1.876831055E-3,-1.220703125E-3,-1.525878906E-3
9.768221750E-1,8.544921875E-4,-2.441406250E-4,-1.571655273E-3
9.818575750E-1,8.544921875E-4,-1.190185547E-3,-2.517700195E-3
9.868929760E-1,8.544921875E-4,-1.831054688E-4,-1.358032227E-3
9.919283760E-1,9.460449219E-4,-1.831054688E-4,5.187988281E-4
9.969637760E-1,1.922607422E-3,-1.831054688E-4,-4.577636719E-4
1.001999177E0,1.800537109E-3,-3.051757812E-4,-3.356933594E-4
1.007034577E0,7.171630859E-4,-1.129150391E-3,4.882812500E-4
1.012069978E0,-2.136230469E-4,-4.577636719E-5,-3.051757812E-4
1.017105378E0,-6.103515625E-5,5.645751953E-4,6.103515625E-4
1.022140778E0,1.022338867E-3,-1.251220703E-3,4.425048828E-4
1.027176179E0,1.922607422E-3,-1.251220703E-3,-4.577636719E-4
1.032211579E0,1.922607422E-3,-1.449584961E-3,-2.593994141E-4
1.037246979E0,1.922607422E-3,-2.120971680E-3,8.239746094E-4
1.042282380E0,1.693725586E-3,-1.480102539E-3,1.464843750E-3
1.047317780E0,6.103515625E-4,-2.090454102E-3,3.814697266E-4
1.052353181E0,3.051757812E-5,-1.007080078E-3,-4.577636719E-4
1.057388581E0,8.544921875E-4,-1.831054688E-4,-4.577636719E-4
1.062423981E0,1.129150391E-3,-1.831054688E-4,-1.678466797E-4
1.067459382E0,1.922607422E-3,-1.831054688E-4,6.103515625E-4
1.072494782E0,1.617431641E-3,-1.831054688E-4,3.204345703E-4
1.077530183E0,8.544921875E-4,-1.831054688E-4,1.831054688E-4
1.082565583E0,8.544921875E-4,-1.831054688E-4,1.678466797E-3
1.087600983E0,5.035400391E-4,-1.831054688E-4,1.678466797E-3
1.092636384E0,-2.136230469E-4,-5.493164062E-4,1.678466797E-3
1.097671784E0,1.525878906E-4,-8.850097656E-4,1.312255859E-3
1.102707185E0,8.544921875E-4,-1.831054688E-4,1.007080078E-3
1.107742585E0,1.251220703E-3,-5.950927734E-4,1.281738281E-3
1.112777985E0,1.922607422E-3,-1.251220703E-3,1.983642578E-4
1.117813386E0,1.922607422E-3,-1.251220703E-3,3.967285156E-4
1.122848786E0,1.922607422E-3,-1.251220703E-3,1.251220703E-3
1.127884187E0,1.922607422E-3,-1.708984375E-3,1.525878906E-3
1.132919587E0,1.922607422E-3,-1.403808594E-3,2.746582031E-3
1.137954987E0,1.922607422E-3,-1.831054688E-4,1.312255859E-3
1.142990388E0,1.922607422E-3,-6.866455078E-4,5.340576172E-4
1.148025788E0,9.002685547E-4,-7.476806641E-4,1.678466797E-3
1.153061188E0,2.899169922E-4,-1.831054688E-4,2.197265625E-3
1.158096589E0,1.373291016E-3,-7.171630859E-4,1.693725586E-3
1.163131989E0,1.922607422E-3,-1.251220703E-3,2.243041992E-3
1.168167390E0,3.036499023E-3,-1.251220703E-3,2.700805664E-3
1.173202790E0,4.058837891E-3,-1.251220703E-3,1.678466797E-3
1.178238190E0,3.463745117E-3,-1.846313477E-3,1.098632812E-3
1.183273591E0,2.990722656E-3,-1.724243164E-3,1.525878906E-5
1.188308991E0,2.990722656E-3,-4.577636719E-5,1.525878906E-4
1.193344392E0,2.365112305E-3,2.593994141E-4,6.103515625E-4
1.198379792E0,1.281738281E-3,-8.239746094E-4,1.251220703E-3
1.203415192E0,8.544921875E-4,-1.907348633E-3,1.678466797E-3
1.208450593E0,1.510620117E-3,-2.319335938E-3,1.678466797E-3
1.213485993E0,1.235961914E-3,-1.647949219E-3,1.007080078E-3
1.218521394E0,2.227783203E-3,-1.251220703E-3,-7.629394531E-5
1.223556794E0,2.990722656E-3,-5.493164062E-4,2.593994141E-4
1.228592194E0,2.258300781E-3,5.340576172E-4,2.059936523E-3
1.233627595E0,1.174926758E-3,-5.950927734E-4,2.014160156E-3
1.238662995E0,1.586914062E-3,-5.187988281E-4,1.678466797E-3
1.243698395E0,1.922607422E-3,-1.831054688E-4,1.678466797E-4
1.248733796E0,1.922607422E-3,-1.831054688E-4,-1.220703125E-3
1.253769196E0,2.700805664E-3,-9.765625000E-4,-1.525878906E-3
1.258804597E0,2.990722656E-3,-1.251220703E-3,-7.171630859E-4
1.263839997E0,2.990722656E-3,3.662109375E-4,1.174926758E-3
1.268875397E0,2.990722656E-3,4.577636719E-5,2.517700195E-3
1.273910798E0,2.151489258E-3,6.408691406E-4,1.083374023E-3
1.278946198E0,1.922607422E-3,3.051757812E-5,-2.288818359E-4
1.283981599E0,1.052856445E-3,6.713867188E-4,-4.577636719E-4
1.289016999E0,8.544921875E-4,8.850097656E-4,4.272460938E-4
1.294052399E0,2.624511719E-3,-1.525878906E-5,6.103515625E-4
1.299087800E0,2.075195312E-3,7.171630859E-4,-1.190185547E-3
1.304123200E0,1.922607422E-3,-4.577636719E-5,3.204345703E-4
1.309158601E0,9.918212891E-4,7.324218750E-4,6.103515625E-4
1.314194001E0,8.544921875E-4,8.850097656E-4,-3.204345703E-4
1.319229401E0,1.800537109E-3,8.850097656E-4,-1.403808594E-3
1.324264802E0,9.460449219E-4,-9.155273438E-5,4.272460938E-4
1.329300202E0,8.544921875E-4,-1.831054688E-4,6.103515625E-4
1.334335603E0,8.544921875E-4,8.087158203E-4,-3.814697266E-4
1.339371003E0,1.861572266E-3,-1.373291016E-4,5.645751953E-4
1.344406403E0,1.922607422E-3,-1.205444336E-3,-3.967285156E-4
1.349441804E0,1.922607422E-3,-1.251220703E-3,-1.480102539E-3
1.354477204E0,-1.831054688E-4,8.392333984E-4,-4.730224609E-4
1.359512604E0,8.392333984E-4,1.937866211E-3,-1.510620117E-3
1.364548005E0,8.544921875E-4,-1.831054688E-4,-4.577636719E-4
1.369583405E0,8.544921875E-4,-1.678466797E-4,-4.730224609E-4
1.374618806E0,8.544921875E-4,9.155273438E-4,-1.525878906E-3
1.379654206E0,7.934570312E-4,1.953125000E-3,-1.419067383E-3
1.384689606E0,-2.746582031E-4,1.831054688E-3,5.645751953E-4
1.389725007E0,-1.220703125E-3,-1.831054688E-4,-5.950927734E-4
1.394760407E0,-1.373291016E-4,-1.068115234E-4,-2.593994141E-3
1.399795808E0,7.476806641E-4,9.765625000E-4,-2.593994141E-3
1.404831208E0,-3.356933594E-4,1.831054688E-3,-2.700805664E-3
1.409866608E0,-1.281738281E-3,8.850097656E-4,-3.524780273E-3
1.414902009E0,-1.144409180E-3,8.850097656E-4,-2.441406250E-3
1.419937409E0,7.629394531E-5,1.022338867E-3,-1.525878906E-3
1.424972810E0,2.075195312E-3,1.617431641E-3,-1.525878906E-3
1.430008210E0,2.456665039E-3,-1.525878906E-5,-1.525878906E-3
1.435043610E0,-3.051757812E-5,1.068115234E-3,-1.907348633E-3
1.440079011E0,8.544921875E-4,1.739501953E-3,-3.234863281E-3
1.445114411E0,8.544921875E-4,8.850097656E-4,-1.296997070E-3
1.450149812E0,1.083374023E-3,8.850097656E-4,-6.866455078E-4
1.455185212E0,1.678466797E-3,8.850097656E-4,-1.754760742E-3
1.460220612E0,5.950927734E-4,8.850097656E-4,-2.334594727E-3
1.465256013E0,6.103515625E-5,5.950927734E-4,-1.235961914E-3
1.470291413E0,8.544921875E-4,-4.730224609E-4,-1.022338867E-3
1.475326813E0,1.144409180E-3,-9.613037109E-4,-2.593994141E-3
1.480362214E0,1.922607422E-3,-1.831054688E-4,-2.899169922E-3
1.485397614E0,2.243041992E-3,-1.831054688E-4,-3.326416016E-3
1.490433015E0,2.304077148E-3,1.525878906E-4,-2.243041992E-3
1.495468415E0,8.544921875E-4,1.678466797E-4,-1.876831055E-3
1.500503815E0,8.544921875E-4,-1.251220703E-3,-2.212524414E-3
1.505539216E0,8.544921875E-4,-8.850097656E-4,-1.892089844E-3
1.510574616E0,8.544921875E-4,-1.831054688E-4,-2.593994141E-3
1.515610017E0,4.425048828E-4,-1.831054688E-4,-2.990722656E-3
1.520645417E0,-6.408691406E-4,-1.831054688E-4,-3.234863281E-3
1.525680817E0,-8.544921875E-4,-6.256103516E-4,-2.593994141E-3
1.530716218E0,-2.136230469E-4,-1.251220703E-3,-3.036499023E-3
1.535751618E0,-2.136230469E-4,-7.934570312E-4,-4.119873047E-3
1.540787019E0,2.441406250E-4,-1.831054688E-4,-3.784179688E-3
1.545822419E0,8.544921875E-4,-6.713867188E-4,-3.067016602E-3
1.550857819E0,8.544921875E-4,-2.746582031E-4,-3.662109375E-3
1.555893220E0,8.544921875E-4,1.388549805E-3,-3.143310547E-3
1.560928620E0,1.373291016E-3,1.419067383E-3,-2.593994141E-3
1.565964020E0,1.373291016E-3,8.850097656E-4,-2.593994141E-3
1.570999421E0,2.899169922E-4,3.204345703E-4,-2.029418945E-3
1.576034821E0,-1.342773438E-3,-1.831054688E-4,-2.075195312E-3
1.581070222E0,-1.205444336E-3,-7.629394531E-4,-2.593994141E-3
1.586105622E0,-8.087158203E-4,-6.713867188E-4,-3.768920898E-3
1.591141022E0,-1.281738281E-3,-1.831054688E-4,-4.119873047E-3
1.596176423E0,-1.907348633E-3,-1.831054688E-4,-3.662109375E-3
1.601211823E0,-4.730224609E-4,-1.831054688E-4,-3.021240234E-3
1.606247224E0,1.983642578E-4,-1.831054688E-4,-3.875732422E-3
1.611282624E0,-8.697509766E-4,-1.831054688E-4,-5.371093750E-3
1.616318024E0,-6.256103516E-4,-8.544921875E-4,-5.126953125E-3
1.621353425E0,-2.136230469E-4,-1.937866211E-3,-4.043579102E-3
1.626388825E0,-2.136230469E-4,-1.632690430E-3,-5.050659180E-3
1.631424226E0,-2.136230469E-4,1.525878906E-4,-5.081176758E-3
1.636459626E0,-2.136230469E-4,1.525878906E-4,-3.280639648E-3
1.641495026E0,-2.136230469E-4,-9.307861328E-4,-2.593994141E-3
1.646530427E0,-9.613037109E-4,2.288818359E-4,-2.593994141E-3
1.651565827E0,-5.187988281E-4,8.850097656E-4,-3.356933594E-3
1.656601228E0,-2.136230469E-4,-6.713867188E-4,-4.425048828E-3
1.661636628E0,5.645751953E-4,-1.251220703E-3,-4.730224609E-3
1.666672028E0,4.577636719E-5,-4.577636719E-4,-4.730224609E-3
1.671707429E0,5.950927734E-4,-1.007080078E-3,-3.906250000E-3
1.676742829E0,8.544921875E-4,-1.251220703E-3,-4.486083984E-3
1.681778229E0,8.544921875E-4,-4.119873047E-4,-4.730224609E-3
1.686813630E0,-1.525878906E-5,-1.052856445E-3,-3.860473633E-3
1.691849030E0,-1.098632812E-3,-1.251220703E-3,-2.777099609E-3
1.696884431E0,-4.119873047E-4,-3.814697266E-4,-4.348754883E-3
1.701919831E0,-1.113891602E-3,-1.831054688E-4,-3.829956055E-3
1.706955231E0,-3.814697266E-4,-1.831054688E-4,-4.562377930E-3
1.711990632E0,7.019042969E-4,-1.113891602E-3,-3.799438477E-3
1.717026032E0,8.544921875E-4,-2.197265625E-3,-3.662109375E-3
1.722061433E0,-1.068115234E-4,-2.319335938E-3,-2.700805664E-3
1.727096833E0,-2.136230469E-4,-2.319335938E-3,-4.516601562E-3
1.732132233E0,-2.136230469E-4,-2.319335938E-3,-4.730224609E-3
1.737167634E0,-1.205444336E-3,-1.342773438E-3,-4.730224609E-3
1.742203034E0,-2.899169922E-4,-2.593994141E-4,-2.716064453E-3
1.747238435E0,7.934570312E-4,-1.205444336E-3,-2.593994141E-3
1.752273835E0,8.544921875E-4,-1.251220703E-3,-1.556396484E-3
1.757309235E0,8.544921875E-4,-2.136230469E-4,-2.563476562E-3
1.762344636E0,1.907348633E-3,-1.831054688E-4,-1.525878906E-3
1.767380036E0,1.922607422E-3,-1.251220703E-3,-2.593994141E-3
1.772415437E0,1.907348633E-3,-1.251220703E-3,-3.662109375E-3
1.777450837E0,8.544921875E-4,-1.235961914E-3,-3.662109375E-3
1.782486237E0,8.544921875E-4,-2.288818359E-4,-3.570556641E-3
1.787521638E0,9.002685547E-4,-1.205444336E-3,-1.525878906E-3
1.792557038E0,1.983642578E-3,-1.220703125E-4,-1.525878906E-3
1.797592438E0,2.990722656E-3,7.171630859E-4,-1.525878906E-3
1.802627839E0,2.883911133E-3,-1.358032227E-3,-1.617431641E-3
1.807663239E0,1.922607422E-3,-2.120971680E-3,-2.593994141E-3
1.812698640E0,1.922607422E-3,-3.051757812E-4,-2.593994141E-3
1.817734040E0,1.785278320E-3,-1.388549805E-3,-2.593994141E-3
1.822769440E0,9.918212891E-4,-2.182006836E-3,-2.441406250E-3
1.827804841E0,2.075195312E-3,-9.460449219E-4,-1.525878906E-3
1.832840241E0,2.990722656E-3,7.019042969E-4,-1.693725586E-3
1.837875642E0,2.792358398E-3,-3.814697266E-4,-2.395629883E-3
1.842911042E0,1.922607422E-3,-1.449584961E-3,-1.525878906E-3
1.847946442E0,1.922607422E-3,-2.120971680E-3,-1.312255859E-3
1.852981843E0,2.136230469E-3,-1.480102539E-3,-2.288818359E-4
1.858017243E0,3.219604492E-3,-2.319335938E-3,8.544921875E-4
1.863052644E0,3.540039062E-3,-2.319335938E-3,1.434326172E-3
1.868088044E0,2.182006836E-3,-1.785278320E-3,7.629394531E-5
1.873123444E0,2.990722656E-3,-1.831054688E-4,-9.613037109E-4
1.878158845E0,2.990722656E-3,1.068115234E-4,6.103515625E-4
1.883194245E0,2.990722656E-3,2.593994141E-4,3.051757812E-4
1.888229645E0,2.990722656E-3,-1.251220703E-3,-4.577636719E-4
1.893265046E0,3.311157227E-3,-1.251220703E-3,-7.781982422E-4
1.898300446E0,4.058837891E-3,-1.251220703E-3,-1.174926758E-3
1.903335847E0,4.058837891E-3,-9.002685547E-4,2.746582031E-4
1.908371247E0,4.058837891E-3,-9.307861328E-4,1.312255859E-3
1.913406647E0,3.662109375E-3,-1.937866211E-3,2.288818359E-4
1.918442048E0,2.578735352E-3,-8.544921875E-4,-4.577636719E-5
1.923477448E0,2.334594727E-3,-1.831054688E-4,1.037597656E-3
1.928512849E0,3.402709961E-3,-1.831054688E-4,1.266479492E-3
1.933548249E0,4.058837891E-3,-6.256103516E-4,6.103515625E-4
1.938583649E0,3.601074219E-3,-1.251220703E-3,1.678466797E-4
1.943619050E0,3.906250000E-3,-1.251220703E-3,-9.155273438E-4
1.948654450E0,4.150390625E-3,-1.739501953E-3,-1.037597656E-3
1.953689851E0,3.479003906E-3,-1.831054688E-3,-4.577636719E-4
1.958725251E0,4.058837891E-3,-7.476806641E-4,6.103515625E-5
1.963760651E0,3.540039062E-3,-7.019042969E-4,1.068115234E-4
1.968796052E0,3.509521484E-3,-7.324218750E-4,-4.577636719E-4
1.973831452E0,2.960205078E-3,-1.831054688E-4,6.408691406E-4
1.978866853E0,2.471923828E-3,-7.476806641E-4,2.243041992E-3
1.983902253E0,4.135131836E-3,-6.866455078E-4,2.746582031E-3
1.988937653E0,5.126953125E-3,3.967285156E-4,2.746582031E-3
1.993973054E0,4.516601562E-3,1.480102539E-3,2.151489258E-3
1.999008454E0,3.433227539E-3,7.171630859E-4,1.068115234E-3
2.004043854E0,2.990722656E-3,-1.831054688E-4,1.876831055E-3
2.009079255E0,3.631591797E-3,-1.831054688E-4,2.105712891E-3
2.014114655E0,4.699707031E-3,-8.392333984E-4,1.037597656E-3
2.019150056E0,2.441406250E-3,-5.950927734E-4,1.953125000E-3
2.024185456E0,1.525878906E-3,-1.831054688E-4,2.746582031E-3
2.029220856E0,1.922607422E-3,-1.831054688E-4,2.746582031E-3
2.034256257E0,1.205444336E-3,-1.831054688E-4,2.746582031E-3
2.039291657E0,1.571655273E-3,-1.831054688E-4,2.746582031E-3
2.044327058E0,1.922607422E-3,1.281738281E-3,3.494262695E-3
2.049362458E0,1.922607422E-3,1.205444336E-3,3.814697266E-3
2.054397858E0,3.433227539E-3,8.850097656E-4,3.814697266E-3
2.059433259E0,3.280639648E-3,1.068115234E-4,1.495361328E-3
2.064468659E0,2.990722656E-3,-1.831054688E-4,6.103515625E-4
2.069504060E0,3.784179688E-3,-1.831054688E-4,1.419067383E-3
2.074539460E0,3.234863281E-3,-1.831054688E-4,3.326416016E-3
2.079574860E0,2.990722656E-3,6.408691406E-4,2.990722656E-3
2.084610261E0,2.990722656E-3,8.850097656E-4,2.746582031E-3
2.089645661E0,2.120971680E-3,1.525878906E-5,1.892089844E-3
2.094681062E0,1.922607422E-3,6.866455078E-4,1.678466797E-3
2.099716462E0,1.922607422E-3,8.850097656E-4,2.563476562E-3
2.104751862E0,1.022338867E-3,-1.525878906E-5,2.746582031E-3
2.109787263E0,1.754760742E-3,1.632690430E-3,1.846313477E-3
2.114822663E0,2.838134766E-3,2.868652344E-3,2.609252930E-3
2.119858063E0,2.990722656E-3,3.021240234E-3,4.623413086E-3
2.124893464E0,2.029418945E-3,3.021240234E-3,2.975463867E-3
2.129928864E0,9.460449219E-4,3.021240234E-3,1.785278320E-3
2.134964265E0,8.544921875E-4,3.997802734E-3,2.670288086E-3
2.139999665E0,1.831054688E-3,2.105712891E-3,3.738403320E-3
2.145035065E0,2.929687500E-3,1.953125000E-3,3.814697266E-3
2.150070466E0,2.990722656E-3,2.960205078E-3,3.814697266E-3
2.155105866E0,9.155273438E-4,3.021240234E-3,3.814697266E-3
2.160141267E0,8.544921875E-4,4.043579102E-3,3.814697266E-3
2.165176667E0,1.907348633E-3,4.089355469E-3,3.814697266E-3
2.170212067E0,1.907348633E-3,3.021240234E-3,3.829956055E-3
2.175247468E0,-1.831054688E-4,2.990722656E-3,5.950927734E-3
2.180282868E0,1.922607422E-3,1.907348633E-3,5.950927734E-3
2.185318269E0,1.815795898E-3,8.850097656E-4,5.905151367E-3
2.190353669E0,-1.678466797E-4,9.307861328E-4,4.837036133E-3
2.195389069E0,7.781982422E-4,1.953125000E-3,3.890991211E-3
2.200424470E0,-2.136230469E-4,1.861572266E-3,4.806518555E-3
2.205459870E0,-2.136230469E-4,8.850097656E-4,3.723144531E-3
2.210495270E0,-2.136230469E-4,8.850097656E-4,2.975463867E-3
2.215530671E0,-9.155273438E-5,1.007080078E-3,4.760742188E-3
2.220566071E0,8.544921875E-4,1.800537109E-3,3.967285156E-3
2.225601472E0,9.918212891E-4,5.798339844E-4,4.592895508E-3
2.230636872E0,1.922607422E-3,-1.251220703E-3,2.746582031E-3
2.235672272E0,1.922607422E-3,-1.251220703E-3,2.746582031E-3
2.240707673E0,1.724243164E-3,-1.068115234E-3,2.944946289E-3
2.245743073E0,1.052856445E-3,-1.831054688E-4,3.814697266E-3
2.250778474E0,1.693725586E-3,3.051757812E-5,4.043579102E-3
2.255813874E0,6.103515625E-4,8.850097656E-4,4.882812500E-3
2.260849274E0,1.525878906E-5,1.113891602E-3,5.126953125E-3
2.265884675E0,8.544921875E-4,1.953125000E-3,6.210327148E-3
2.270920075E0,5.798339844E-4,1.678466797E-3,6.484985352E-3
2.275955476E0,-2.136230469E-4,8.850097656E-4,4.608154297E-3
2.280990876E0,-2.136230469E-4,5.798339844E-4,3.524780273E-3
2.286026276E0,-2.136230469E-4,1.220703125E-4,3.067016602E-3
2.291061677E0,-5.493164062E-4,5.493164062E-4,3.814697266E-3
2.296097077E0,-1.632690430E-3,4.882812500E-4,4.165649414E-3
2.301132478E0,-2.349853516E-3,1.235961914E-3,4.882812500E-3
2.306167878E0,-2.349853516E-3,-5.645751953E-4,4.882812500E-3
2.311203278E0,-2.349853516E-3,-8.850097656E-4,4.135131836E-3
2.316238679E0,-2.349853516E-3,1.983642578E-4,2.746582031E-3
2.321274079E0,-2.349853516E-3,8.850097656E-4,2.746582031E-3
2.326309479E0,-2.349853516E-3,4.577636719E-4,2.746582031E-3
2.331344880E0,-1.922607422E-3,-1.831054688E-4,2.746582031E-3
2.336380280E0,-1.739501953E-3,-1.831054688E-4,3.204345703E-3
2.341415681E0,-2.349853516E-3,2.746582031E-4,3.814697266E-3
2.346451081E0,-1.892089844E-3,8.850097656E-4,3.814697266E-3
2.351486481E0,-8.087158203E-4,8.850097656E-4,3.814697266E-3
2.356521882E0,-2.136230469E-4,3.814697266E-4,3.326416016E-3
2.361557282E0,-7.324218750E-4,-1.831054688E-4,3.265380859E-3
2.366592683E0,-2.334594727E-3,-1.831054688E-4,3.814697266E-3
2.371628083E0,-3.417968750E-3,3.509521484E-4,2.746582031E-3
2.376663483E0,-3.417968750E-3,1.434326172E-3,2.243041992E-3
2.381698884E0,-3.417968750E-3,1.388549805E-3,2.746582031E-3
2.386734284E0,-2.853393555E-3,3.051757812E-4,2.182006836E-3
2.391769685E0,-2.349853516E-3,-1.831054688E-4,2.273559570E-3
2.396805085E0,-2.349853516E-3,-1.831054688E-4,2.746582031E-3
2.401840485E0,-1.739501953E-3,-1.831054688E-4,3.372192383E-3
2.406875886E0,-1.922607422E-3,-1.831054688E-4,2.563476562E-3
2.411911286E0,-2.349853516E-3,4.577636719E-4,1.678466797E-3
2.416946687E0,-3.021240234E-3,2.136230469E-4,2.349853516E-3
2.421982087E0,-2.075195312E-3,4.882812500E-4,2.746582031E-3
2.427017487E0,-5.950927734E-4,1.831054688E-4,2.059936523E-3
2.432052888E0,-9.155273438E-4,-8.850097656E-4,2.380371094E-3
2.437088288E0,-1.281738281E-3,-5.493164062E-4,1.327514648E-3
2.442123688E0,-1.281738281E-3,5.340576172E-4,6.103515625E-4
2.447159089E0,-2.029418945E-3,-6.103515625E-4,6.103515625E-4
2.452194489E0,-1.602172852E-3,-1.251220703E-3,1.373291016E-3
2.457229890E0,-2.059936523E-3,-4.882812500E-4,9.155273438E-4
2.462265290E0,-3.128051758E-3,-1.831054688E-4,6.103515625E-4
2.467300690E0,-2.639770508E-3,-1.831054688E-4,6.103515625E-4
2.472336091E0,-3.158569336E-3,-9.918212891E-4,-1.831054688E-4
2.477371491E0,-3.417968750E-3,3.814697266E-4,3.662109375E-4
2.482406892E0,-2.593994141E-3,4.577636719E-5,6.103515625E-4
2.487442292E0,-6.713867188E-4,-1.831054688E-4,6.103515625E-4
2.492477692E0,-1.937866211E-3,6.713867188E-4,-2.441406250E-4
2.497513093E0,-2.349853516E-3,0.000000000E0,-4.577636719E-4
2.502548493E0,-2.349853516E-3,-1.068115234E-3,-1.327514648E-3
2.507583894E0,-2.349853516E-3,-3.662109375E-4,-6.256103516E-4
2.512619294E0,-2.349853516E-3,-1.831054688E-4,-4.577636719E-4
2.517654694E0,-1.434326172E-3,7.324218750E-4,-2.304077148E-3
2.522690095E0,-2.227783203E-3,-9.918212891E-4,-3.524780273E-3
2.527725495E0,-3.311157227E-3,-2.212524414E-3,-1.754760742E-3
2.532760895E0,-1.495361328E-3,-1.358032227E-3,-2.487182617E-3
2.537796296E0,-2.258300781E-3,-1.251220703E-3,-2.593994141E-3
2.542831696E0,-3.341674805E-3,7.171630859E-4,-2.593994141E-3
2.547867097E0,-4.425048828E-3,-1.220703125E-4,-2.593994141E-3
2.552902497E0,-3.479003906E-3,8.239746094E-4,-2.593994141E-3
2.557937897E0,-2.395629883E-3,8.850097656E-4,-2.593994141E-3
2.562973298E0,-2.746582031E-4,-1.678466797E-4,-2.593994141E-3
2.568008698E0,-1.281738281E-3,8.697509766E-4,-3.646850586E-3
2.573044099E0,-2.349853516E-3,-1.831054688E-4,-3.662109375E-3
2.578079499E0,-1.312255859E-3,-1.251220703E-3,-2.609252930E-3
2.583114899E0,-2.334594727E-3,-1.235961914E-3,-3.677368164E-3
2.588150300E0,-1.251220703E-3,-1.831054688E-4,-4.684448242E-3
2.593185700E0,-2.136230469E-4,-1.373291016E-4,-3.662109375E-3
2.598221101E0,-2.136230469E-4,6.866455078E-4,-3.662109375E-3
2.603256501E0,-3.967285156E-4,-2.410888672E-3,-3.662109375E-3
2.608291901E0,-2.258300781E-3,-3.295898438E-3,-3.662109375E-3
2.613327302E0,-1.281738281E-3,-2.227783203E-3,-3.753662109E-3
2.618362702E0,-1.281738281E-3,-1.129150391E-3,-4.730224609E-3
2.623398103E0,-1.159667969E-3,-1.831054688E-4,-4.730224609E-3
2.628433503E0,-2.136230469E-4,-1.831054688E-4,-4.577636719E-3
2.633468903E0,-3.814697266E-4,-1.831054688E-4,-3.814697266E-3
2.638504304E0,-1.281738281E-3,-1.525878906E-5,-4.730224609E-3
2.643539704E0,-1.281738281E-3,8.850097656E-4,-4.531860352E-3
2.648575104E0,-1.083374023E-3,6.713867188E-4,-3.662109375E-3
2.653610505E0,-6.561279297E-4,-4.119873047E-4,-3.875732422E-3
2.658645905E0,-2.120971680E-3,-1.495361328E-3,-4.486083984E-3
2.663681306E0,-1.052856445E-3,-2.319335938E-3,-3.662109375E-3
2.668716706E0,-2.136230469E-4,-1.815795898E-3,-3.906250000E-3
2.673752106E0,-4.882812500E-4,-1.831054688E-4,-4.730224609E-3
2.678787507E0,-1.281738281E-3,-1.831054688E-4,-5.004882812E-3
2.683822907E0,-9.918212891E-4,-4.882812500E-4,-5.798339844E-3
2.688858308E0,-2.136230469E-4,-1.251220703E-3,-5.798339844E-3
2.693893708E0,1.068115234E-4,-1.251220703E-3,-5.798339844E-3
2.698929108E0,5.187988281E-4,-1.586914062E-3,-6.118774414E-3
2.703964509E0,-2.136230469E-4,-2.319335938E-3,-6.515502930E-3
2.708999909E0,1.373291016E-4,-1.602172852E-3,-5.798339844E-3
2.714035310E0,4.730224609E-4,1.831054688E-4,-5.798339844E-3
2.719070710E0,1.678466797E-4,8.850097656E-4,-5.401611328E-3
2.724106110E0,8.544921875E-4,7.629394531E-5,-4.730224609E-3
2.729141511E0,4.272460938E-4,-8.392333984E-4,-5.142211914E-3
2.734176911E0,-2.136230469E-4,-1.831054688E-4,-5.798339844E-3
2.739212312E0,2.136230469E-4,-1.831054688E-4,-5.798339844E-3
2.744247712E0,8.544921875E-4,-1.831054688E-4,-5.798339844E-3
2.749283112E0,8.544921875E-4,-6.561279297E-4,-5.325317383E-3
2.754318513E0,8.544921875E-4,-2.227783203E-3,-5.203247070E-3
2.759353913E0,1.342773438E-3,-2.395629883E-3,-5.798339844E-3
2.764389313E0,1.922607422E-3,-1.251220703E-3,-6.286621094E-3
2.769424714E0,1.922607422E-3,-7.476806641E-4,-6.866455078E-3
2.774460114E0,1.373291016E-3,-1.831054688E-4,-6.866455078E-3
2.779495515E0,1.403808594E-3,-1.831054688E-4,-6.301879883E-3
2.784530915E0,1.358032227E-3,-7.476806641E-4,-6.347656250E-3
2.789566315E0,1.419067383E-3,-6.866455078E-4,-6.866455078E-3
2.794601716E0,1.327514648E-3,-1.831054688E-4,-6.866455078E-3
2.799637116E0,1.449584961E-3,-1.831054688E-4,-6.866455078E-3
2.804672517E0,1.922607422E-3,-8.087158203E-4,-6.866455078E-3
2.809707917E0,2.548217773E-3,0.000000000E0,-6.225585938E-3
2.814743317E0,2.990722656E-3,2.288818359E-4,-6.439208984E-3
2.819778718E0,2.990722656E-3,-8.392333984E-4,-6.210327148E-3
2.824814118E0,1.647949219E-3,-1.251220703E-3,-5.798339844E-3
2.829849519E0,1.525878906E-3,-1.937866211E-3,-5.798339844E-3
2.834884919E0,1.220703125E-3,-2.319335938E-3,-5.798339844E-3
2.839920319E0,1.556396484E-3,-2.319335938E-3,-5.798339844E-3
2.844955720E0,1.922607422E-3,-1.602172852E-3,-5.798339844E-3
2.849991120E0,1.922607422E-3,-1.998901367E-3,-5.798339844E-3
2.855026520E0,1.922607422E-3,-3.067016602E-3,-5.798339844E-3
2.860061921E0,1.922607422E-3,-2.639770508E-3,-5.798339844E-3
2.865097321E0,1.922607422E-3,-2.319335938E-3,-5.798339844E-3
2.870132722E0,2.700805664E-3,-3.112792969E-3,-5.798339844E-3
2.875168122E0,2.990722656E-3,-4.196166992E-3,-5.798339844E-3
2.880203522E0,2.990722656E-3,-3.646850586E-3,-6.607055664E-3
2.885238923E0,2.990722656E-3,-1.739501953E-3,-5.203247070E-3
2.890274323E0,2.990722656E-3,-1.251220703E-3,-4.730224609E-3
2.895309724E0,2.136230469E-3,-2.105712891E-3,-4.730224609E-3
2.900345124E0,1.922607422E-3,-2.319335938E-3,-6.469726562E-3
2.905380524E0,1.922607422E-3,-1.449584961E-3,-5.981445312E-3
2.910415925E0,1.922607422E-3,-3.662109375E-4,-5.798339844E-3
2.915451325E0,1.007080078E-3,-1.831054688E-4,-5.798339844E-3
2.920486726E0,2.685546875E-3,-1.113891602E-3,-4.867553711E-3
2.925522126E0,2.044677734E-3,-2.197265625E-3,-3.784179688E-3
2.930557526E0,9.613037109E-4,-2.319335938E-3,-4.608154297E-3
2.935592927E0,1.815795898E-3,-1.358032227E-3,-4.730224609E-3
2.940628327E0,1.922607422E-3,-2.899169922E-4,-3.753662109E-3
2.945663728E0,2.899169922E-3,-2.166748047E-3,-4.638671875E-3
2.950699128E0,2.990722656E-3,-1.327514648E-3,-2.716064453E-3
2.955734528E0,1.968383789E-3,-1.251220703E-3,-4.623413086E-3
2.960769929E0,8.850097656E-4,-2.288818359E-4,-4.730224609E-3
2.965805329E0,2.929687500E-3,-1.831054688E-4,-3.677368164E-3
2.970840729E0,4.043579102E-3,-1.251220703E-3,-3.662109375E-3
2.975876130E0,2.990722656E-3,-1.831054688E-4,-3.662109375E-3
2.980911530E0,2.975463867E-3,8.697509766E-4,-3.646850586E-3
2.985946931E0,1.922607422E-3,-1.831054688E-4,-2.609252930E-3
2.990982331E0,1.922607422E-3,-2.288818359E-4,-3.692626953E-3
2.996017731E0,1.922607422E-3,-1.251220703E-3,-4.669189453E-3
3.001053132E0,1.922607422E-3,-1.251220703E-3,-3.585815430E-3
3.006088532E0,1.831054688E-3,-1.251220703E-3,-2.670288086E-3
3.011123933E0,9.460449219E-4,-1.159667969E-3,-3.662109375E-3
3.016159333E0,1.922607422E-3,-2.899169922E-4,-3.662109375E-3
3.021194733E0,2.151489258E-3,-1.251220703E-3,-3.540039062E-3
3.026230134E0,3.921508789E-3,-1.251220703E-3,-2.716064453E-3
3.031265534E0,2.838134766E-3,-1.113891602E-3,-3.799438477E-3
3.036300935E0,2.075195312E-3,-1.831054688E-4,-4.562377930E-3
3.041336335E0,2.807617188E-3,-1.525878906E-5,-3.829956055E-3
3.046371735E0,2.105712891E-3,1.068115234E-3,-4.730224609E-3
3.051407136E0,3.173828125E-3,1.953125000E-3,-4.531860352E-3
3.056442536E0,3.616333008E-3,1.510620117E-3,-3.433227539E-3
3.061477937E0,1.922607422E-3,3.051757812E-5,-2.807617188E-3
3.066513337E0,1.449584961E-3,6.408691406E-4,-3.189086914E-3
3.071548737E0,2.746582031E-4,-1.831054688E-4,-1.525878906E-3
3.076584138E0,1.647949219E-3,7.629394531E-5,-1.785278320E-3
3.081619538E0,1.129150391E-3,5.950927734E-4,-2.304077148E-3
3.086654938E0,1.922607422E-3,-4.882812500E-4,-1.220703125E-3
3.091690339E0,1.922607422E-3,-9.460449219E-4,-4.577636719E-4
3.096725739E0,1.586914062E-3,-5.187988281E-4,-1.098632812E-3
3.101761140E0,1.174926758E-3,-9.307861328E-4,-2.914428711E-3
3.106796540E0,1.571655273E-3,1.525878906E-4,-3.311157227E-3
3.111831940E0,1.205444336E-3,5.187988281E-4,-2.593994141E-3
3.116867341E0,1.541137695E-3,-5.645751953E-4,-2.593994141E-3
3.121902741E0,1.235961914E-3,-1.251220703E-3,-2.197265625E-3
3.126938142E0,2.319335938E-3,-8.544921875E-4,-1.525878906E-3
3.131973542E0,2.563476562E-3,-1.831054688E-4,-1.525878906E-3
3.137008942E0,2.349853516E-3,-1.831054688E-4,-1.525878906E-3
3.142044343E0,2.990722656E-3,7.019042969E-4,-1.968383789E-3
3.147079743E0,2.990722656E-3,1.480102539E-3,-2.120971680E-3
3.152115144E0,2.990722656E-3,4.119873047E-4,-1.052856445E-3
3.157150544E0,2.502441406E-3,-6.713867188E-4,-4.577636719E-4
3.162185944E0,9.155273438E-4,-7.629394531E-4,-4.577636719E-4
3.167221345E0,2.899169922E-4,3.204345703E-4,6.103515625E-5
3.172256745E0,1.373291016E-3,1.403808594E-3,9.155273438E-5
3.177292145E0,1.373291016E-3,1.403808594E-3,9.155273438E-5
3.182327546E0,8.544921875E-4,3.204345703E-4,6.103515625E-5
3.187362946E0,1.403808594E-3,3.662109375E-4,-4.577636719E-4
3.192398347E0,1.922607422E-3,3.051757812E-4,-4.577636719E-4
3.197433747E0,2.502441406E-3,-7.781982422E-4,-4.577636719E-4
3.202469147E0,1.770019531E-3,-6.561279297E-4,-4.577636719E-4
3.207504548E0,8.544921875E-4,4.272460938E-4,-4.577636719E-4
3.212539948E0,2.136230469E-4,2.441406250E-4,1.831054688E-4
3.217575349E0,1.068115234E-3,-1.831054688E-4,6.103515625E-4
3.222610749E0,1.922607422E-3,-8.392333984E-4,6.103515625E-4
3.227646149E0,1.251220703E-3,-5.950927734E-4,-7.171630859E-4
3.232681550E0,1.678466797E-4,-1.831054688E-4,-1.525878906E-3
3.237716950E0,-9.155273438E-4,5.035400391E-4,-8.239746094E-4
3.242752351E0,-5.798339844E-4,-5.340576172E-4,-4.577636719E-4
3.247787751E0,5.035400391E-4,-5.340576172E-4,2.746582031E-4
3.252823151E0,1.068115234E-4,5.493164062E-4,1.358032227E-3
3.257858552E0,-2.136230469E-4,1.617431641E-3,1.678466797E-3
3.262893952E0,5.340576172E-4,1.190185547E-3,9.307861328E-4
3.267929353E0,8.544921875E-4,8.850097656E-4,6.103515625E-4
3.272964753E0,8.544921875E-4,1.663208008E-3,1.403808594E-3
3.278000153E0,4.577636719E-5,2.746582031E-3,8.850097656E-4
3.283035554E0,-1.037597656E-3,2.197265625E-3,6.103515625E-4
3.288070954E0,-4.577636719E-4,1.113891602E-3,6.103515625E-4
3.293106354E0,-2.136230469E-4,8.850097656E-4,-2.136230469E-4
3.298141755E0,-2.136230469E-4,8.850097656E-4,3.967285156E-4
3.303177155E0,-2.136230469E-4,8.850097656E-4,-2.441406250E-4
3.308212556E0,-1.983642578E-3,1.754760742E-3,4.272460938E-4
3.313247956E0,-2.349853516E-3,2.838134766E-3,2.395629883E-3
3.318283356E0,-1.449584961E-3,2.105712891E-3,9.460449219E-4
3.323318757E0,5.493164062E-4,1.953125000E-3,6.103515625E-4
3.328354157E0,-9.155273438E-5,1.953125000E-3,6.103515625E-4
3.333389558E0,-1.159667969E-3,1.953125000E-3,6.103515625E-4
3.338424958E0,-1.281738281E-3,1.953125000E-3,1.571655273E-3
3.343460358E0,-1.281738281E-3,2.914428711E-3,1.678466797E-3
3.348495759E0,-3.051757812E-4,3.021240234E-3,7.019042969E-4
3.353531159E0,-2.136230469E-4,3.021240234E-3,1.617431641E-3
3.358566560E0,-2.136230469E-4,3.021240234E-3,1.678466797E-3
3.363601960E0,-2.136230469E-4,3.021240234E-3,2.700805664E-3
3.368637360E0,8.087158203E-4,1.983642578E-3,2.746582031E-3
3.373672761E0,-1.220703125E-3,1.953125000E-3,1.724243164E-3
3.378708161E0,-2.349853516E-3,8.850097656E-4,6.103515625E-4
3.383743562E0,-2.349853516E-3,1.953125000E-3,6.408691406E-4
3.388778962E0,-1.266479492E-3,2.990722656E-3,2.731323242E-3
3.393814362E0,-2.136230469E-4,1.907348633E-3,1.724243164E-3
3.398849763E0,-2.746582031E-4,9.307861328E-4,2.700805664E-3
3.403885163E0,-1.358032227E-3,1.953125000E-3,1.678466797E-3
3.408920563E0,-2.441406250E-3,1.785278320E-3,1.602172852E-3
3.413955964E0,-3.143310547E-3,-1.831054688E-4,7.171630859E-4
3.418991364E0,-4.272460938E-4,-1.831054688E-4,1.586914062E-3
3.424026765E0,-2.243041992E-3,4.577636719E-5,8.544921875E-4
3.429062165E0,-1.281738281E-3,1.953125000E-3,2.487182617E-3
3.434097565E0,-1.144409180E-3,1.953125000E-3,6.103515625E-4
3.439132966E0,-2.136230469E-4,1.953125000E-3,9.307861328E-4
3.444168366E0,-5.645751953E-4,1.953125000E-3,2.746582031E-3
3.449203767E0,-1.983642578E-3,1.754760742E-3,2.380371094E-3
3.454239167E0,-2.136230469E-4,8.850097656E-4,1.007080078E-3
3.459274567E0,-4.272460938E-4,8.850097656E-4,2.548217773E-3
3.464309968E0,-1.281738281E-3,8.850097656E-4,1.464843750E-3
3.469345368E0,-1.525878906E-3,6.408691406E-4,1.083374023E-3
3.474380769E0,-2.349853516E-3,-4.425048828E-4,2.502441406E-3
3.479416169E0,-2.349853516E-3,-9.918212891E-4,1.419067383E-3
3.484451569E0,-2.349853516E-3,3.662109375E-4,9.002685547E-4
3.489486970E0,-2.075195312E-3,1.663208008E-3,1.678466797E-3
3.494522370E0,-1.281738281E-3,8.850097656E-4,1.983642578E-3
3.499557770E0,-2.227783203E-3,5.645751953E-4,2.441406250E-3
3.504593171E0,-3.509521484E-3,-1.831054688E-4,1.678466797E-3
3.509628571E0,-1.632690430E-3,1.525878906E-4,1.678466797E-3
3.514663972E0,-2.716064453E-3,5.187988281E-4,1.678466797E-3
3.519699372E0,-2.685546875E-3,1.831054688E-4,1.678466797E-3
3.524734772E0,-9.155273438E-4,5.035400391E-4,1.678466797E-3
3.529770173E0,-6.103515625E-4,5.950927734E-4,1.296997070E-3
3.534805573E0,-1.281738281E-3,1.541137695E-3,1.022338867E-3
3.539840974E0,-1.708984375E-3,1.296997070E-3,1.678466797E-3
3.544876374E0,-1.052856445E-3,1.083374023E-3,2.120971680E-3
3.549911774E0,3.967285156E-4,-1.831054688E-4,1.861572266E-3
3.554947175E0,2.441406250E-4,-6.561279297E-4,1.083374023E-3
3.559982575E0,3.814697266E-4,-1.724243164E-3,2.624511719E-3
3.565017976E0,-2.136230469E-4,-1.846313477E-3,3.341674805E-3
3.570053376E0,-7.171630859E-4,-7.629394531E-4,1.754760742E-3
3.575088776E0,-1.281738281E-3,8.239746094E-4,1.129150391E-3
3.580124177E0,-1.281738281E-3,9.002685547E-4,1.159667969E-3
3.585159577E0,-1.281738281E-3,-1.831054688E-4,6.103515625E-4
3.590194978E0,-1.831054688E-4,-7.476806641E-4,1.174926758E-3
3.595230378E0,2.899169922E-4,-1.373291016E-4,1.129150391E-3
3.600265778E0,-7.934570312E-4,8.850097656E-4,1.190185547E-3
3.605301179E0,-1.068115234E-4,2.899169922E-4,1.098632812E-3
3.610336579E0,8.544921875E-4,-1.831054688E-4,1.220703125E-3
3.615371979E0,-3.814697266E-4,4.272460938E-4,1.678466797E-3
3.620407380E0,-6.561279297E-4,2.441406250E-4,1.678466797E-3
3.625442780E0,-2.136230469E-4,-1.831054688E-4,1.678466797E-3
3.630478181E0,-2.136230469E-4,4.577636719E-4,3.814697266E-4
3.635513581E0,-2.136230469E-4,8.850097656E-4,8.850097656E-4
3.640548981E0,-2.136230469E-4,1.983642578E-4,1.678466797E-3
3.645584382E0,-1.617431641E-3,-1.831054688E-4,1.678466797E-3
3.650619782E0,-1.647949219E-3,-1.831054688E-4,9.765625000E-4
3.655655183E0,-2.731323242E-3,5.340576172E-4,-1.068115234E-4
3.660690583E0,-1.953125000E-3,-5.950927734E-4,1.022338867E-3
3.665725983E0,-2.029418945E-3,-5.187988281E-4,9.460449219E-4
3.670761384E0,-8.392333984E-4,-1.831054688E-4,-1.373291016E-4
3.675796784E0,5.493164062E-4,5.798339844E-4,-4.577636719E-4
3.680832185E0,6.103515625E-5,8.850097656E-4,-4.577636719E-4
3.685867585E0,-1.815795898E-3,7.629394531E-5,-1.251220703E-3
3.690902985E0,-7.324218750E-4,-1.007080078E-3,-7.019042969E-4
3.695938386E0,6.103515625E-4,-4.272460938E-4,-4.577636719E-4
3.700973786E0,1.525878906E-5,-1.831054688E-4,3.814697266E-4
3.706009187E0,-2.136230469E-4,-1.831054688E-4,6.103515625E-4
3.711044587E0,6.561279297E-4,6.866455078E-4,6.103515625E-4
3.716079987E0,-3.051757812E-5,-8.850097656E-4,-2.593994141E-4
3.721115388E0,-2.136230469E-4,-2.151489258E-3,-1.342773438E-3
3.726150788E0,-2.136230469E-4,-1.419067383E-3,-1.525878906E-3
3.731186188E0,7.019042969E-4,-3.356933594E-4,-1.525878906E-3
3.736221589E0,-7.629394531E-5,-1.831054688E-4,-5.950927734E-4
3.741256989E0,7.324218750E-4,-1.144409180E-3,-4.577636719E-4
3.746292390E0,8.544921875E-4,-1.251220703E-3,1.464843750E-3
3.751327790E0,8.544921875E-4,-2.899169922E-4,-2.593994141E-4
3.756363190E0,8.544921875E-4,-1.174926758E-3,-4.577636719E-4
3.761398591E0,-1.525878906E-4,-2.593994141E-4,-1.449584961E-3
3.766433991E0,-2.136230469E-4,8.239746094E-4,-5.035400391E-4
3.771469392E0,-2.136230469E-4,-1.373291016E-4,-4.577636719E-4
3.776504792E0,-2.136230469E-4,-2.258300781E-3,1.617431641E-3
3.781540192E0,1.876831055E-3,-1.281738281E-3,6.408691406E-4
3.786575593E0,1.922607422E-3,-1.983642578E-4,-4.425048828E-4
3.791610993E0,8.544921875E-4,-1.983642578E-4,-4.577636719E-4
3.796646394E0,8.697509766E-4,-1.281738281E-3,-4.730224609E-4
3.801681794E0,1.922607422E-3,-2.365112305E-3,-1.480102539E-3
3.806717194E0,2.014160156E-3,-3.295898438E-3,-4.577636719E-4
3.811752595E0,3.936767578E-3,-1.312255859E-3,-5.035400391E-4
3.816787995E0,1.846313477E-3,-2.258300781E-3,-1.663208008E-3
3.821823395E0,8.544921875E-4,-1.251220703E-3,-3.570556641E-3
3.826858796E0,8.544921875E-4,-1.159667969E-3,-2.487182617E-3
3.831894196E0,7.324218750E-4,-1.831054688E-4,-1.525878906E-3
3.836929597E0,3.051757812E-5,-4.425048828E-4,-1.266479492E-3
3.841964997E0,2.059936523E-3,-2.319335938E-3,3.356933594E-4
3.847000397E0,2.838134766E-3,-2.319335938E-3,-1.663208008E-3
3.852035798E0,1.922607422E-3,-2.487182617E-3,-2.593994141E-3
3.857071198E0,1.922607422E-3,-3.036499023E-3,-2.410888672E-3
3.862106599E0,1.922607422E-3,-8.850097656E-4,-1.525878906E-3
3.867141999E0,1.708984375E-3,4.730224609E-4,-1.724243164E-3
3.872177399E0,8.544921875E-4,-1.480102539E-3,-2.593994141E-3
3.877212800E0,1.083374023E-3,-2.319335938E-3,-2.349853516E-3
3.882248200E0,1.434326172E-3,-2.090454102E-3,-1.754760742E-3
3.887283601E0,3.051757812E-5,-1.007080078E-3,-2.334594727E-3
3.892319001E0,5.798339844E-4,7.629394531E-5,-1.525878906E-3
3.897354401E0,6.103515625E-5,8.850097656E-4,-1.525878906E-3
3.902389802E0,8.544921875E-4,5.798339844E-4,-1.525878906E-3
3.907425202E0,8.544921875E-4,-1.831054688E-4,-1.525878906E-3
3.912460603E0,5.187988281E-4,-5.187988281E-4,-1.846313477E-3
3.917496003E0,1.220703125E-4,-9.155273438E-4,-2.593994141E-3
3.922531403E0,1.205444336E-3,-1.831054688E-4,-2.227783203E-3
3.927566804E0,1.556396484E-3,-1.831054688E-4,-1.876831055E-3
3.932602204E0,8.544921875E-4,-9.460449219E-4,-2.212524414E-3
3.937637604E0,4.577636719E-4,-1.144409180E-3,-1.525878906E-3
3.942673005E0,-2.136230469E-4,4.730224609E-4,-1.525878906E-3
3.947708405E0,-6.408691406E-4,-6.103515625E-4,-1.098632812E-3
3.952743806E0,-4.272460938E-4,-1.251220703E-3,-8.850097656E-4
3.957779206E0,8.544921875E-4,-8.087158203E-4,-1.968383789E-3
3.962814606E0,8.544921875E-4,-6.408691406E-4,-2.593994141E-3
3.967850007E0,1.785278320E-3,-1.251220703E-3,-3.524780273E-3
3.972885407E0,2.502441406E-3,-7.781982422E-4,-4.241943359E-3
3.977920808E0,1.419067383E-3,-1.174926758E-3,-3.158569336E-3
3.982956208E0,3.356933594E-4,-2.319335938E-3,-1.571655273E-3
3.987991608E0,3.051757812E-4,-1.281738281E-3,-4.577636719E-4
3.993027009E0,1.388549805E-3,-7.324218750E-4,-9.918212891E-4
3.998062409E0,8.087158203E-4,-1.251220703E-3,-2.075195312E-3
4.003097810E0,3.356933594E-4,-1.251220703E-3,-2.593994141E-3
4.008133210E0,2.746582031E-4,-1.251220703E-3,-2.593994141E-3
4.013168610E0,-2.136230469E-4,5.035400391E-4,-1.998901367E-3
4.018204011E0,3.814697266E-4,1.953125000E-3,-2.731323242E-3
4.023239411E0,8.544921875E-4,1.327514648E-3,-4.272460938E-3
4.028274812E0,-4.119873047E-4,2.441406250E-4,-4.089355469E-3
4.033310212E0,-1.281738281E-3,-1.831054688E-4,-3.005981445E-3
4.038345612E0,1.525878906E-5,-8.392333984E-4,-1.937866211E-3
4.043381013E0,8.544921875E-4,-5.950927734E-4,-1.525878906E-3
4.048416413E0,8.544921875E-4,-1.831054688E-4,-2.883911133E-3
4.053451813E0,1.525878906E-4,-8.850097656E-4,-4.348754883E-3
4.058487214E0,-2.136230469E-4,-1.251220703E-3,-4.730224609E-3
4.063522614E0,-2.136230469E-4,-5.340576172E-4,-3.997802734E-3
4.068558015E0,5.187988281E-4,-9.307861328E-4,-2.914428711E-3
4.073593415E0,8.544921875E-4,-1.251220703E-3,-1.846313477E-3
4.078628815E0,9.155273438E-5,-5.035400391E-4,-1.525878906E-3
4.083664216E0,-2.136230469E-4,-9.613037109E-4,-2.288818359E-3
4.088699616E0,-2.136230469E-4,3.204345703E-4,-1.800537109E-3
4.093735017E0,5.798339844E-4,8.850097656E-4,-3.112792969E-3
4.098770417E0,8.544921875E-4,6.103515625E-5,-2.838134766E-3
4.103805817E0,8.544921875E-4,-1.831054688E-4,-2.593994141E-3
4.108841218E0,1.678466797E-3,6.408691406E-4,-2.593994141E-3
4.113876618E0,1.068115234E-3,3.051757812E-5,-1.739501953E-3
4.118912019E0,-1.525878906E-5,1.541137695E-3,-2.380371094E-3
4.123947419E0,6.561279297E-4,1.068115234E-3,-1.708984375E-3
4.128982819E0,8.544921875E-4,-9.155273438E-4,-2.410888672E-3
4.134018220E0,8.544921875E-4,-1.251220703E-3,-2.593994141E-3
4.139053620E0,8.544921875E-4,-1.251220703E-3,-1.663208008E-3
4.144089020E0,1.785278320E-3,-3.204345703E-4,-2.456665039E-3
4.149124421E0,9.765625000E-4,-1.831054688E-4,-7.019042969E-4
4.154159821E0,8.544921875E-4,-1.831054688E-4,5.187988281E-4
4.159195222E0,-1.220703125E-4,-1.159667969E-3,-3.509521484E-4
4.164230622E0,7.629394531E-4,-2.746582031E-4,-1.434326172E-3
4.169266022E0,-1.525878906E-4,-1.190185547E-3,-1.525878906E-3
4.174301423E0,-2.136230469E-4,-1.251220703E-3,-2.532958984E-3
4.179336823E0,-2.136230469E-4,-2.288818359E-4,-4.638671875E-3
4.184372224E0,8.239746094E-4,1.892089844E-3,-3.677368164E-3
4.189407624E0,8.544921875E-4,1.953125000E-3,-2.593994141E-3
4.194443024E0,1.922607422E-3,-1.831054688E-4,-2.593994141E-3
4.199478425E0,1.907348633E-3,8.850097656E-4,-2.578735352E-3
4.204513825E0,8.544921875E-4,1.922607422E-3,-1.571655273E-3
4.209549226E0,8.087158203E-4,8.850097656E-4,-3.616333008E-3
4.214584626E0,-2.746582031E-4,9.307861328E-4,-2.532958984E-3
4.219620026E0,-1.220703125E-3,1.876831055E-3,-1.525878906E-3
4.224655427E0,-3.051757812E-4,9.613037109E-4,-1.525878906E-3
4.229690827E0,-1.281738281E-3,1.953125000E-3,-1.617431641E-3
4.234726228E0,-1.281738281E-3,1.953125000E-3,-2.593994141E-3
4.239761628E0,-1.281738281E-3,2.059936523E-3,-2.593994141E-3
4.244797028E0,-1.159667969E-3,3.021240234E-3,-2.456665039E-3
4.249832429E0,-2.136230469E-4,2.868652344E-3,-1.525878906E-3
4.254867829E0,-6.103515625E-5,1.953125000E-3,-1.678466797E-3
4.259903229E0,1.022338867E-3,1.770019531E-3,-2.410888672E-3
4.264938630E0,1.724243164E-3,1.068115234E-3,-1.327514648E-3
4.269974030E0,6.561279297E-4,1.953125000E-3,-4.577636719E-4
4.275009431E0,-2.136230469E-4,1.953125000E-3,-4.577636719E-4
4.280044831E0,-2.136230469E-4,2.166748047E-3,-4.577636719E-4
4.285080231E0,-2.136230469E-4,2.563476562E-3,-4.577636719E-4
4.290115632E0,-2.136230469E-4,8.850097656E-4,-1.983642578E-4
4.295151032E0,-2.136230469E-4,6.103515625E-4,6.103515625E-4
4.300186433E0,-5.035400391E-4,-1.831054688E-4,3.356933594E-4
4.305221833E0,-9.918212891E-4,3.967285156E-4,-7.476806641E-4
4.310257233E0,-8.392333984E-4,1.632690430E-3,-1.831054688E-3
4.315292634E0,-1.724243164E-3,1.190185547E-3,-2.899169922E-3
4.320328034E0,1.068115234E-4,1.296997070E-3,-3.005981445E-3
4.325363435E0,5.035400391E-4,-1.831054688E-4,-8.392333984E-4
4.330398835E0,-2.136230469E-4,5.187988281E-4,6.103515625E-4
4.335434235E0,1.525878906E-4,1.953125000E-3,2.441406250E-4
4.340469636E0,7.629394531E-5,1.953125000E-3,-8.392333984E-4
4.345505036E0,-1.678466797E-3,1.953125000E-3,-1.129150391E-3
4.350540437E0,-1.541137695E-3,2.349853516E-3,-4.577636719E-4
4.355575837E0,-2.136230469E-4,2.593994141E-3,-8.697509766E-4
4.360611237E0,-2.136230469E-4,1.953125000E-3,-1.083374023E-3
4.365646638E0,-2.136230469E-4,2.395629883E-3,4.577636719E-4
4.370682038E0,2.441406250E-4,2.548217773E-3,1.220703125E-3
4.375717438E0,3.662109375E-4,1.953125000E-3,1.373291016E-4
4.380752839E0,-2.136230469E-4,1.953125000E-3,-4.577636719E-4
4.385788239E0,-2.136230469E-4,1.953125000E-3,-4.577636719E-4
4.390823640E0,2.899169922E-4,1.953125000E-3,6.103515625E-5
4.395859040E0,8.544921875E-4,2.471923828E-3,1.144409180E-3
4.400894440E0,3.051757812E-4,2.471923828E-3,1.144409180E-3
4.405929841E0,3.356933594E-4,2.502441406E-3,6.103515625E-4
4.410965241E0,2.746582031E-4,3.021240234E-3,4.577636719E-5
4.416000642E0,-2.136230469E-4,3.021240234E-3,1.373291016E-4
4.421036042E0,9.765625000E-4,3.021240234E-3,1.220703125E-3
4.426071442E0,7.019042969E-4,3.616333008E-3,-1.373291016E-4
4.431106843E0,3.967285156E-4,4.089355469E-3,-9.002685547E-4
4.436142243E0,8.544921875E-4,4.089355469E-3,1.831054688E-4
4.441177644E0,1.495361328E-3,3.433227539E-3,-3.051757812E-5
4.446213044E0,1.251220703E-3,2.349853516E-3,-4.577636719E-4
4.451248444E0,1.678466797E-4,1.953125000E-3,-1.129150391E-3
4.456283845E0,4.730224609E-4,1.953125000E-3,-8.239746094E-4
4.461319245E0,1.525878906E-4,1.953125000E-3,2.441406250E-4
4.466354645E0,4.882812500E-4,2.655029297E-3,-9.155273438E-5
4.471390046E0,8.544921875E-4,3.021240234E-3,-4.577636719E-4
4.476425446E0,1.068115234E-4,3.021240234E-3,-4.577636719E-4
4.481460847E0,5.340576172E-4,2.258300781E-3,-4.577636719E-4
4.486496247E0,7.629394531E-5,2.716064453E-3,3.204345703E-4
4.491531647E0,-2.136230469E-4,3.021240234E-3,2.182006836E-3
4.496567048E0,-2.136230469E-4,2.227783203E-3,1.968383789E-3
4.501602448E0,-2.136230469E-4,1.953125000E-3,8.850097656E-4
4.506637849E0,-2.136230469E-4,2.761840820E-3,6.103515625E-4
4.511673249E0,-2.136230469E-4,3.845214844E-3,1.449584961E-3
4.516708649E0,-2.136230469E-4,4.089355469E-3,1.678466797E-3
4.521744050E0,-2.136230469E-4,3.219604492E-3,1.678466797E-3
4.526779450E0,6.561279297E-4,3.021240234E-3,-6.103515625E-5
4.531814851E0,8.544921875E-4,2.136230469E-3,-4.577636719E-4
4.536850251E0,8.544921875E-4,1.525878906E-4,4.425048828E-4
4.541885651E0,8.544921875E-4,-1.831054688E-4,6.103515625E-4
4.546921052E0,-7.629394531E-5,-1.831054688E-4,2.471923828E-3
4.551956452E0,-2.136230469E-4,1.678466797E-3,2.746582031E-3
4.556991853E0,7.324218750E-4,2.899169922E-3,2.746582031E-3
4.562027253E0,1.815795898E-3,3.021240234E-3,1.785278320E-3
4.567062653E0,9.460449219E-4,2.044677734E-3,7.171630859E-4
4.572098054E0,8.544921875E-4,2.929687500E-3,1.602172852E-3
4.577133454E0,1.846313477E-3,2.014160156E-3,6.866455078E-4
4.582168854E0,9.002685547E-4,1.953125000E-3,1.632690430E-3
4.587204255E0,1.861572266E-3,1.953125000E-3,6.713867188E-4
4.592239655E0,1.922607422E-3,1.953125000E-3,1.663208008E-3
4.597275056E0,-1.983642578E-4,3.005981445E-3,1.678466797E-3
4.602310456E0,8.544921875E-4,3.021240234E-3,6.103515625E-4
4.607345856E0,8.544921875E-4,1.922607422E-3,6.408691406E-4
4.612381257E0,1.861572266E-3,-1.831054688E-4,2.746582031E-3
4.617416657E0,-2.136230469E-4,-1.831054688E-4,2.639770508E-3
4.622452058E0,-6.103515625E-5,-1.373291016E-4,-4.577636719E-4
4.627487458E0,2.792358398E-3,9.460449219E-4,-3.814697266E-4
4.632522858E0,-1.373291016E-4,1.953125000E-3,5.340576172E-4
4.637558259E0,8.544921875E-4,1.846313477E-3,-2.593994141E-4
4.642593659E0,9.460449219E-4,8.850097656E-4,1.480102539E-3
4.647629060E0,1.922607422E-3,7.629394531E-4,-4.577636719E-4
4.652664460E0,1.922607422E-3,7.629394531E-5,-4.577636719E-4
4.657699860E0,1.922607422E-3,1.800537109E-3,-3.051757812E-4
4.662735261E0,1.754760742E-3,8.850097656E-4,6.103515625E-4
4.667770661E0,8.544921875E-4,1.052856445E-3,6.103515625E-4
4.672806062E0,6.561279297E-4,2.136230469E-3,6.103515625E-4
4.677841462E0,-2.136230469E-4,2.822875977E-3,8.087158203E-4
4.682876862E0,-2.136230469E-4,1.953125000E-3,1.480102539E-3
4.687912263E0,-2.136230469E-4,1.724243164E-3,6.103515625E-4
4.692947663E0,-2.136230469E-4,8.850097656E-4,6.103515625E-4
4.697983063E0,3.051757812E-5,6.256103516E-4,6.103515625E-4
4.703018464E0,1.373291016E-3,7.629394531E-5,6.103515625E-4
4.708053864E0,2.700805664E-3,1.159667969E-3,6.103515625E-4
4.713089265E0,1.922607422E-3,1.953125000E-3,9.002685547E-4
4.718124665E0,1.922607422E-3,1.953125000E-3,1.678466797E-3
4.723160065E0,2.227783203E-3,1.632690430E-3,1.678466797E-3
4.728195466E0,2.655029297E-3,8.850097656E-4,1.358032227E-3
4.733230866E0,1.571655273E-3,8.850097656E-4,2.746582031E-4
4.738266267E0,4.882812500E-4,8.850097656E-4,-9.155273438E-5
4.743301667E0,1.525878906E-4,5.035400391E-4,1.358032227E-3
4.748337067E0,1.220703125E-3,-1.831054688E-4,2.380371094E-3
4.753372468E0,1.525878906E-3,-1.831054688E-4,1.296997070E-3
4.758407868E0,3.051757812E-5,-1.831054688E-4,6.103515625E-4
4.763443269E0,-8.697509766E-4,-1.831054688E-4,1.983642578E-4
4.768478669E0,2.136230469E-4,-1.831054688E-4,-4.577636719E-4
4.773514069E0,1.296997070E-3,2.593994141E-4,0.000000000E0
4.778549470E0,1.449584961E-3,-4.577636719E-5,-3.051757812E-4
4.783584870E0,8.544921875E-4,-1.251220703E-3,-5.645751953E-4
4.788620270E0,8.544921875E-4,-7.629394531E-4,1.220703125E-4
4.793655671E0,8.544921875E-4,-1.831054688E-4,-9.460449219E-4
4.798691071E0,8.544921875E-4,-1.831054688E-4,-1.007080078E-3
4.803726472E0,1.373291016E-3,-7.171630859E-4,-4.577636719E-4
4.808761872E0,2.899169922E-4,-7.171630859E-4,-9.918212891E-4
4.813797272E0,-7.324218750E-4,3.662109375E-4,-9.613037109E-4
4.818832673E0,-2.136230469E-4,-8.239746094E-4,-4.577636719E-4
4.823868073E0,9.307861328E-4,-1.174926758E-3,-4.577636719E-4
4.828903474E0,1.327514648E-3,-1.831054688E-4,1.373291016E-4
4.833938874E0,8.544921875E-4,-7.934570312E-4,1.525878906E-5
4.838974274E0,2.090454102E-3,-1.251220703E-3,1.678466797E-4
4.844009675E0,2.349853516E-3,-6.256103516E-4,6.103515625E-4
4.849045075E0,2.563476562E-3,1.098632812E-3,1.266479492E-3
4.854080476E0,1.678466797E-3,1.296997070E-3,3.814697266E-4
4.859115876E0,8.544921875E-4,8.850097656E-4,2.136230469E-4
4.864151276E0,8.544921875E-4,1.983642578E-4,-6.103515625E-5
4.869186677E0,8.544921875E-4,-1.831054688E-4,2.441406250E-4
4.874222077E0,8.544921875E-4,-1.831054688E-4,6.103515625E-4
4.879257478E0,1.571655273E-3,-1.831054688E-4,6.103515625E-4
4.884292878E0,4.272460938E-4,-9.307861328E-4,-8.697509766E-4
4.889328278E0,-2.136230469E-4,-5.187988281E-4,-4.577636719E-5
4.894363679E0,-2.136230469E-4,-9.460449219E-4,6.103515625E-4
4.899399079E0,-2.136230469E-4,-1.251220703E-3,-1.678466797E-4
4.904434479E0,-2.136230469E-4,-1.251220703E-3,-1.235961914E-3
4.909469880E0,5.798339844E-4,-1.251220703E-3,-1.525878906E-3
4.914505280E0,-7.934570312E-4,-4.425048828E-4,-2.334594727E-3
4.919540681E0,3.814697266E-4,-1.022338867E-3,-2.593994141E-3
4.924576081E0,-8.392333984E-4,-4.119873047E-4,-2.593994141E-3
4.929611481E0,4.272460938E-4,-1.052856445E-3,-1.724243164E-3
4.934646882E0,-3.051757812E-5,-1.251220703E-3,-1.525878906E-3
4.939682282E0,-2.136230469E-4,-1.251220703E-3,-1.525878906E-3
4.944717683E0,-2.136230469E-4,-3.662109375E-4,2.746582031E-4
4.949753083E0,-2.044677734E-3,-1.098632812E-3,-2.899169922E-4
4.954788483E0,-5.035400391E-4,-3.356933594E-4,-1.373291016E-3
4.959823884E0,-2.136230469E-4,-1.831054688E-4,-1.525878906E-3
4.964859284E0,-2.136230469E-4,-2.090454102E-3,-2.471923828E-3
4.969894685E0,-1.190185547E-3,-2.319335938E-3,-1.617431641E-3
4.974930085E0,-3.204345703E-4,-3.814697266E-4,-1.525878906E-3
4.979965485E0,7.629394531E-4,-1.831054688E-4,-5.340576172E-4
4.985000886E0,-1.159667969E-3,-1.831054688E-4,-4.577636719E-4
4.990036286E0,-1.281738281E-3,-1.205444336E-3,-4.577636719E-4
4.995071687E0,-1.281738281E-3,-2.288818359E-4,-1.480102539E-3
5.000107087E0,-2.441406250E-4,1.892089844E-3,-1.525878906E-3
5.005142487E0,-2.136230469E-4,1.953125000E-3,-1.525878906E-3
5.010177888E0,-2.136230469E-4,-1.251220703E-3,-3.662109375E-3
5.015213288E0,-2.136230469E-4,-1.831054688E-4,-2.532958984E-3
5.020248688E0,-2.441406250E-4,-1.831054688E-4,1.602172852E-3
5.025284089E0,-1.327514648E-3,-2.288818359E-4,-1.525878906E-3
5.030319489E0,-2.349853516E-3,-1.159667969E-3,-1.464843750E-3
5.035354890E0,-2.349853516E-3,8.087158203E-4,-4.577636719E-4
5.040390290E0,-2.273559570E-3,-1.831054688E-4,-5.340576172E-4
5.045425690E0,-1.190185547E-3,-9.155273438E-5,-1.525878906E-3
5.050461091E0,-1.220703125E-4,8.850097656E-4,-1.525878906E-3
5.055496491E0,6.103515625E-4,7.629394531E-4,-1.525878906E-3
5.060531892E0,-1.159667969E-3,-1.831054688E-4,-1.525878906E-3
5.065567292E0,-2.136230469E-4,-1.831054688E-4,-1.800537109E-3
5.070602692E0,-3.814697266E-4,-1.831054688E-4,-3.662109375E-3
5.075638093E0,-1.464843750E-3,-1.831054688E-4,-3.479003906E-3
5.080673493E0,-1.983642578E-3,-3.814697266E-4,-2.593994141E-3
5.085708894E0,-6.103515625E-4,-1.251220703E-3,-2.777099609E-3
5.090744294E0,-2.151489258E-3,-1.251220703E-3,-3.662109375E-3
5.095779694E0,-1.281738281E-3,-1.708984375E-3,-3.662109375E-3
5.100815095E0,-1.052856445E-3,-3.158569336E-3,-3.662109375E-3
5.105850495E0,-4.730224609E-4,-2.319335938E-3,-3.402709961E-3
5.110885895E0,-1.556396484E-3,-2.059936523E-3,-2.319335938E-3
5.115921296E0,-2.349853516E-3,-1.251220703E-3,-1.525878906E-3
5.120956696E0,-2.349853516E-3,-1.251220703E-3,-1.525878906E-3
5.125992097E0,-2.059936523E-3,-1.556396484E-3,-1.815795898E-3
5.131027497E0,-9.765625000E-4,-2.319335938E-3,-2.593994141E-3
5.136062897E0,-5.493164062E-4,-2.655029297E-3,-2.593994141E-3
5.141098298E0,-1.281738281E-3,-3.051757812E-3,-2.929687500E-3
5.146133698E0,-1.281738281E-3,-1.617431641E-3,-3.295898438E-3
5.151169099E0,-9.155273438E-4,-1.831054688E-4,-2.212524414E-3
5.156204499E0,1.525878906E-4,-5.645751953E-4,-1.525878906E-3
5.161239899E0,6.103515625E-5,-1.251220703E-3,-1.525878906E-3
5.166275300E0,-1.281738281E-3,-2.075195312E-3,-1.922607422E-3
5.171310700E0,-8.697509766E-4,-2.563476562E-3,-2.166748047E-3
5.176346101E0,-6.561279297E-4,-1.251220703E-3,-1.525878906E-3
5.181381501E0,-1.739501953E-3,-1.251220703E-3,-1.968383789E-3
5.186416901E0,-2.349853516E-3,-7.934570312E-4,-2.593994141E-3
5.191452302E0,-1.419067383E-3,-1.129150391E-3,-2.593994141E-3
5.196487702E0,-7.324218750E-4,-2.807617188E-3,-1.159667969E-3
5.201523103E0,-1.235961914E-3,-2.899169922E-3,-1.068115234E-3
5.206558503E0,-7.934570312E-4,-1.815795898E-3,-1.129150391E-3
5.211593903E0,3.356933594E-4,-2.136230469E-4,-1.098632812E-3
5.216629304E0,3.356933594E-4,8.850097656E-4,-1.647949219E-3
5.221664704E0,-2.288818359E-4,3.204345703E-4,-1.083374023E-3
5.226700104E0,-7.324218750E-4,-1.312255859E-3,-5.798339844E-4
5.231735505E0,-7.324218750E-4,-2.899169922E-3,-1.144409180E-3
5.236770905E0,-7.324218750E-4,-2.807617188E-3,-4.577636719E-4
5.241806306E0,-1.342773438E-3,-2.319335938E-3,-7.171630859E-4
5.246841706E0,-1.190185547E-3,-2.319335938E-3,-1.647949219E-3
5.251877106E0,-1.068115234E-4,-2.319335938E-3,-1.007080078E-3
5.256912507E0,3.356933594E-4,-1.678466797E-3,7.629394531E-5
5.261947907E0,-9.765625000E-4,-1.251220703E-3,-1.525878906E-4
5.266983308E0,-1.800537109E-3,-1.251220703E-3,9.155273438E-5
5.272018708E0,-2.487182617E-3,-1.937866211E-3,-1.831054688E-4
5.277054108E0,-2.182006836E-3,-2.319335938E-3,1.220703125E-4
5.282089509E0,-1.098632812E-3,-2.319335938E-3,4.882812500E-4
5.287124909E0,-7.324218750E-4,-1.602172852E-3,-2.288818359E-4
5.292160310E0,7.324218750E-4,-1.251220703E-3,-2.044677734E-3
5.297195710E0,-9.155273438E-5,-1.251220703E-3,-1.968383789E-3
5.302231110E0,-1.495361328E-3,-5.035400391E-4,-8.850097656E-4
5.307266511E0,-1.037597656E-3,-1.831054688E-4,1.983642578E-4
5.312301911E0,4.577636719E-5,-9.765625000E-4,-1.083374023E-3
5.317337312E0,3.356933594E-4,-1.251220703E-3,-4.577636719E-5
5.322372712E0,-4.882812500E-4,-4.425048828E-4,-3.204345703E-4
5.327408112E0,-7.324218750E-4,-1.022338867E-3,-5.798339844E-4
5.332443513E0,9.155273438E-5,-2.090454102E-3,-5.798339844E-4
5.337478913E0,3.356933594E-4,-1.480102539E-3,-5.798339844E-4
5.342514313E0,3.356933594E-4,4.730224609E-4,-5.798339844E-4
5.347549714E0,-5.493164062E-4,8.850097656E-4,-5.798339844E-4
5.352585114E0,1.525878906E-4,-1.525878906E-5,-5.798339844E-4
5.357620515E0,-5.798339844E-4,-1.098632812E-3,-1.480102539E-3
5.362655915E0,-7.324218750E-4,-2.182006836E-3,-7.171630859E-4
5.367691315E0,-7.324218750E-4,-1.403808594E-3,3.509521484E-4
5.372726716E0,1.983642578E-4,-2.197265625E-3,-4.425048828E-4
5.377762116E0,-6.256103516E-4,-2.319335938E-3,1.342773438E-3
5.382797517E0,2.288818359E-4,-2.319335938E-3,1.556396484E-3
5.387832917E0,-6.561279297E-4,-1.342773438E-3,1.556396484E-3
5.392868317E0,1.251220703E-3,-2.258300781E-3,-4.272460938E-4
5.397903718E0,3.814697266E-4,-2.319335938E-3,-5.798339844E-4
5.402939118E0,3.356933594E-4,-1.312255859E-3,1.464843750E-3
5.407974519E0,3.356933594E-4,-2.288818359E-3,1.556396484E-3
5.413009919E0,3.356933594E-4,-3.372192383E-3,5.187988281E-4
5.418045319E0,1.388549805E-3,-3.387451172E-3,1.556396484E-3
5.423080720E0,3.356933594E-4,-2.319335938E-3,1.556396484E-3
5.428116120E0,3.051757812E-4,-2.319335938E-3,1.541137695E-3
5.433151520E0,-7.019042969E-4,-2.288818359E-3,5.340576172E-4
5.438186921E0,3.356933594E-4,-1.251220703E-3,1.556396484E-3
5.443222321E0,2.746582031E-4,-1.373291016E-3,1.510620117E-3
5.448257722E0,-6.713867188E-4,-3.326416016E-3,5.645751953E-4
5.453293122E0,3.356933594E-4,-2.243041992E-3,1.556396484E-3
5.458328522E0,4.272460938E-4,-1.251220703E-3,1.464843750E-3
5.463363923E0,1.510620117E-3,-1.251220703E-3,6.103515625E-4
5.468399323E0,2.334594727E-3,-1.251220703E-3,1.312255859E-3
5.473434724E0,1.113891602E-3,-1.251220703E-3,-2.899169922E-4
5.478470124E0,-5.950927734E-4,-1.403808594E-3,1.708984375E-3
5.483505524E0,3.356933594E-4,-2.166748047E-3,2.304077148E-3
5.488540925E0,3.356933594E-4,-1.251220703E-3,4.882812500E-4
5.493576325E0,3.356933594E-4,-1.068115234E-3,6.866455078E-4
5.498611726E0,5.187988281E-4,-3.814697266E-4,1.556396484E-3
5.503647126E0,9.613037109E-4,-1.251220703E-3,1.556396484E-3
5.508682526E0,-5.035400391E-4,-1.022338867E-3,1.800537109E-3
5.513717927E0,5.645751953E-4,-1.831054688E-4,2.624511719E-3
5.518753327E0,1.403808594E-3,-1.831054688E-4,2.380371094E-3
5.523788728E0,1.403808594E-3,-1.831054688E-4,1.556396484E-3
5.528824128E0,1.403808594E-3,-7.476806641E-4,1.556396484E-3
5.533859528E0,1.098632812E-3,-2.319335938E-3,1.861572266E-3
5.538894929E0,3.356933594E-4,-2.319335938E-3,2.319335938E-3
5.543930329E0,6.408691406E-4,-2.014160156E-3,2.197265625E-3
5.548965729E0,1.403808594E-3,-1.251220703E-3,3.372192383E-3
5.554001130E0,1.739501953E-3,-9.155273438E-4,2.288818359E-3
5.559036530E0,2.471923828E-3,-5.493164062E-4,1.205444336E-3
5.564071931E0,2.090454102E-3,-8.850097656E-4,1.235961914E-3
5.569107331E0,1.007080078E-3,-9.613037109E-4,2.243041992E-3
5.574142731E0,3.356933594E-4,-1.525878906E-3,1.968383789E-3
5.579178132E0,7.476806641E-4,-6.103515625E-4,2.624511719E-3
5.584213532E0,5.493164062E-4,-8.392333984E-4,2.624511719E-3
5.589248933E0,-3.051757812E-4,-6.256103516E-4,3.067016602E-3
5.594284333E0,7.781982422E-4,-8.087158203E-4,3.692626953E-3
5.599319733E0,1.403808594E-3,2.746582031E-4,4.165649414E-3
5.604355134E0,9.155273438E-4,8.850097656E-4,4.287719727E-3
5.609390534E0,8.239746094E-4,1.373291016E-3,3.204345703E-3
5.614425935E0,8.850097656E-4,9.307861328E-4,3.143310547E-3
5.619461335E0,-7.019042969E-4,-1.831054688E-4,3.692626953E-3
5.624496735E0,-7.476806641E-4,-1.831054688E-4,3.692626953E-3
5.629532136E0,8.697509766E-4,-1.831054688E-4,3.158569336E-3
5.634567536E0,1.403808594E-3,-1.831054688E-4,3.753662109E-3
5.639602937E0,1.403808594E-3,-1.831054688E-4,4.760742188E-3
5.644638337E0,2.288818359E-4,9.765625000E-4,4.760742188E-3
5.649673737E0,4.577636719E-4,1.342773438E-3,3.570556641E-3
5.654709138E0,7.934570312E-4,2.746582031E-4,3.234863281E-3
5.659744538E0,3.356933594E-4,4.272460938E-4,3.692626953E-3
5.664779938E0,9.613037109E-4,8.850097656E-4,3.692626953E-3
5.669815339E0,1.403808594E-3,1.525878906E-3,3.692626953E-3
5.674850739E0,1.403808594E-3,1.281738281E-3,3.692626953E-3
5.679886140E0,7.171630859E-4,8.850097656E-4,3.021240234E-3
5.684921540E0,3.356933594E-4,8.850097656E-4,3.326416016E-3
5.689956940E0,-3.662109375E-4,8.850097656E-4,3.005981445E-3
5.694992341E0,-1.449584961E-3,8.850097656E-4,3.341674805E-3
5.700027741E0,-2.532958984E-3,1.525878906E-4,3.692626953E-3
5.705063142E0,-2.136230469E-3,-1.831054688E-4,2.212524414E-3
5.710098542E0,-3.051757812E-4,5.645751953E-4,2.319335938E-3
5.715133942E0,3.356933594E-4,8.850097656E-4,2.624511719E-3
5.720169343E0,3.356933594E-4,1.663208008E-3,3.417968750E-3
5.725204743E0,3.356933594E-4,1.953125000E-3,3.692626953E-3
5.730240144E0,-4.730224609E-4,1.144409180E-3,4.501342773E-3
5.735275544E0,-7.324218750E-4,8.850097656E-4,5.584716797E-3
5.740310944E0,-2.410888672E-3,1.708984375E-3,5.004882812E-3
5.745346345E0,-2.029418945E-3,1.953125000E-3,4.760742188E-3
5.750381745E0,-9.460449219E-4,1.953125000E-3,4.760742188E-3
5.755417145E0,-7.324218750E-4,2.822875977E-3,3.021240234E-3
5.760452546E0,-7.324218750E-4,2.136230469E-3,3.509521484E-3
5.765487946E0,1.525878906E-4,1.953125000E-3,1.907348633E-3
5.770523347E0,3.356933594E-4,1.037597656E-3,2.471923828E-3
5.775558747E0,-5.950927734E-4,8.850097656E-4,4.486083984E-3
5.780594147E0,-1.678466797E-3,1.815795898E-3,3.829956055E-3
5.785629548E0,-1.800537109E-3,2.899169922E-3,3.692626953E-3
5.790664948E0,-2.777099609E-3,3.021240234E-3,3.692626953E-3
5.795700349E0,-2.868652344E-3,3.021240234E-3,3.692626953E-3
5.800735749E0,-1.892089844E-3,1.052856445E-3,4.684448242E-3
5.805771149E0,-1.800537109E-3,1.876831055E-3,3.768920898E-3
5.810806550E0,-1.800537109E-3,1.953125000E-3,2.685546875E-3
5.815841950E0,-1.800537109E-3,1.953125000E-3,2.624511719E-3
5.820877351E0,-1.800537109E-3,1.953125000E-3,2.624511719E-3
5.825912751E0,-1.800537109E-3,8.850097656E-4,3.692626953E-3
5.830948151E0,-2.868652344E-3,8.850097656E-4,4.760742188E-3
5.835983552E0,-2.853393555E-3,1.953125000E-3,2.655029297E-3
5.841018952E0,-7.629394531E-4,1.922607422E-3,4.745483398E-3
5.846054353E0,-1.800537109E-3,9.307861328E-4,3.692626953E-3
5.851089753E0,-1.800537109E-3,1.953125000E-3,3.753662109E-3
5.856125153E0,-1.800537109E-3,2.014160156E-3,4.699707031E-3
5.861160554E0,-1.724243164E-3,2.929687500E-3,3.616333008E-3
5.866195954E0,-8.392333984E-4,1.953125000E-3,2.624511719E-3
5.871231354E0,-1.800537109E-3,1.953125000E-3,2.853393555E-3
5.876266755E0,-1.800537109E-3,1.953125000E-3,4.638671875E-3
5.881302155E0,-1.953125000E-3,1.800537109E-3,3.555297852E-3
5.886337556E0,-2.731323242E-3,1.022338867E-3,2.777099609E-3
5.891372956E0,-1.968383789E-3,1.953125000E-3,3.860473633E-3
5.896408356E0,-3.051757812E-3,2.120971680E-3,4.760742188E-3
5.901443757E0,-3.753662109E-3,3.021240234E-3,4.577636719E-3
5.906479157E0,-2.670288086E-3,2.807617188E-3,3.692626953E-3
5.911514558E0,-2.029418945E-3,1.953125000E-3,3.479003906E-3
5.916549958E0,-2.868652344E-3,1.708984375E-3,3.097534180E-3
5.921585358E0,-3.112792969E-3,1.358032227E-3,4.531860352E-3
5.926620759E0,-3.433227539E-3,3.265380859E-3,3.692626953E-3
5.931656159E0,-1.800537109E-3,3.540039062E-3,3.692626953E-3
5.936691560E0,-2.090454102E-3,1.663208008E-3,3.692626953E-3
5.941726960E0,-2.578735352E-3,1.174926758E-3,3.997802734E-3
5.946762360E0,-2.426147461E-3,1.953125000E-3,4.760742188E-3
5.951797761E0,-3.295898438E-3,2.273559570E-3,4.440307617E-3
5.956833161E0,-1.480102539E-3,2.685546875E-3,3.692626953E-3
5.961868562E0,-1.785278320E-3,1.602172852E-3,4.043579102E-3
5.966903962E0,-3.585815430E-3,8.850097656E-4,4.043579102E-3
5.971939362E0,-3.250122070E-3,1.251220703E-3,2.258300781E-3
5.976974763E0,-4.333496094E-3,1.953125000E-3,1.953125000E-3
5.982010163E0,-4.211425781E-3,1.144409180E-3,3.433227539E-3
5.987045563E0,-2.868652344E-3,-1.831054688E-4,4.348754883E-3
5.992080964E0,-2.868652344E-3,-1.831054688E-4,2.426147461E-3
5.997116364E0,-2.868652344E-3,2.441406250E-4,1.815795898E-3
6.002151765E0,-2.868652344E-3,8.850097656E-4,3.250122070E-3
6.007187165E0,-2.868652344E-3,1.342773438E-3,3.097534180E-3
6.012222565E0,-2.395629883E-3,1.953125000E-3,3.219604492E-3
6.017257966E0,-2.304077148E-3,1.953125000E-3,2.624511719E-3
6.022293366E0,-2.365112305E-3,9.307861328E-4,2.624511719E-3
6.027328767E0,-2.319335938E-3,-1.831054688E-4,3.143310547E-3
6.032364167E0,-2.868652344E-3,8.697509766E-4,3.692626953E-3
6.037399567E0,-2.868652344E-3,1.953125000E-3,2.609252930E-3
6.042434968E0,-2.319335938E-3,8.239746094E-4,1.556396484E-3
6.047470368E0,-1.235961914E-3,-1.831054688E-4,2.700805664E-3
6.052505769E0,-1.327514648E-3,-1.831054688E-4,3.112792969E-3
6.057541169E0,-1.800537109E-3,4.119873047E-4,2.624511719E-3
6.062576569E0,-2.410888672E-3,2.746582031E-4,1.419067383E-3
6.067611970E0,-2.258300781E-3,-8.087158203E-4,1.739501953E-3
6.072647370E0,-1.174926758E-3,-1.251220703E-3,1.998901367E-3
6.077682770E0,-7.324218750E-4,4.577636719E-5,2.868652344E-3
6.082718171E0,-1.403808594E-3,2.197265625E-3,3.036499023E-3
6.087753571E0,-2.487182617E-3,9.918212891E-4,2.624511719E-3
6.092788972E0,-2.868652344E-3,5.035400391E-4,3.326416016E-3
6.097824372E0,-2.166748047E-3,8.850097656E-4,2.990722656E-3
6.102859772E0,-1.800537109E-3,1.678466797E-4,1.220703125E-3
6.107895173E0,-2.532958984E-3,5.340576172E-4,-2.288818359E-4
6.112930573E0,-2.868652344E-3,1.373291016E-4,-5.798339844E-4
6.117965974E0,-5.950927734E-4,5.645751953E-4,1.831054688E-4
6.123001374E0,-4.425048828E-4,1.068115234E-4,1.266479492E-3
6.128036774E0,-1.525878906E-3,-9.765625000E-4,1.556396484E-3
6.133072175E0,-1.800537109E-3,-1.251220703E-3,1.556396484E-3
6.138107575E0,-1.800537109E-3,3.662109375E-4,1.556396484E-3
6.143142976E0,-9.765625000E-4,1.708984375E-3,2.395629883E-3
6.148178376E0,-7.324218750E-4,2.746582031E-4,3.463745117E-3
6.153213776E0,-7.324218750E-4,-1.831054688E-4,2.853393555E-3
6.158249177E0,1.220703125E-4,-1.052856445E-3,2.624511719E-3
6.163284577E0,3.356933594E-4,-1.251220703E-3,3.509521484E-3
6.168319978E0,-5.645751953E-4,-3.662109375E-4,2.807617188E-3
6.173355378E0,1.678466797E-4,-1.831054688E-4,2.624511719E-3
6.178390778E0,1.251220703E-3,-1.831054688E-4,2.624511719E-3
6.183426179E0,1.403808594E-3,-2.044677734E-3,1.708984375E-3
6.188461579E0,-5.035400391E-4,-1.373291016E-3,-3.356933594E-4
6.193496979E0,-1.693725586E-3,-1.251220703E-3,1.342773438E-3
6.198532380E0,-1.800537109E-3,-2.899169922E-4,1.556396484E-3
6.203567780E0,-1.800537109E-3,-2.151489258E-3,-3.967285156E-4
6.208603181E0,-8.087158203E-4,-2.319335938E-3,-5.798339844E-4
6.213638581E0,-7.324218750E-4,-1.312255859E-3,1.464843750E-3
6.218673981E0,-7.324218750E-4,-2.288818359E-4,1.556396484E-3
6.223709382E0,-7.324218750E-4,-1.220703125E-3,5.340576172E-4
6.228744782E0,-1.800537109E-3,-2.319335938E-3,4.882812500E-4
6.233780183E0,-7.324218750E-4,-3.387451172E-3,4.882812500E-4
6.238815583E0,3.204345703E-4,-1.266479492E-3,1.556396484E-3
6.243850983E0,-7.324218750E-4,-2.319335938E-3,4.882812500E-4
6.248886384E0,-6.561279297E-4,-2.319335938E-3,4.577636719E-4
6.253921784E0,1.403808594E-3,-2.319335938E-3,-5.187988281E-4
6.258957185E0,1.403808594E-3,-2.258300781E-3,4.272460938E-4
6.263992585E0,1.480102539E-3,-1.342773438E-3,-4.882812500E-4
6.269027985E0,2.471923828E-3,-2.426147461E-3,3.967285156E-4
6.274063386E0,2.365112305E-3,-3.295898438E-3,-3.662109375E-4
6.279098786E0,1.281738281E-3,-2.212524414E-3,1.327514648E-3
6.284134187E0,4.577636719E-4,-1.129150391E-3,-8.392333984E-4
6.289169587E0,1.403808594E-3,-3.356933594E-4,-2.563476562E-3
6.294204987E0,1.083374023E-3,-1.419067383E-3,-1.647949219E-3
6.299240388E0,-5.645751953E-4,-2.151489258E-3,-1.983642578E-3
6.304275788E0,3.356933594E-4,-1.251220703E-3,-3.585815430E-3
6.309311188E0,1.373291016E-4,-1.647949219E-3,-2.517700195E-3
6.314346589E0,-5.340576172E-4,-3.189086914E-3,-1.434326172E-3
6.319381989E0,5.493164062E-4,-2.319335938E-3,-5.798339844E-4
6.324417390E0,1.159667969E-3,-2.563476562E-3,-8.087158203E-4
6.329452790E0,5.798339844E-4,-3.387451172E-3,-1.892089844E-3
6.334488190E0,1.663208008E-3,-3.387451172E-3,-1.922607422E-3
6.339523591E0,2.182006836E-3,-3.112792969E-3,-6.103515625E-5
6.344558991E0,1.403808594E-3,-2.609252930E-3,-1.647949219E-3
6.349594392E0,1.403808594E-3,-3.097534180E-3,-1.647949219E-3
6.354629792E0,1.068115234E-3,-2.319335938E-3,-1.647949219E-3
6.359665192E0,3.356933594E-4,-2.990722656E-3,-1.647949219E-3
6.364700593E0,6.713867188E-4,-4.119873047E-3,-1.647949219E-3
6.369735993E0,6.713867188E-4,-3.753662109E-3,-1.998901367E-3
6.374771394E0,-3.662109375E-4,-3.723144531E-3,-2.334594727E-3
6.379806794E0,-6.103515625E-5,-2.319335938E-3,-1.647949219E-3
6.384842194E0,6.103515625E-5,-2.731323242E-3,-1.647949219E-3
6.389877595E0,1.403808594E-3,-3.387451172E-3,-1.647949219E-3
6.394912995E0,1.403808594E-3,-2.975463867E-3,-2.059936523E-3
6.399948395E0,9.613037109E-4,-2.319335938E-3,-1.831054688E-3
6.404983796E0,1.663208008E-3,-2.319335938E-3,-1.022338867E-3
6.410019196E0,3.540039062E-3,-3.234863281E-3,-1.647949219E-3
6.415054597E0,3.051757812E-3,-4.455566406E-3,-1.647949219E-3
6.420089997E0,2.471923828E-3,-3.479003906E-3,-1.647949219E-3
6.425125397E0,1.953125000E-3,-1.815795898E-3,-2.151489258E-3
6.430160798E0,8.850097656E-4,-1.251220703E-3,-2.716064453E-3
6.435196198E0,3.356933594E-4,-2.319335938E-3,-2.716064453E-3
6.440231599E0,3.356933594E-4,-3.387451172E-3,-2.166748047E-3
6.445266999E0,-2.288818359E-4,-3.387451172E-3,-2.197265625E-3
6.450302399E0,3.967285156E-4,-2.822875977E-3,-2.136230469E-3
6.455337800E0,1.403808594E-3,-2.914428711E-3,-2.227783203E-3
6.460373200E0,1.998901367E-3,-2.792358398E-3,-2.716064453E-3
6.465408601E0,3.067016602E-3,-2.319335938E-3,-1.495361328E-3
6.470444001E0,2.914428711E-3,-1.708984375E-3,-1.815795898E-3
6.475479401E0,1.831054688E-3,-1.251220703E-3,-2.716064453E-3
6.480514802E0,2.044677734E-3,-1.251220703E-3,-2.716064453E-3
6.485550202E0,2.471923828E-3,-1.251220703E-3,-1.388549805E-3
6.490585603E0,1.785278320E-3,-1.937866211E-3,-1.251220703E-3
6.495621003E0,1.403808594E-3,-2.319335938E-3,-1.647949219E-3
6.500656403E0,2.090454102E-3,-3.021240234E-3,-2.334594727E-3
6.505691804E0,2.471923828E-3,-3.387451172E-3,-2.716064453E-3
6.510727204E0,1.007080078E-3,-4.119873047E-3,-1.983642578E-3
6.515762604E0,1.068115234E-3,-3.723144531E-3,-2.380371094E-3
6.520798005E0,1.403808594E-3,-3.387451172E-3,-2.716064453E-3
6.525833405E0,1.403808594E-3,-1.861572266E-3,-1.937866211E-3
6.530868806E0,2.182006836E-3,-1.251220703E-3,-2.426147461E-3
6.535904206E0,8.850097656E-4,-1.251220703E-3,-1.922607422E-3
6.540939606E0,1.144409180E-3,-1.251220703E-3,-8.239746094E-4
6.545975007E0,1.403808594E-3,-4.272460938E-4,-1.403808594E-3
6.551010407E0,1.403808594E-3,-1.022338867E-3,-8.087158203E-4
6.556045808E0,5.493164062E-4,-2.944946289E-3,-2.258300781E-3
6.561081208E0,3.356933594E-4,-2.532958984E-3,-1.846313477E-3
6.566116608E0,1.205444336E-3,-2.319335938E-3,-1.647949219E-3
6.571152009E0,1.403808594E-3,-1.434326172E-3,-1.647949219E-3
6.576187409E0,4.882812500E-4,-1.251220703E-3,-1.647949219E-3
6.581222810E0,-5.950927734E-4,-1.251220703E-3,-2.563476562E-3
6.586258210E0,-7.324218750E-4,-2.182006836E-3,-1.785278320E-3
6.591293610E0,1.983642578E-4,-1.388549805E-3,-1.647949219E-3
6.596329011E0,-6.256103516E-4,-2.212524414E-3,-2.593994141E-3
6.601364411E0,1.205444336E-3,-3.295898438E-3,-1.739501953E-3
6.606399812E0,4.119873047E-4,-3.387451172E-3,-6.561279297E-4
6.611435212E0,1.327514648E-3,-3.387451172E-3,-5.798339844E-4
6.616470612E0,3.814697266E-4,-4.409790039E-3,-1.586914062E-3
6.621506013E0,1.342773438E-3,-3.448486328E-3,-6.256103516E-4
6.626541413E0,-6.713867188E-4,-2.365112305E-3,-1.602172852E-3
6.631576813E0,-1.785278320E-3,-2.319335938E-3,-1.647949219E-3
6.636612214E0,-7.476806641E-4,-3.387451172E-3,-1.647949219E-3
6.641647614E0,3.204345703E-4,-2.319335938E-3,-5.798339844E-4
6.646683015E0,-7.171630859E-4,-1.281738281E-3,-1.647949219E-3
6.651718415E0,2.593994141E-4,-2.319335938E-3,-1.602172852E-3
6.656753815E0,-1.861572266E-3,-2.273559570E-3,-5.187988281E-4
6.661789216E0,-2.868652344E-3,-1.312255859E-3,4.425048828E-4
6.666824616E0,-2.731323242E-3,-2.395629883E-3,-5.035400391E-4
6.671860017E0,-7.324218750E-4,-3.387451172E-3,4.882812500E-4
6.676895417E0,-7.324218750E-4,-3.295898438E-3,3.967285156E-4
6.681930817E0,-7.324218750E-4,-2.319335938E-3,-6.866455078E-4
6.686966218E0,-7.324218750E-4,-2.197265625E-3,-1.647949219E-3
6.692001618E0,-8.850097656E-4,-1.251220703E-3,-1.495361328E-3
6.697037019E0,-1.800537109E-3,-1.251220703E-3,-5.798339844E-4
6.702072419E0,-1.968383789E-3,-1.251220703E-3,-4.119873047E-4
6.707107819E0,-2.700805664E-3,-1.434326172E-3,3.204345703E-4
6.712143220E0,-1.632690430E-3,-2.151489258E-3,-3.967285156E-4
6.717178620E0,-9.460449219E-4,-1.464843750E-3,4.882812500E-4
6.722214020E0,-1.586914062E-3,-2.319335938E-3,4.882812500E-4
6.727249421E0,-9.765625000E-4,-2.319335938E-3,7.324218750E-4
6.732284821E0,-1.800537109E-3,-2.319335938E-3,1.556396484E-3
6.737320222E0,-1.800537109E-3,-1.815795898E-3,1.312255859E-3
6.742355622E0,-1.800537109E-3,-4.577636719E-4,4.882812500E-4
6.747391022E0,-1.525878906E-3,-1.251220703E-3,7.781982422E-4
6.752426423E0,-7.324218750E-4,-1.251220703E-3,1.861572266E-3
6.757461823E0,-7.324218750E-4,-1.251220703E-3,2.319335938E-3
6.762497224E0,-4.119873047E-4,-1.251220703E-3,1.556396484E-3
6.767532624E0,3.356933594E-4,-1.251220703E-3,1.556396484E-3
6.772568024E0,-7.171630859E-4,-1.602172852E-3,1.907348633E-3
6.777603425E0,-2.517700195E-3,-1.968383789E-3,2.273559570E-3
6.782638825E0,-2.182006836E-3,-8.850097656E-4,1.190185547E-3
6.787674226E0,-2.487182617E-3,-1.831054688E-4,8.850097656E-4
6.792709626E0,-1.800537109E-3,2.136230469E-4,1.968383789E-3
6.797745026E0,-1.800537109E-3,8.850097656E-4,3.051757812E-3
6.802780427E0,-1.388549805E-3,4.577636719E-4,3.280639648E-3
6.807815827E0,-3.051757812E-4,2.441406250E-4,2.624511719E-3
6.812851228E0,-1.022338867E-3,8.850097656E-4,2.182006836E-3
6.817886628E0,-1.480102539E-3,4.119873047E-4,1.098632812E-3
6.822922028E0,3.356933594E-4,2.899169922E-4,9.765625000E-4
6.827957429E0,-1.678466797E-4,8.850097656E-4,1.556396484E-3
6.832992829E0,-1.754760742E-3,3.662109375E-4,1.556396484E-3
6.838028229E0,-2.868652344E-3,3.356933594E-4,1.556396484E-3
6.843063630E0,-1.800537109E-3,1.419067383E-3,2.105712891E-3
6.848099030E0,-1.281738281E-3,1.953125000E-3,3.173828125E-3
6.853134431E0,-2.365112305E-3,1.953125000E-3,3.692626953E-3
6.858169831E0,-2.304077148E-3,1.953125000E-3,3.692626953E-3
6.863205231E0,-1.220703125E-3,1.953125000E-3,3.692626953E-3
6.868240632E0,-7.324218750E-4,1.953125000E-3,3.097534180E-3
6.873276032E0,-1.968383789E-3,1.953125000E-3,2.624511719E-3
6.878311433E0,-2.868652344E-3,1.953125000E-3,2.624511719E-3
6.883346833E0,-2.868652344E-3,6.713867188E-4,2.624511719E-3
6.888382233E0,-3.524780273E-3,4.577636719E-4,3.280639648E-3
6.893417634E0,-3.280639648E-3,8.850097656E-4,3.036499023E-3
6.898453034E0,-2.868652344E-3,8.850097656E-4,2.624511719E-3
6.903488435E0,-2.182006836E-3,8.850097656E-4,3.326416016E-3
6.908523835E0,-1.098632812E-3,1.586914062E-3,3.692626953E-3
6.913559235E0,-1.464843750E-3,1.220703125E-3,3.692626953E-3
6.918594636E0,-2.548217773E-3,1.617431641E-3,4.440307617E-3
6.923630036E0,-1.388549805E-3,1.205444336E-3,4.760742188E-3
6.928665437E0,-1.495361328E-3,8.850097656E-4,4.760742188E-3
6.933700837E0,-1.800537109E-3,8.850097656E-4,4.760742188E-3
6.938736237E0,-1.800537109E-3,8.850097656E-4,4.760742188E-3
6.943771638E0,-2.609252930E-3,1.678466797E-3,3.967285156E-3
6.948807038E0,-1.251220703E-3,1.953125000E-3,4.516601562E-3
6.953842438E0,-1.571655273E-3,1.113891602E-3,3.936767578E-3
6.958877839E0,-1.800537109E-3,8.850097656E-4,4.531860352E-3
6.963913239E0,-2.655029297E-3,1.724243164E-3,4.760742188E-3
6.968948640E0,-2.014160156E-3,1.953125000E-3,4.760742188E-3
6.973984040E0,-9.307861328E-4,1.953125000E-3,3.890991211E-3
6.979019440E0,-7.324218750E-4,1.953125000E-3,4.592895508E-3
6.984054841E0,1.678466797E-4,1.037597656E-3,5.676269531E-3
6.989090241E0,-5.950927734E-4,8.850097656E-4,3.997802734E-3
6.994125642E0,1.831054688E-4,8.850097656E-4,3.692626953E-3
6.999161042E0,-6.103515625E-4,1.815795898E-3,3.692626953E-3
7.004196442E0,2.136230469E-4,9.918212891E-4,3.692626953E-3
7.009231843E0,3.356933594E-4,1.846313477E-3,4.669189453E-3
7.014267243E0,3.356933594E-4,9.765625000E-4,5.737304688E-3
7.019302644E0,-6.713867188E-4,8.850097656E-4,3.845214844E-3
7.024338044E0,-7.324218750E-4,8.850097656E-4,2.685546875E-3
7.029373444E0,2.746582031E-4,1.892089844E-3,4.669189453E-3
7.034408845E0,-7.019042969E-4,9.155273438E-4,2.700805664E-3
7.039444245E0,-1.785278320E-3,8.850097656E-4,1.586914062E-3
7.044479645E0,-7.476806641E-4,1.937866211E-3,2.624511719E-3
7.049515046E0,3.356933594E-4,8.697509766E-4,4.760742188E-3
7.054550446E0,2.899169922E-4,-1.831054688E-4,4.760742188E-3
7.059585847E0,-1.770019531E-3,-1.525878906E-4,4.806518555E-3
7.064621247E0,-6.866455078E-4,8.850097656E-4,5.737304688E-3
7.069656647E0,3.356933594E-4,8.239746094E-4,3.692626953E-3
7.074692048E0,2.593994141E-4,-1.220703125E-4,3.768920898E-3
7.079727448E0,-5.645751953E-4,8.850097656E-4,4.684448242E-3
7.084762849E0,1.403808594E-3,7.781982422E-4,3.692626953E-3
7.089798249E0,1.403808594E-3,-7.629394531E-5,3.814697266E-3
7.094833649E0,1.144409180E-3,8.850097656E-4,4.638671875E-3
7.099869050E0,-5.950927734E-4,8.850097656E-4,3.845214844E-3
7.104904450E0,1.831054688E-4,8.850097656E-4,4.760742188E-3
7.109939851E0,-7.324218750E-4,8.850097656E-4,4.608154297E-3
7.114975251E0,-2.136230469E-4,5.187988281E-4,3.875732422E-3
7.120010651E0,2.471923828E-3,-1.068115234E-3,4.577636719E-3
7.125046052E0,2.258300781E-3,1.525878906E-5,3.494262695E-3
7.130081452E0,1.174926758E-3,6.561279297E-4,2.624511719E-3
7.135116853E0,3.356933594E-4,-4.272460938E-4,2.868652344E-3
7.140152253E0,5.645751953E-4,-1.022338867E-3,3.692626953E-3
7.145187653E0,8.850097656E-4,-1.831054688E-4,3.692626953E-3
7.150223054E0,-7.324218750E-4,-1.831054688E-4,3.433227539E-3
7.155258454E0,-4.577636719E-4,-1.831054688E-4,2.624511719E-3
7.160293854E0,3.051757812E-5,-1.831054688E-4,2.929687500E-3
7.165329255E0,1.831054688E-4,-1.831054688E-4,3.692626953E-3
7.170364655E0,2.471923828E-3,-1.831054688E-4,3.692626953E-3
7.175400056E0,2.471923828E-3,1.373291016E-4,4.028320312E-3
7.180435456E0,2.471923828E-3,1.220703125E-3,4.425048828E-3
7.185470856E0,2.105712891E-3,8.697509766E-4,4.425048828E-3
7.190506257E0,1.022338867E-3,-1.251220703E-3,5.462646484E-3
7.195541657E0,7.171630859E-4,-8.697509766E-4,3.997802734E-3
7.200577058E0,1.800537109E-3,-1.831054688E-4,3.036499023E-3
7.205612458E0,2.044677734E-3,-1.831054688E-4,3.692626953E-3
7.210647858E0,1.403808594E-3,2.288818359E-4,3.692626953E-3
7.215683259E0,1.403808594E-3,0.000000000E0,3.692626953E-3
7.220718659E0,9.460449219E-4,-8.087158203E-4,2.792358398E-3
7.225754060E0,3.356933594E-4,-1.831054688E-4,2.487182617E-3
7.230789460E0,1.281738281E-3,-6.713867188E-4,3.219604492E-3
7.235824860E0,1.480102539E-3,-1.251220703E-3,2.624511719E-3
7.240860261E0,1.342773438E-3,-7.476806641E-4,2.624511719E-3
7.245895661E0,1.953125000E-3,-1.831054688E-4,3.143310547E-3
7.250931062E0,1.922607422E-3,-1.831054688E-4,2.639770508E-3
7.255966462E0,1.922607422E-3,-7.324218750E-4,1.556396484E-3
7.261001862E0,8.392333984E-4,-1.251220703E-3,2.120971680E-3
7.266037263E0,9.002685547E-4,-1.251220703E-3,3.204345703E-3
7.271072663E0,1.403808594E-3,-1.251220703E-3,2.532958984E-3
7.276108063E0,1.403808594E-3,-6.561279297E-4,2.166748047E-3
7.281143464E0,7.934570312E-4,4.119873047E-4,3.234863281E-3
7.286178864E0,9.460449219E-4,8.850097656E-4,3.082275391E-3
7.291214265E0,1.403808594E-3,2.441406250E-4,2.624511719E-3
7.296249665E0,1.403808594E-3,-1.831054688E-4,2.624511719E-3
7.301285065E0,2.059936523E-3,-1.831054688E-4,1.968383789E-3
7.306320466E0,2.471923828E-3,-1.831054688E-4,8.850097656E-4
7.311355866E0,2.471923828E-3,5.035400391E-4,1.190185547E-3
7.316391267E0,1.083374023E-3,8.850097656E-4,8.697509766E-4
7.321426667E0,1.037597656E-3,-5.493164062E-4,-2.136230469E-4
7.326462067E0,2.120971680E-3,-1.251220703E-3,-5.798339844E-4
7.331497468E0,2.471923828E-3,-1.251220703E-3,1.678466797E-4
7.336532868E0,1.708984375E-3,-1.251220703E-3,1.251220703E-3
7.341568269E0,1.403808594E-3,-1.251220703E-3,1.556396484E-3
7.346603669E0,1.403808594E-3,-4.730224609E-4,1.556396484E-3
7.351639069E0,1.403808594E-3,-9.765625000E-4,1.556396484E-3
7.356674470E0,1.403808594E-3,3.509521484E-4,1.556396484E-3
7.361709870E0,2.212524414E-3,6.103515625E-5,-7.629394531E-5
7.366745270E0,1.632690430E-3,-1.022338867E-3,-5.798339844E-4
7.371780671E0,1.403808594E-3,-1.251220703E-3,2.746582031E-4
7.376816071E0,5.340576172E-4,-1.251220703E-3,4.882812500E-4
7.381851472E0,1.205444336E-3,-2.136230469E-3,4.882812500E-4
7.386886872E0,-3.662109375E-4,-1.449584961E-3,4.882812500E-4
7.391922272E0,1.525878906E-4,-1.251220703E-3,-1.296997070E-3
7.396957673E0,-5.798339844E-4,-1.251220703E-3,-7.324218750E-4
7.401993073E0,-7.324218750E-4,-1.251220703E-3,-5.798339844E-4
7.407028474E0,1.983642578E-4,-1.251220703E-3,-1.510620117E-3
7.412063874E0,3.356933594E-4,-1.251220703E-3,-1.647949219E-3
7.417099274E0,1.296997070E-3,-2.227783203E-3,-6.713867188E-4
7.422134675E0,-5.493164062E-4,-1.358032227E-3,-5.798339844E-4
7.427170075E0,-7.324218750E-4,-1.251220703E-3,-1.556396484E-3
7.432205476E0,2.593994141E-4,-2.593994141E-4,-6.408691406E-4
7.437240876E0,1.342773438E-3,-1.831054688E-4,-2.609252930E-3
7.442276276E0,1.403808594E-3,-1.220703125E-3,-6.408691406E-4
7.447311677E0,3.509521484E-4,-1.251220703E-3,-1.617431641E-3
7.452347077E0,3.356933594E-4,-1.251220703E-3,-5.798339844E-4
7.457382478E0,1.403808594E-3,-1.251220703E-3,-5.798339844E-4
7.462417878E0,3.356933594E-4,-2.319335938E-3,-5.798339844E-4
7.467453278E0,1.358032227E-3,-1.251220703E-3,-1.571655273E-3
7.472488679E0,3.356933594E-4,-1.251220703E-3,4.882812500E-4
7.477524079E0,3.814697266E-4,-1.205444336E-3,4.882812500E-4
7.482559479E0,1.327514648E-3,-2.593994141E-4,4.272460938E-4
7.487594880E0,2.441406250E-4,-1.251220703E-3,-5.798339844E-4
7.492630280E0,-6.408691406E-4,-1.159667969E-3,-8.544921875E-4
7.497665681E0,2.136230469E-4,-3.051757812E-4,-3.662109375E-3
7.502701081E0,-7.324218750E-4,-1.388549805E-3,-2.716064453E-3
7.507736481E0,-7.324218750E-4,-2.197265625E-3,-2.578735352E-3
7.512771882E0,-4.577636719E-4,-1.251220703E-3,-1.785278320E-3
7.517790759E0,1.235961914E-3,-1.251220703E-3,-2.716064453E-3
7.522826160E0,3.356933594E-4,-1.251220703E-3,-2.883911133E-3
7.527861560E0,5.187988281E-4,-1.449584961E-3,-3.585815430E-3
7.532896960E0,1.403808594E-3,-1.922607422E-3,-2.304077148E-3
7.537932361E0,9.765625000E-4,-1.831054688E-4,-9.918212891E-4
7.542967761E0,-5.187988281E-4,-1.831054688E-4,-2.716064453E-3
7.548003162E0,9.155273438E-5,-4.272460938E-4,-2.716064453E-3
7.553038562E0,-4.882812500E-4,-1.251220703E-3,-2.960205078E-3
7.558073962E0,3.356933594E-4,-1.251220703E-3,-4.043579102E-3
7.563109363E0,6.103515625E-4,-9.765625000E-4,-4.562377930E-3
7.568144763E0,1.098632812E-3,-7.781982422E-4,-3.189086914E-3
7.573180164E0,3.356933594E-4,-2.014160156E-3,-1.953125000E-3
7.578215564E0,3.356933594E-4,-1.251220703E-3,-3.036499023E-3
7.583250964E0,6.561279297E-4,-1.251220703E-3,-3.448486328E-3
7.588286365E0,1.052856445E-3,-5.645751953E-4,-2.716064453E-3
7.593321765E0,-3.051757812E-5,5.187988281E-4,-3.067016602E-3
7.598357165E0,-7.324218750E-4,-5.645751953E-4,-3.402709961E-3
7.603392566E0,-1.129150391E-3,-1.251220703E-3,-2.319335938E-3
7.608427966E0,-1.800537109E-3,-1.251220703E-3,-2.044677734E-3
7.613463367E0,-9.765625000E-4,-4.272460938E-4,-2.716064453E-3
7.618498767E0,3.356933594E-4,4.577636719E-4,-3.128051758E-3
7.623534167E0,-1.068115234E-4,2.441406250E-4,-3.341674805E-3
7.628569568E0,-7.324218750E-4,4.272460938E-4,-3.158569336E-3
7.633604968E0,-1.205444336E-3,-6.561279297E-4,-3.311157227E-3
7.638640369E0,-1.800537109E-3,-1.251220703E-3,-2.716064453E-3
7.643675769E0,-2.304077148E-3,-7.629394531E-4,-4.180908203E-3
7.648711169E0,-2.868652344E-3,3.204345703E-4,-5.401611328E-3
7.653746570E0,-1.846313477E-3,3.662109375E-4,-4.333496094E-3
7.658781970E0,-2.136230469E-4,3.356933594E-4,-4.302978516E-3
7.663817371E0,-2.136230469E-4,3.356933594E-4,-4.302978516E-3
7.668852771E0,-1.831054688E-4,-1.831054688E-4,-3.219604492E-3
7.673888171E0,-2.441406250E-4,-1.831054688E-4,-3.280639648E-3
7.678923572E0,-7.324218750E-4,-1.831054688E-4,-3.189086914E-3
7.683958972E0,-1.937866211E-3,-1.831054688E-4,-2.716064453E-3
7.688994372E0,-2.868652344E-3,-1.831054688E-4,-2.716064453E-3
7.694029773E0,-2.258300781E-3,4.272460938E-4,-2.716064453E-3
7.699065173E0,-1.174926758E-3,2.441406250E-4,-3.341674805E-3
7.704100574E0,-7.324218750E-4,4.577636719E-4,-3.128051758E-3
7.709135974E0,-7.324218750E-4,2.136230469E-4,-1.388549805E-3
7.714171374E0,6.103515625E-4,4.882812500E-4,-1.251220703E-3
7.719206775E0,1.525878906E-5,1.571655273E-3,-1.647949219E-3
7.724242175E0,-7.324218750E-4,-1.525878906E-4,-1.647949219E-3
7.729277576E0,-3.051757812E-5,-1.251220703E-3,-9.307861328E-4
7.734312976E0,-3.967285156E-4,-5.340576172E-4,-5.798339844E-4
7.739348376E0,-7.324218750E-4,-1.831054688E-4,-5.798339844E-4
7.744383777E0,-7.324218750E-4,5.645751953E-4,-1.327514648E-3
7.749419177E0,3.051757812E-5,8.850097656E-4,-2.410888672E-3
7.754454578E0,-4.577636719E-4,8.850097656E-4,-1.922607422E-3
7.759489978E0,-7.324218750E-4,9.155273438E-5,-1.647949219E-3
7.764525378E0,-7.324218750E-4,6.103515625E-4,-1.647949219E-3
7.769560779E0,-7.324218750E-4,8.850097656E-4,-1.647949219E-3
7.774596179E0,-7.324218750E-4,8.850097656E-4,-2.471923828E-3
7.779631580E0,-1.586914062E-3,8.850097656E-4,-1.861572266E-3
7.784666980E0,-9.460449219E-4,1.525878906E-5,-7.781982422E-4
7.789702380E0,-7.324218750E-4,-1.831054688E-4,-2.319335938E-3
7.794737781E0,-7.324218750E-4,6.866455078E-4,-2.716064453E-3
7.799773181E0,-7.324218750E-4,-9.155273438E-4,-1.815795898E-3
7.804808581E0,-7.324218750E-4,5.645751953E-4,-7.324218750E-4
7.809843982E0,-7.324218750E-4,1.800537109E-3,-5.798339844E-4
7.814879382E0,1.983642578E-4,1.953125000E-3,3.662109375E-4
7.819914783E0,1.281738281E-3,1.953125000E-3,-4.577636719E-4
7.824950183E0,1.403808594E-3,1.953125000E-3,3.967285156E-4
7.829985583E0,4.119873047E-4,9.613037109E-4,4.882812500E-4
7.835020984E0,-6.561279297E-4,-1.068115234E-4,-4.882812500E-4
7.840056384E0,2.593994141E-4,8.087158203E-4,-5.798339844E-4
7.845091785E0,-6.866455078E-4,-1.373291016E-4,4.425048828E-4
7.850127185E0,-7.324218750E-4,8.392333984E-4,4.882812500E-4
7.855162585E0,-7.324218750E-4,1.922607422E-3,4.882812500E-4
7.860197986E0,3.204345703E-4,1.953125000E-3,-1.632690430E-3
7.865233386E0,-7.324218750E-4,1.953125000E-3,-1.647949219E-3
7.870268787E0,-7.324218750E-4,1.953125000E-3,5.035400391E-4
7.875304187E0,2.746582031E-4,1.892089844E-3,1.541137695E-3
7.880339587E0,-1.770019531E-3,-1.525878906E-4,5.340576172E-4
7.885374988E0,-7.324218750E-4,9.307861328E-4,1.556396484E-3
7.890410388E0,-8.087158203E-4,1.953125000E-3,1.495361328E-3
7.895445789E0,-1.892089844E-3,1.953125000E-3,4.882812500E-4
7.900481189E0,-2.868652344E-3,1.953125000E-3,4.882812500E-4
7.905516589E0,-2.868652344E-3,1.831054688E-3,6.103515625E-4
7.910551990E0,-2.746582031E-3,8.850097656E-4,1.434326172E-3
7.915587390E0,-1.800537109E-3,8.850097656E-4,4.882812500E-4
7.920622790E0,-1.663208008E-3,8.850097656E-4,4.882812500E-4
7.925658191E0,-7.324218750E-4,1.022338867E-3,6.408691406E-4
7.930693591E0,-5.645751953E-4,1.953125000E-3,1.556396484E-3
7.935728992E0,-4.577636719E-5,1.953125000E-3,1.556396484E-3
7.940764392E0,-1.800537109E-3,1.739501953E-3,1.556396484E-3
7.945799792E0,-1.800537109E-3,1.312255859E-3,1.556396484E-3
7.950835193E0,-1.342773438E-3,3.250122070E-3,1.327514648E-3
7.955870593E0,3.356933594E-4,3.845214844E-3,7.324218750E-4
7.960905994E0,7.629394531E-5,2.761840820E-3,1.815795898E-3
7.965941394E0,-1.983642578E-4,1.678466797E-3,2.624511719E-3
7.970976794E0,1.113891602E-3,8.850097656E-4,2.624511719E-3
7.976012195E0,3.356933594E-4,5.798339844E-4,2.624511719E-3
7.981047595E0,1.525878906E-5,-1.831054688E-4,2.624511719E-3
7.986082996E0,-7.324218750E-4,4.577636719E-4,2.304077148E-3
7.991118396E0,-4.119873047E-4,2.273559570E-3,1.892089844E-3
7.996153796E0,6.713867188E-4,2.670288086E-3,2.975463867E-3
8.001189197E0,1.037597656E-3,1.953125000E-3,3.692626953E-3
8.006224597E0,7.019042969E-4,1.953125000E-3,3.326416016E-3
8.011259997E0,6.256103516E-4,1.556396484E-3,2.624511719E-3
8.016295398E0,-3.356933594E-4,8.850097656E-4,2.624511719E-3
8.021330798E0,3.356933594E-4,8.850097656E-4,2.212524414E-3
8.026366199E0,-9.155273438E-5,8.850097656E-4,1.983642578E-3
8.031401599E0,-3.051757812E-4,0.000000000E0,2.197265625E-3
8.036436999E0,-1.220703125E-4,-8.087158203E-4,1.113891602E-3
8.041472400E0,-7.324218750E-4,-1.831054688E-4,9.613037109E-4
8.046507800E0,-7.324218750E-4,-1.831054688E-4,1.556396484E-3
8.051543201E0,-2.441406250E-4,7.934570312E-4,2.548217773E-3
8.056578601E0,3.356933594E-4,1.434326172E-3,3.189086914E-3
8.061614001E0,-1.831054688E-4,8.850097656E-4,2.624511719E-3
8.066649402E0,3.204345703E-4,8.850097656E-4,3.158569336E-3
8.071684802E0,8.544921875E-4,1.419067383E-3,3.158569336E-3
8.076720203E0,8.850097656E-4,1.388549805E-3,2.624511719E-3
8.081755603E0,1.403808594E-3,3.051757812E-4,3.204345703E-3
8.086791003E0,8.087158203E-4,-1.831054688E-4,4.287719727E-3
8.091826404E0,-2.746582031E-4,-7.934570312E-4,4.760742188E-3
8.096861804E0,-1.342773438E-3,-1.251220703E-3,5.371093750E-3
8.101897205E0,-1.800537109E-3,-1.525878906E-5,3.967285156E-3
8.106932605E0,-1.800537109E-3,2.441406250E-4,2.624511719E-3
8.111968005E0,-1.800537109E-3,-1.831054688E-4,3.280639648E-3
8.117003406E0,-1.144409180E-3,-8.544921875E-4,3.692626953E-3
8.122038806E0,-7.324218750E-4,9.155273438E-5,3.692626953E-3
8.127074206E0,-7.324218750E-4,8.850097656E-4,4.394531250E-3
8.132109607E0,-7.324218750E-4,1.678466797E-4,4.058837891E-3
8.137145007E0,-1.449584961E-3,-1.831054688E-4,2.990722656E-3
8.142180408E0,-1.083374023E-3,-9.155273438E-4,1.907348633E-3
8.147215808E0,0.000000000E0,-1.251220703E-3,1.556396484E-3
8.152251208E0,-1.174926758E-3,-5.035400391E-4,2.319335938E-3
8.157286609E0,-1.037597656E-3,-9.613037109E-4,3.402709961E-3
8.162322009E0,-7.324218750E-4,-2.044677734E-3,2.914428711E-3
8.167357410E0,-7.324218750E-4,-1.541137695E-3,2.624511719E-3
8.172392810E0,-7.324218750E-4,-4.577636719E-4,3.433227539E-3
8.177428210E0,7.629394531E-5,-1.831054688E-4,4.516601562E-3
8.182463611E0,-5.035400391E-4,-1.831054688E-4,3.936767578E-3
8.187499011E0,-7.324218750E-4,6.561279297E-4,5.401611328E-3
8.192534412E0,-7.324218750E-4,1.525878906E-5,4.974365234E-3
8.197569812E0,-7.324218750E-4,-1.831054688E-4,3.890991211E-3
8.202605212E0,-1.632690430E-3,-1.831054688E-4,3.692626953E-3
8.207640613E0,-1.800537109E-3,7.171630859E-4,4.608154297E-3
8.212676013E0,-8.850097656E-4,-4.577636719E-5,2.929687500E-3
8.217711414E0,-7.324218750E-4,-1.113891602E-3,4.486083984E-3
8.222746814E0,-1.678466797E-3,-2.197265625E-3,3.829956055E-3
8.227782214E0,-8.697509766E-4,-4.425048828E-4,3.692626953E-3
8.232817615E0,-1.708984375E-3,-1.159667969E-3,3.692626953E-3
8.237853015E0,-8.239746094E-4,-2.243041992E-3,2.716064453E-3
8.242888415E0,-7.324218750E-4,-3.356933594E-4,2.624511719E-3
8.247923816E0,-7.324218750E-4,-1.831054688E-4,1.617431641E-3
8.252959216E0,-7.324218750E-4,8.239746094E-4,1.556396484E-3
8.257994617E0,-7.324218750E-4,-1.525878906E-4,2.593994141E-3
8.263030017E0,-7.324218750E-4,-1.235961914E-3,3.677368164E-3
8.268065417E0,3.204345703E-4,-1.251220703E-3,2.639770508E-3
8.273100818E0,3.356933594E-4,-1.251220703E-3,3.692626953E-3
8.278136218E0,3.051757812E-4,-1.251220703E-3,2.609252930E-3
8.283171619E0,-7.324218750E-4,-1.220703125E-3,1.602172852E-3
8.288207019E0,-7.324218750E-4,-2.441406250E-4,2.624511719E-3
8.293242419E0,-6.866455078E-4,-1.312255859E-3,2.517700195E-3
8.298277820E0,2.593994141E-4,-2.258300781E-3,6.408691406E-4
8.303313220E0,-7.324218750E-4,-1.251220703E-3,2.716064453E-3
8.308348621E0,-7.324218750E-4,-1.358032227E-3,3.601074219E-3
8.313384021E0,-7.324218750E-4,-2.319335938E-3,2.746582031E-3
8.318419421E0,-7.324218750E-4,-2.075195312E-3,3.570556641E-3
8.323454822E0,-5.950927734E-4,-3.356933594E-4,2.777099609E-3
8.328490222E0,3.356933594E-4,-1.251220703E-3,3.692626953E-3
8.333525622E0,3.356933594E-4,-1.434326172E-3,3.692626953E-3
8.338561023E0,3.356933594E-4,-2.319335938E-3,3.692626953E-3
8.343596423E0,1.373291016E-4,-2.136230469E-3,3.692626953E-3
8.348631824E0,-7.324218750E-4,-1.251220703E-3,3.494262695E-3
8.353667224E0,-7.324218750E-4,-1.037597656E-3,2.410888672E-3
8.358702624E0,-5.035400391E-4,-1.831054688E-4,1.800537109E-3
8.363738025E0,-1.678466797E-4,-1.831054688E-4,2.624511719E-3
8.368773425E0,-1.541137695E-3,-4.577636719E-4,2.365112305E-3
8.373808826E0,-7.324218750E-4,-9.765625000E-4,1.846313477E-3
8.378844226E0,-1.022338867E-3,-4.730224609E-4,2.914428711E-3
8.383879626E0,-1.510620117E-3,-1.556396484E-3,3.402709961E-3
8.388915027E0,-1.052856445E-3,-2.014160156E-3,2.624511719E-3
8.393950427E0,-1.480102539E-3,-9.307861328E-4,2.304077148E-3
8.398985828E0,-3.967285156E-4,-1.831054688E-4,1.556396484E-3
8.404021228E0,-3.051757812E-5,-1.831054688E-4,1.556396484E-3
8.409056628E0,-7.324218750E-4,-1.831054688E-4,1.937866211E-3
8.414092029E0,-7.324218750E-4,-1.831054688E-4,2.258300781E-3
8.419127429E0,-1.129150391E-3,-1.831054688E-4,1.174926758E-3
8.424162830E0,-1.403808594E-3,2.136230469E-4,4.882812500E-4
8.429198230E0,-1.159667969E-3,8.850097656E-4,7.629394531E-5
8.434233630E0,-1.373291016E-3,4.425048828E-4,-5.798339844E-4
8.439269031E0,-7.324218750E-4,2.593994141E-4,-1.220703125E-4
8.444304431E0,-7.324218750E-4,8.850097656E-4,9.613037109E-4
8.449339831E0,-1.220703125E-3,-7.629394531E-5,1.556396484E-3
8.454375232E0,-1.312255859E-3,-1.251220703E-3,5.798339844E-4
8.459410632E0,-7.324218750E-4,-1.251220703E-3,-5.798339844E-4
8.464446033E0,-1.770019531E-3,-1.770019531E-3,-6.103515625E-5
8.469481433E0,-2.868652344E-3,-2.319335938E-3,4.882812500E-4
8.474516833E0,-2.334594727E-3,-2.868652344E-3,4.882812500E-4
8.479552234E0,-1.251220703E-3,-2.838134766E-3,-6.103515625E-5
8.484587634E0,-1.876831055E-3,-2.319335938E-3,0.000000000E0
8.489623035E0,-2.868652344E-3,-1.739501953E-3,-9.155273438E-5
8.494658435E0,-1.678466797E-3,-1.861572266E-3,6.256103516E-4
8.499693835E0,-1.373291016E-4,-1.113891602E-3,9.613037109E-4
8.504729236E0,-2.899169922E-4,-1.831054688E-4,-1.220703125E-4
8.509764636E0,-7.324218750E-4,-1.831054688E-4,7.019042969E-4
8.514800037E0,-7.324218750E-4,-8.392333984E-4,1.556396484E-3
8.519835437E0,-1.403808594E-3,-1.922607422E-3,9.002685547E-4
8.524870837E0,-1.800537109E-3,-2.319335938E-3,-1.831054688E-4
8.529906238E0,-1.800537109E-3,-1.647949219E-3,1.068115234E-4
8.534941638E0,-1.113891602E-3,-1.251220703E-3,4.882812500E-4
8.539977039E0,-3.051757812E-5,-1.251220703E-3,-2.136230469E-4
8.545012439E0,3.356933594E-4,-1.251220703E-3,1.525878906E-4
8.550047839E0,3.356933594E-4,-5.187988281E-4,4.882812500E-4
8.555083240E0,3.356933594E-4,-1.831054688E-4,-2.593994141E-4
8.560118640E0,-4.425048828E-4,-9.613037109E-4,-5.798339844E-4
8.565154040E0,-7.324218750E-4,-2.044677734E-3,-1.358032227E-3
8.570189441E0,4.577636719E-5,-1.541137695E-3,-1.647949219E-3
8.575224841E0,-4.882812500E-4,-2.883911133E-3,-8.239746094E-4
8.580260242E0,7.629394531E-5,-2.578735352E-3,-5.798339844E-4
8.585295642E0,-5.035400391E-4,-1.495361328E-3,-5.798339844E-4
8.590331042E0,-7.324218750E-4,-1.251220703E-3,-5.798339844E-4
8.595366443E0,-1.602172852E-3,-2.120971680E-3,-5.798339844E-4
8.600401843E0,-2.685546875E-3,-2.319335938E-3,-5.798339844E-4
8.605437244E0,-1.983642578E-4,-5.493164062E-4,-5.798339844E-4
8.610472644E0,-5.798339844E-4,-1.831054688E-4,3.356933594E-4
8.615508044E0,-1.663208008E-3,-1.113891602E-3,4.882812500E-4
8.620543445E0,-1.800537109E-3,-2.182006836E-3,-4.272460938E-4
8.625578845E0,-1.800537109E-3,-2.319335938E-3,3.662109375E-4
8.630614246E0,-8.544921875E-4,-4.119873047E-4,4.882812500E-4
8.635649646E0,-7.324218750E-4,-1.159667969E-3,-1.449584961E-3
8.640685046E0,-1.724243164E-3,-2.746582031E-4,-2.624511719E-3
8.645720447E0,-1.800537109E-3,-1.831054688E-4,-1.708984375E-3
8.650755847E0,-7.934570312E-4,-1.831054688E-4,-1.647949219E-3
8.655791247E0,2.746582031E-4,-1.831054688E-4,-1.647949219E-3
8.660826648E0,-2.777099609E-3,-2.258300781E-3,-6.103515625E-4
8.665862048E0,-7.781982422E-4,-2.319335938E-3,-1.617431641E-3
8.670897449E0,-7.324218750E-4,-2.319335938E-3,-1.647949219E-3
8.675932849E0,3.356933594E-4,-1.251220703E-3,-1.632690430E-3
8.680968249E0,3.356933594E-4,-2.136230469E-4,-5.950927734E-4
8.686003650E0,3.356933594E-4,-1.296997070E-3,-1.647949219E-3
8.691039050E0,2.746582031E-4,-2.273559570E-3,-1.647949219E-3
8.696074451E0,-8.087158203E-4,-1.129150391E-3,-1.571655273E-3
8.701109851E0,-1.800537109E-3,8.850097656E-4,-5.798339844E-4
8.706145251E0,-1.800537109E-3,6.866455078E-4,-5.798339844E-4
8.711180652E0,-1.708984375E-3,-1.251220703E-3,-6.713867188E-4
8.716216052E0,-6.256103516E-4,-1.251220703E-3,-1.525878906E-3
8.721251453E0,3.356933594E-4,-1.251220703E-3,-7.019042969E-4
8.726286853E0,4.730224609E-4,-1.251220703E-3,-1.647949219E-3
8.731322253E0,1.235961914E-3,-1.098632812E-3,-1.480102539E-3
8.736357654E0,1.525878906E-4,-1.831054688E-4,-3.967285156E-4
8.741393054E0,-5.493164062E-4,-3.814697266E-4,3.051757812E-4
8.746428455E0,-6.103515625E-5,-1.068115234E-3,-5.798339844E-4
8.751463855E0,-1.388549805E-3,-1.831054688E-4,-5.798339844E-4
8.756499255E0,1.068115234E-4,-4.119873047E-4,-5.798339844E-4
8.761534656E0,-7.324218750E-4,-1.022338867E-3,-3.356933594E-4
8.766570056E0,-4.882812500E-4,6.103515625E-5,4.882812500E-4
8.771605456E0,3.356933594E-4,8.850097656E-4,4.882812500E-4
8.776640857E0,3.356933594E-4,5.950927734E-4,4.882812500E-4
8.781676257E0,3.356933594E-4,-1.831054688E-4,2.136230469E-4
8.786711658E0,3.356933594E-4,-4.882812500E-4,-2.746582031E-4
8.791747058E0,3.356933594E-4,-9.460449219E-4,1.831054688E-4
8.796782458E0,3.356933594E-4,-5.187988281E-4,-5.798339844E-4
8.801817859E0,3.356933594E-4,-1.251220703E-3,-5.798339844E-4
8.806853259E0,-3.051757812E-5,-1.617431641E-3,-2.136230469E-4
8.811888660E0,-7.324218750E-4,-1.953125000E-3,8.697509766E-4
8.816924060E0,-1.113891602E-3,-5.035400391E-4,1.190185547E-3
8.821959460E0,-1.022338867E-3,8.850097656E-4,1.068115234E-4
8.826994861E0,-7.629394531E-5,4.730224609E-4,-1.678466797E-4
8.832030261E0,-7.324218750E-4,-6.103515625E-4,4.882812500E-4
8.837065662E0,-7.324218750E-4,-8.392333984E-4,9.155273438E-4
8.842101062E0,-7.324218750E-4,-6.408691406E-4,1.113891602E-3
8.847136462E0,-2.746582031E-4,-1.251220703E-3,4.882812500E-4
8.852171863E0,3.356933594E-4,-7.934570312E-4,4.882812500E-4
8.857207263E0,3.356933594E-4,2.899169922E-4,4.882812500E-4
8.862242664E0,1.327514648E-3,3.814697266E-4,0.000000000E0
8.867278064E0,2.471923828E-3,-1.831054688E-4,4.425048828E-4
8.872313464E0,1.419067383E-3,-1.831054688E-4,1.556396484E-3
8.877348865E0,-2.136230469E-4,-1.831054688E-4,1.022338867E-3
8.882384265E0,-7.324218750E-4,3.662109375E-4,-6.103515625E-5
8.887419665E0,-1.831054688E-4,8.850097656E-4,1.113891602E-3
8.892455066E0,-2.441406250E-4,8.850097656E-4,2.059936523E-3
8.897490466E0,-7.324218750E-4,2.899169922E-4,1.556396484E-3
8.902525867E0,4.730224609E-4,-1.831054688E-4,1.556396484E-3
8.907561267E0,2.014160156E-3,-1.831054688E-4,1.556396484E-3
8.912596667E0,2.471923828E-3,4.425048828E-4,9.307861328E-4
8.917632068E0,1.815795898E-3,8.850097656E-4,1.785278320E-3
8.922667468E0,9.155273438E-5,8.850097656E-4,1.327514648E-3
8.927702869E0,-7.629394531E-5,2.136230469E-4,1.159667969E-3
8.932738269E0,3.356933594E-4,-1.831054688E-4,2.243041992E-3
8.937773669E0,1.022338867E-3,5.035400391E-4,1.937866211E-3
8.942809070E0,6.866455078E-4,8.850097656E-4,2.273559570E-3
8.947844470E0,-3.967285156E-4,1.602172852E-3,2.624511719E-3
8.952879871E0,-7.324218750E-4,1.205444336E-3,2.624511719E-3
8.957915271E0,0.000000000E0,1.617431641E-3,2.624511719E-3
8.962950671E0,-4.425048828E-4,2.716064453E-3,1.861572266E-3
8.967986072E0,-7.324218750E-4,1.464843750E-3,2.334594727E-3
8.973021472E0,4.577636719E-5,9.155273438E-5,1.846313477E-3
8.978056872E0,1.129150391E-3,-1.831054688E-4,1.556396484E-3
8.983092273E0,1.403808594E-3,1.434326172E-3,3.189086914E-3
8.988127673E0,1.403808594E-3,1.113891602E-3,2.868652344E-3
8.993163074E0,-2.899169922E-4,8.850097656E-4,2.624511719E-3
8.998198474E0,1.068115234E-4,8.850097656E-4,2.624511719E-3
9.003233874E0,3.356933594E-4,8.850097656E-4,4.364013672E-3
9.008269275E0,-5.493164062E-4,1.754760742E-3,3.890991211E-3
9.013304675E0,-7.324218750E-4,1.678466797E-4,3.692626953E-3
9.018340076E0,-7.324218750E-4,-1.831054688E-4,2.792358398E-3
9.023375476E0,-7.324218750E-4,1.647949219E-3,4.470825195E-3
9.028410876E0,-7.324218750E-4,1.953125000E-3,3.829956055E-3
9.033446277E0,-7.324218750E-4,1.953125000E-3,2.761840820E-3
9.038481677E0,-7.324218750E-4,2.899169922E-3,2.624511719E-3
9.043517078E0,2.288818359E-4,2.044677734E-3,2.624511719E-3
9.048552478E0,-1.647949219E-3,1.953125000E-3,1.647949219E-3
9.053587878E0,-8.087158203E-4,9.460449219E-4,2.563476562E-3
9.058623279E0,-1.754760742E-3,-1.373291016E-4,1.617431641E-3
9.063658679E0,-7.781982422E-4,8.392333984E-4,3.616333008E-3
9.068694080E0,3.051757812E-4,8.850097656E-4,2.655029297E-3
9.073729480E0,-7.324218750E-4,1.937866211E-3,1.571655273E-3
9.078764880E0,-1.800537109E-3,1.953125000E-3,2.624511719E-3
9.083800281E0,-1.800537109E-3,1.953125000E-3,1.556396484E-3
9.088835681E0,-1.785278320E-3,1.922607422E-3,1.586914062E-3
9.093871081E0,-7.324218750E-4,8.850097656E-4,2.624511719E-3
9.098906482E0,-7.324218750E-4,8.850097656E-4,2.578735352E-3
9.103941882E0,-7.324218750E-4,8.850097656E-4,1.632690430E-3
9.108977283E0,-6.561279297E-4,9.613037109E-4,2.624511719E-3
9.114012683E0,5.187988281E-4,1.754760742E-3,2.731323242E-3
9.119048083E0,2.365112305E-3,-2.899169922E-4,3.692626953E-3
9.124083484E0,1.281738281E-3,-1.144409180E-3,3.692626953E-3
9.129118884E0,3.356933594E-4,-1.831054688E-4,3.829956055E-3
9.134154285E0,1.831054688E-4,-1.831054688E-4,4.348754883E-3
9.139189685E0,-7.324218750E-4,1.068115234E-4,1.708984375E-3
9.144225085E0,-9.155273438E-4,1.602172852E-3,2.807617188E-3
9.149260486E0,-1.617431641E-3,-3.814697266E-4,3.692626953E-3
9.154295886E0,-5.493164062E-4,-1.251220703E-3,3.509521484E-3
9.159331287E0,3.356933594E-4,-8.392333984E-4,3.051757812E-3
9.164366687E0,1.068115234E-4,1.098632812E-3,4.760742188E-3
9.169402087E0,-9.765625000E-4,1.953125000E-3,4.760742188E-3
9.174437488E0,-1.556396484E-3,1.693725586E-3,4.516601562E-3
9.179472888E0,-7.324218750E-4,8.850097656E-4,3.692626953E-3
9.184508289E0,-7.324218750E-4,5.950927734E-4,3.417968750E-3
9.189543689E0,-7.324218750E-4,9.155273438E-5,2.914428711E-3
9.194579089E0,-4.425048828E-4,8.850097656E-4,3.692626953E-3
9.199614490E0,1.525878906E-5,2.441406250E-4,4.013061523E-3
9.204649890E0,-4.119873047E-4,-9.307861328E-4,5.096435547E-3
9.209685290E0,-3.509521484E-4,1.525878906E-4,5.493164062E-3
9.214720691E0,-1.800537109E-3,8.850097656E-4,4.760742188E-3
9.219756091E0,-1.800537109E-3,8.850097656E-4,4.760742188E-3
9.224791492E0,-1.800537109E-3,8.850097656E-4,4.394531250E-3
9.229826892E0,-1.419067383E-3,8.850097656E-4,3.692626953E-3
9.234862292E0,-1.144409180E-3,8.850097656E-4,3.295898438E-3
9.239897693E0,-9.765625000E-4,4.577636719E-5,3.051757812E-3
9.244933093E0,-1.068115234E-4,-8.239746094E-4,3.265380859E-3
9.249968494E0,-1.190185547E-3,-1.831054688E-4,3.524780273E-3
9.255003894E0,-1.800537109E-3,-6.561279297E-4,4.302978516E-3
9.260039294E0,-1.327514648E-3,-7.781982422E-4,3.219604492E-3
9.265074695E0,-7.324218750E-4,-1.831054688E-4,2.624511719E-3
9.270110095E0,-7.324218750E-4,-1.831054688E-4,3.128051758E-3
9.275145496E0,-7.324218750E-4,-1.831054688E-4,3.189086914E-3
9.280180896E0,-1.800537109E-3,-7.171630859E-4,2.105712891E-3
9.285216296E0,-2.334594727E-3,-1.251220703E-3,1.556396484E-3
9.290251697E0,-1.800537109E-3,-1.251220703E-3,1.556396484E-3
9.295287097E0,-1.800537109E-3,-6.866455078E-4,1.556396484E-3
9.300322497E0,-1.220703125E-3,-1.831054688E-4,2.151489258E-3
9.305357898E0,-1.342773438E-3,-1.388549805E-3,2.029418945E-3
9.310393298E0,-1.800537109E-3,-1.724243164E-3,2.166748047E-3
9.315428699E0,-1.800537109E-3,-1.251220703E-3,3.250122070E-3
9.320464099E0,-1.174926758E-3,-1.251220703E-3,3.067016602E-3
9.325499499E0,-1.388549805E-3,-6.103515625E-4,3.936767578E-3
9.330534900E0,-1.800537109E-3,4.730224609E-4,3.448486328E-3
9.335570300E0,-1.800537109E-3,-4.730224609E-4,2.624511719E-3
9.340605701E0,-1.800537109E-3,-2.639770508E-3,2.624511719E-3
9.345641101E0,-1.113891602E-3,-1.998901367E-3,3.326416016E-3
9.350676501E0,-7.324218750E-4,-1.251220703E-3,2.990722656E-3
9.355711902E0,-1.525878906E-5,-5.340576172E-4,1.907348633E-3
9.360747302E0,-4.119873047E-4,-1.831054688E-4,1.556396484E-3
9.365782703E0,-7.324218750E-4,-1.693725586E-3,1.556396484E-3
9.370818103E0,-1.510620117E-3,-2.319335938E-3,7.934570312E-4
9.375853503E0,-1.022338867E-3,-1.541137695E-3,1.281738281E-3
9.380888904E0,-7.324218750E-4,-1.251220703E-3,1.556396484E-3
9.385924304E0,-3.158569336E-3,-4.577636719E-4,1.556396484E-3
9.390959705E0,-2.304077148E-3,6.256103516E-4,7.476806641E-4
9.395995105E0,-2.639770508E-3,4.577636719E-5,2.166748047E-3
9.401030505E0,-3.723144531E-3,-1.831054688E-4,9.460449219E-4
9.406065906E0,-3.082275391E-3,-1.831054688E-4,4.882812500E-4
9.411101306E0,-2.868652344E-3,6.866455078E-4,1.373291016E-3
9.416136706E0,-1.098632812E-3,-1.525878906E-5,1.556396484E-3
9.421172107E0,1.525878906E-4,-1.831054688E-4,1.556396484E-3
9.426207507E0,-5.798339844E-4,-1.831054688E-4,2.471923828E-3
9.431242908E0,-7.324218750E-4,-1.831054688E-4,1.708984375E-3
9.436278308E0,-1.678466797E-3,-1.129150391E-3,1.556396484E-3
9.441313708E0,-1.800537109E-3,-3.204345703E-4,1.556396484E-3
9.446349109E0,-1.800537109E-3,-1.831054688E-4,5.950927734E-4
9.451384509E0,-8.239746094E-4,-1.174926758E-3,1.480102539E-3
9.456419910E0,-3.723144531E-3,-1.251220703E-3,1.556396484E-3
9.461455310E0,-1.922607422E-3,-2.441406250E-4,2.578735352E-3
9.466490710E0,-7.934570312E-4,-1.831054688E-4,1.617431641E-3
9.471526111E0,-7.324218750E-4,-1.831054688E-4,1.556396484E-3
9.476561511E0,-7.324218750E-4,-1.831054688E-4,1.556396484E-3
9.481596912E0,3.204345703E-4,-1.831054688E-4,1.556396484E-3
9.486632312E0,3.356933594E-4,-1.983642578E-4,-5.645751953E-4
9.491667712E0,1.373291016E-3,-1.251220703E-3,4.882812500E-4
9.496703113E0,2.899169922E-4,-1.220703125E-3,4.882812500E-4
9.501738513E0,-7.324218750E-4,-2.441406250E-4,4.425048828E-4
9.506773914E0,-6.866455078E-4,-1.205444336E-3,-4.577636719E-4
9.511809314E0,2.593994141E-4,-1.831054688E-4,1.495361328E-3
9.516844714E0,-7.324218750E-4,-1.831054688E-4,4.882812500E-4
9.521880115E0,-8.392333984E-4,-2.899169922E-4,3.967285156E-4
9.526915515E0,-1.693725586E-3,-1.251220703E-3,-3.509521484E-4
9.531950915E0,-7.324218750E-4,-1.388549805E-3,1.312255859E-3
9.536986316E0,-8.850097656E-4,-2.319335938E-3,-8.544921875E-4
9.542021716E0,-1.800537109E-3,-2.182006836E-3,-2.716064453E-3
9.547057117E0,-1.800537109E-3,-1.098632812E-3,-2.716064453E-3
9.552092517E0,-1.632690430E-3,1.678466797E-4,-2.532958984E-3
9.557127917E0,-7.324218750E-4,1.358032227E-3,-1.251220703E-3
9.562163318E0,-5.340576172E-4,-1.052856445E-3,7.629394531E-5
9.567198718E0,1.068115234E-4,-1.831054688E-4,-1.647949219E-3
9.572234119E0,-9.765625000E-4,-1.831054688E-4,-1.647949219E-3
9.577269519E0,-1.571655273E-3,-4.272460938E-4,-1.403808594E-3
9.582304919E0,-4.882812500E-4,-1.251220703E-3,-3.204345703E-4
9.587340320E0,3.356933594E-4,-9.765625000E-4,4.882812500E-4
9.592375720E0,3.356933594E-4,-1.831054688E-4,2.136230469E-4
9.597411121E0,3.356933594E-4,-1.831054688E-4,-5.798339844E-4
9.602446521E0,1.525878906E-5,-5.035400391E-4,-5.798339844E-4
9.607481921E0,-7.324218750E-4,-9.307861328E-4,-2.441406250E-4
9.612517322E0,-3.967285156E-4,1.525878906E-4,-1.831054688E-4
9.617552722E0,6.866455078E-4,5.187988281E-4,-1.281738281E-3
9.622588122E0,1.403808594E-3,-1.831054688E-4,-5.798339844E-4
9.627623523E0,1.022338867E-3,-1.831054688E-4,-5.798339844E-4
9.632658923E0,-4.577636719E-4,-5.798339844E-4,-5.798339844E-4
9.637694324E0,-9.918212891E-4,-8.544921875E-4,-5.798339844E-4
9.642729724E0,-9.155273438E-5,-6.103515625E-4,-9.918212891E-4
9.647765124E0,-7.324218750E-4,-8.239746094E-4,-1.647949219E-3
9.652800525E0,-7.324218750E-4,-6.408691406E-4,-1.190185547E-3
9.657835925E0,-7.324218750E-4,-7.934570312E-4,-5.798339844E-4
9.662871326E0,-7.324218750E-4,-6.561279297E-4,-5.798339844E-4
9.667906726E0,2.288818359E-4,-1.739501953E-3,-5.798339844E-4
9.672942126E0,1.403808594E-3,-2.319335938E-3,-5.798339844E-4
9.677977527E0,1.403808594E-3,-2.838134766E-3,-5.798339844E-4
9.683012927E0,1.403808594E-3,-2.349853516E-3,-5.798339844E-4
9.688048328E0,8.544921875E-4,-1.831054688E-4,-1.113891602E-3
9.693083728E0,-2.288818359E-4,3.204345703E-4,-1.647949219E-3
9.698119128E0,-7.324218750E-4,-7.476806641E-4,-1.647949219E-3
9.703154529E0,-7.324218750E-4,-1.251220703E-3,-1.647949219E-3
9.708189929E0,4.425048828E-4,-1.251220703E-3,-1.052856445E-3
9.713225330E0,1.831054688E-4,-1.251220703E-3,-5.798339844E-4
9.718260730E0,-1.358032227E-3,-6.408691406E-4,-1.190185547E-3
9.723296130E0,-1.800537109E-3,-1.831054688E-4,-1.647949219E-3
9.728331531E0,-2.456665039E-3,-1.831054688E-4,-9.918212891E-4
9.733366931E0,-1.571655273E-3,-1.831054688E-4,7.629394531E-5
9.738402331E0,-7.629394531E-5,-8.544921875E-4,-1.678466797E-4
9.743437732E0,3.356933594E-4,-5.798339844E-4,-1.251220703E-3
9.748473132E0,-3.662109375E-4,-1.831054688E-4,-1.647949219E-3
9.753508533E0,-1.449584961E-3,-1.831054688E-4,-9.307861328E-4
9.758543933E0,-1.083374023E-3,5.340576172E-4,-1.296997070E-3
9.763579333E0,0.000000000E0,8.850097656E-4,-1.678466797E-4
9.768614734E0,1.083374023E-3,1.220703125E-4,4.882812500E-4
9.773650134E0,-1.220703125E-4,5.645751953E-4,4.882812500E-4
9.778685535E0,3.051757812E-5,1.068115234E-4,4.882812500E-4
9.783720935E0,1.113891602E-3,-1.831054688E-4,-1.876831055E-3
9.788756335E0,1.403808594E-3,6.103515625E-4,-1.098632812E-3
9.793791736E0,5.798339844E-4,8.850097656E-4,2.441406250E-4
9.798827136E0,1.998901367E-3,8.850097656E-4,4.882812500E-4
9.803862537E0,1.617431641E-3,8.850097656E-4,-3.509521484E-4
9.808897937E0,1.403808594E-3,1.525878906E-5,-5.798339844E-4
9.813933337E0,1.403808594E-3,-1.831054688E-4,-1.449584961E-3
9.818968738E0,5.187988281E-4,6.866455078E-4,-1.647949219E-3
9.824004138E0,1.220703125E-3,-1.525878906E-5,-7.476806641E-4
9.829039539E0,4.882812500E-4,7.171630859E-4,-2.395629883E-3
9.834074939E0,1.251220703E-3,1.800537109E-3,-8.544921875E-4
9.839110339E0,4.577636719E-4,1.953125000E-3,-5.798339844E-4
9.844145740E0,-6.256103516E-4,9.918212891E-4,-1.525878906E-3
9.849181140E0,1.190185547E-3,8.850097656E-4,2.899169922E-4
9.854216540E0,-5.493164062E-4,1.846313477E-3,-4.730224609E-4
9.859251941E0,2.441406250E-4,1.953125000E-3,-5.798339844E-4
9.864287341E0,3.356933594E-4,9.460449219E-4,-5.798339844E-4
9.869322742E0,3.356933594E-4,8.850097656E-4,4.425048828E-4
9.874358142E0,-7.019042969E-4,8.850097656E-4,1.525878906E-3
9.879393542E0,-7.324218750E-4,-1.678466797E-4,5.187988281E-4
9.884428943E0,3.204345703E-4,8.697509766E-4,1.556396484E-3
9.889464343E0,3.356933594E-4,1.937866211E-3,-5.645751953E-4
9.894499744E0,3.356933594E-4,8.850097656E-4,4.882812500E-4
9.899535144E0,3.356933594E-4,9.155273438E-4,4.882812500E-4
9.904570544E0,3.356933594E-4,1.892089844E-3,5.493164062E-4
9.909605945E0,3.356933594E-4,8.850097656E-4,1.510620117E-3
9.914641345E0,3.356933594E-4,8.850097656E-4,4.882812500E-4
9.919676746E0,4.119873047E-4,9.613037109E-4,4.882812500E-4
9.924712146E0,1.296997070E-3,1.953125000E-3,5.950927734E-4
9.929747546E0,3.356933594E-4,1.953125000E-3,1.556396484E-3
9.934782947E0,3.356933594E-4,1.815795898E-3,1.693725586E-3
9.939818347E0,4.730224609E-4,8.850097656E-4,2.624511719E-3
9.944853747E0,1.251220703E-3,7.324218750E-4,2.334594727E-3
9.949889148E0,6.561279297E-4,-3.051757812E-5,3.356933594E-4
9.954924548E0,2.471923828E-3,1.235961914E-3,-3.967285156E-4
9.959959949E0,2.090454102E-3,2.822875977E-3,6.866455078E-4
9.964995349E0,5.340576172E-4,1.739501953E-3,1.770019531E-3
9.970030749E0,1.174926758E-3,8.850097656E-4,2.853393555E-3
9.975066150E0,5.645751953E-4,6.408691406E-4,3.463745117E-3
9.980101550E0,1.632690430E-3,5.340576172E-4,2.151489258E-3
9.985136951E0,2.471923828E-3,2.761840820E-3,1.007080078E-3
9.990172351E0,2.471923828E-3,1.953125000E-3,2.365112305E-3
9.995207751E0,2.182006836E-3,1.953125000E-3,1.556396484E-3
1.000024315E1,1.403808594E-3,1.953125000E-3,1.861572266E-3
1.000527855E1,1.083374023E-3,1.327514648E-3,3.250122070E-3
1.001031395E1,-3.204345703E-4,-1.831054688E-4,4.440307617E-3
1.001534935E1,-1.800537109E-3,1.373291016E-4,3.372192383E-3
1.002038475E1,-1.113891602E-3,1.220703125E-3,2.975463867E-3
1.002542015E1,7.019042969E-4,1.953125000E-3,4.074096680E-3
1.003045555E1,1.403808594E-3,1.953125000E-3,4.394531250E-3
1.003549096E1,1.403808594E-3,1.159667969E-3,3.692626953E-3
1.004052636E1,9.918212891E-4,2.136230469E-4,3.692626953E-3
1.004556176E1,-5.035400391E-4,8.850097656E-4,3.692626953E-3
1.005059716E1,-2.227783203E-3,1.296997070E-3,3.280639648E-3
1.005563256E1,-2.868652344E-3,1.495361328E-3,3.082275391E-3
1.006066796E1,-2.410888672E-3,4.119873047E-4,3.692626953E-3
1.006570336E1,-1.800537109E-3,2.746582031E-4,3.692626953E-3
1.007073876E1,-1.327514648E-3,3.967285156E-4,3.692626953E-3
1.007577416E1,2.593994141E-4,3.051757812E-4,3.204345703E-3
1.008080956E1,3.814697266E-4,8.850097656E-4,3.143310547E-3
1.008584496E1,-2.136230469E-4,1.403808594E-3,2.655029297E-3
1.009088036E1,8.697509766E-4,1.953125000E-3,2.105712891E-3
1.009591576E1,1.403808594E-3,1.388549805E-3,3.189086914E-3
1.010095116E1,8.392333984E-4,8.850097656E-4,3.692626953E-3
1.010598656E1,3.356933594E-4,1.449584961E-3,4.272460938E-3
1.011102196E1,-8.544921875E-4,1.953125000E-3,4.760742188E-3
1.011605736E1,-5.950927734E-4,1.342773438E-3,4.165649414E-3
1.012109276E1,3.356933594E-4,8.850097656E-4,3.692626953E-3
1.012612816E1,3.356933594E-4,1.510620117E-3,3.692626953E-3
1.013116356E1,3.356933594E-4,1.953125000E-3,3.692626953E-3
1.013619896E1,3.356933594E-4,2.609252930E-3,3.692626953E-3
1.014123436E1,3.356933594E-4,2.334594727E-3,3.021240234E-3
1.014626976E1,-3.662109375E-4,1.953125000E-3,3.326416016E-3
1.015130516E1,-7.324218750E-4,5.493164062E-4,3.005981445E-3
1.015634056E1,-7.324218750E-4,-1.831054688E-4,2.624511719E-3
1.016137596E1,-1.525878906E-5,-1.831054688E-4,2.624511719E-3
1.016641136E1,-4.119873047E-4,5.493164062E-4,2.624511719E-3
1.017144676E1,-7.324218750E-4,8.850097656E-4,3.387451172E-3
1.017648217E1,3.051757812E-5,8.850097656E-4,3.692626953E-3
1.018151757E1,3.356933594E-4,8.850097656E-4,3.692626953E-3
1.018655297E1,-4.577636719E-4,8.850097656E-4,2.914428711E-3
1.019158837E1,6.103515625E-5,1.678466797E-3,1.831054688E-3
1.019662377E1,3.356933594E-4,1.953125000E-3,3.204345703E-3
1.020165917E1,3.356933594E-4,1.953125000E-3,3.692626953E-3
1.020669457E1,1.174926758E-3,1.098632812E-3,3.692626953E-3
1.021172997E1,5.340576172E-4,8.850097656E-4,3.692626953E-3
1.021676537E1,-1.419067383E-3,8.850097656E-4,2.822875977E-3
1.022180077E1,-2.685546875E-3,8.850097656E-4,3.509521484E-3
1.022683617E1,-1.983642578E-3,-1.525878906E-5,2.807617188E-3
1.023187157E1,-1.800537109E-3,7.171630859E-4,8.087158203E-4
1.023690697E1,-1.800537109E-3,-4.577636719E-5,2.349853516E-3
1.024194237E1,6.103515625E-5,7.476806641E-4,2.624511719E-3
1.024697777E1,-1.571655273E-3,-7.629394531E-5,3.585815430E-3
1.025201317E1,-3.738403320E-3,-1.831054688E-4,2.731323242E-3
1.025704857E1,-1.998901367E-3,-1.831054688E-4,4.577636719E-3
1.026208397E1,-1.800537109E-3,-1.831054688E-4,3.784179688E-3
1.026711937E1,-8.087158203E-4,8.087158203E-4,3.692626953E-3
1.027215477E1,-7.324218750E-4,8.850097656E-4,2.685546875E-3
1.027719017E1,-1.770019531E-3,8.850097656E-4,2.624511719E-3
1.028222557E1,-1.800537109E-3,1.922607422E-3,3.677368164E-3
1.028726097E1,-2.868652344E-3,1.953125000E-3,3.692626953E-3
1.029229637E1,-1.800537109E-3,-1.831054688E-4,4.760742188E-3
1.029733178E1,-7.324218750E-4,-1.251220703E-3,3.707885742E-3
1.030236718E1,-7.324218750E-4,-1.235961914E-3,4.745483398E-3
1.030740258E1,-7.324218750E-4,-1.831054688E-4,3.662109375E-3
1.031243798E1,-6.408691406E-4,-1.373291016E-4,2.685546875E-3
1.031747338E1,1.129150391E-3,8.850097656E-4,3.631591797E-3
1.032250878E1,-2.792358398E-3,7.934570312E-4,2.624511719E-3
1.032754418E1,-1.800537109E-3,-1.831054688E-4,2.532958984E-3
1.033257958E1,-1.800537109E-3,-1.831054688E-4,1.678466797E-3
1.033761498E1,-1.800537109E-3,-3.204345703E-4,2.502441406E-3
1.034265038E1,-2.075195312E-3,-1.251220703E-3,1.556396484E-3
1.034768578E1,-3.662109375E-3,-1.113891602E-3,1.419067383E-3
1.035272118E1,-1.800537109E-3,-1.831054688E-4,3.509521484E-4
