"Time (s)","Acceleration x (m/s^2)","Acceleration y (m/s^2)","Acceleration z (m/s^2)"
4.430226400E-2,-2.389526367E-2,9.623336792E0,-8.712402344E0
4.933766500E-2,-1.243591309E-2,9.561676025E0,-8.681655884E0
5.437306500E-2,-2.566528320E-2,9.611740112E0,-8.702468872E0
5.940846500E-2,2.391052246E-2,9.632995605E0,-8.677352905E0
6.444386600E-2,-3.234863281E-2,9.640533447E0,-8.695602417E0
6.947926600E-2,-7.171630859E-4,9.652496338E0,-8.689208984E0
7.451466700E-2,-6.332397461E-3,9.624053955E0,-8.654342651E0
7.955006700E-2,-2.357482910E-2,9.634963989E0,-8.610015869E0
8.458546700E-2,-4.307556152E-2,9.631240845E0,-8.640243530E0
8.962086800E-2,-3.967285156E-2,9.620330811E0,-8.676162720E0
9.465626800E-2,-2.873229980E-2,9.652420044E0,-8.646423340E0
9.969166900E-2,-3.001403809E-2,9.621490479E0,-8.625305176E0
1.047270690E-1,-4.475402832E-2,9.624954224E0,-8.684722900E0
1.097624690E-1,1.022338867E-3,9.619049072E0,-8.622360229E0
1.147978700E-1,-2.026367188E-2,9.617248535E0,-8.647430420E0
1.198332700E-1,-3.234863281E-2,9.652603149E0,-8.617980957E0
1.248686710E-1,-1.110839844E-2,9.624603271E0,-8.566223145E0
1.299040710E-1,-1.968383789E-3,9.635635376E0,-8.615631104E0
1.349394710E-1,-1.986694336E-2,9.645126343E0,-8.611145020E0
1.399748720E-1,-2.104187012E-2,9.643325806E0,-8.596038818E0
1.450102720E-1,-1.348876953E-2,9.642089844E0,-8.579849243E0
1.500456730E-1,-2.189636230E-2,9.660171509E0,-8.578002930E0
1.550810730E-1,-2.673339844E-2,9.660812378E0,-8.576766968E0
1.601164730E-1,-5.050659180E-3,9.628173828E0,-8.554641724E0
1.651518740E-1,-1.162719727E-2,9.611312866E0,-8.583938599E0
1.701872740E-1,-7.369995117E-3,9.615188599E0,-8.567474365E0
1.752226740E-1,-3.422546387E-2,9.649581909E0,-8.547058105E0
1.802580750E-1,-4.566955566E-2,9.641586304E0,-8.580123901E0
1.852934750E-1,-4.165649414E-2,9.633544922E0,-8.552810669E0
1.903288760E-1,-3.294372559E-2,9.631225586E0,-8.536911011E0
1.953642760E-1,-3.311157227E-2,9.636215210E0,-8.560134888E0
2.003996760E-1,-3.970336914E-2,9.633438110E0,-8.551269531E0
2.054350770E-1,-3.572082520E-2,9.605819702E0,-8.503723145E0
2.104704770E-1,-4.112243652E-2,9.590805054E0,-8.473205566E0
2.155058780E-1,-5.598449707E-2,9.605209351E0,-8.501037598E0
2.205412780E-1,-2.998352051E-2,9.619583130E0,-8.492065430E0
2.255766780E-1,-4.161071777E-2,9.630050659E0,-8.521072388E0
2.306120790E-1,-3.732299805E-2,9.638031006E0,-8.548278809E0
2.356474790E-1,-2.769470215E-2,9.640350342E0,-8.519027710E0
2.406828800E-1,-5.328369141E-2,9.625167847E0,-8.519317627E0
2.457182800E-1,-7.725524902E-2,9.621704102E0,-8.526382446E0
2.507536800E-1,-6.753540039E-2,9.635070801E0,-8.507766724E0
2.557890810E-1,-5.647277832E-2,9.654281616E0,-8.498184204E0
2.608244810E-1,-7.192993164E-2,9.642715454E0,-8.527969360E0
2.658598810E-1,-4.284667969E-2,9.613464355E0,-8.544799805E0
2.708952820E-1,-4.171752930E-2,9.623107910E0,-8.524230957E0
2.759306820E-1,-5.157470703E-2,9.649612427E0,-8.537811279E0
2.809660830E-1,-5.032348633E-2,9.643875122E0,-8.545227051E0
2.860014830E-1,-6.169128418E-2,9.619415283E0,-8.546569824E0
2.910368830E-1,-5.349731445E-2,9.632385254E0,-8.516952515E0
2.960722840E-1,-7.000732422E-2,9.629882812E0,-8.537841797E0
3.011076840E-1,-7.299804688E-2,9.617034912E0,-8.517623901E0
3.061430850E-1,-4.237365723E-2,9.622070312E0,-8.545913696E0
3.111784850E-1,-3.356933594E-2,9.625640869E0,-8.523834229E0
3.162138850E-1,-5.000305176E-2,9.636398315E0,-8.497253418E0
3.212492860E-1,-4.664611816E-2,9.625106812E0,-8.517807007E0
3.262846860E-1,-4.891967773E-2,9.633728027E0,-8.539611816E0
3.313200870E-1,-4.627990723E-2,9.635757446E0,-8.511505127E0
3.363554870E-1,-3.337097168E-2,9.611267090E0,-8.537216187E0
3.413908870E-1,-3.237915039E-2,9.610229492E0,-8.538574219E0
3.464262880E-1,-4.231262207E-2,9.632522583E0,-8.529861450E0
3.514616880E-1,-4.740905762E-2,9.613845825E0,-8.537872314E0
3.564970890E-1,-4.804992676E-2,9.611282349E0,-8.544616699E0
3.615324890E-1,-4.624938965E-2,9.635421753E0,-8.565719604E0
3.665678890E-1,-3.836059570E-2,9.642303467E0,-8.515335083E0
3.716032900E-1,-5.470275879E-2,9.607055664E0,-8.540893555E0
3.766386900E-1,-5.807495117E-2,9.629089355E0,-8.530380249E0
3.816740900E-1,-5.375671387E-2,9.656661987E0,-8.577987671E0
3.867094910E-1,-7.029724121E-2,9.643859863E0,-8.540573120E0
3.917448910E-1,-4.466247559E-2,9.649780273E0,-8.544952393E0
3.967802920E-1,-7.254028320E-2,9.645812988E0,-8.582229614E0
4.018156920E-1,-6.478881836E-2,9.628433228E0,-8.596817017E0
4.068510920E-1,-7.469177246E-2,9.617401123E0,-8.571441650E0
4.118864930E-1,-4.321289062E-2,9.605667114E0,-8.588150024E0
4.169218930E-1,-8.723449707E-2,9.674087524E0,-8.593185425E0
4.219572940E-1,-8.039855957E-2,9.616210938E0,-8.580566406E0
4.269926940E-1,-9.423828125E-2,9.641616821E0,-8.576995850E0
4.320280940E-1,-5.377197266E-2,9.635848999E0,-8.585617065E0
4.370634950E-1,-5.937194824E-2,9.639617920E0,-8.606414795E0
4.420988950E-1,-6.222534180E-2,9.628601074E0,-8.576049805E0
4.471342960E-1,-6.692504883E-2,9.621139526E0,-8.629440308E0
4.521696960E-1,-9.263610840E-2,9.599975586E0,-8.610641479E0
4.572050960E-1,-7.212829590E-2,9.634719849E0,-8.584259033E0
4.622404970E-1,-7.661437988E-2,9.647064209E0,-8.600601196E0
4.672758970E-1,-5.046081543E-2,9.611450195E0,-8.602981567E0
4.723112980E-1,-5.601501465E-2,9.628067017E0,-8.604370117E0
4.773466980E-1,-8.851623535E-2,9.629211426E0,-8.660034180E0
4.823820980E-1,-8.863830566E-2,9.593933105E0,-8.655746460E0
4.874174990E-1,-9.011840820E-2,9.625900269E0,-8.618576050E0
4.924528990E-1,-7.501220703E-2,9.632003784E0,-8.640731812E0
4.974882990E-1,-5.319213867E-2,9.652297974E0,-8.638961792E0
5.025237000E-1,-5.735778809E-2,9.629516602E0,-8.663269043E0
5.075591000E-1,-5.918884277E-2,9.620117188E0,-8.601593018E0
5.125945010E-1,-8.921813965E-2,9.618667603E0,-8.622894287E0
5.176299010E-1,-6.207275391E-2,9.654495239E0,-8.707885742E0
5.226653010E-1,-7.507324219E-2,9.651306152E0,-8.660720825E0
5.277007020E-1,-7.202148438E-2,9.612457275E0,-8.665222168E0
5.327361020E-1,-1.064147949E-1,9.599411011E0,-8.663299561E0
5.377715030E-1,-7.577514648E-2,9.631759644E0,-8.650634766E0
5.428069030E-1,-6.823730469E-2,9.615661621E0,-8.687530518E0
5.478423030E-1,-5.041503906E-2,9.613250732E0,-8.695724487E0
5.528777040E-1,-4.499816895E-2,9.613906860E0,-8.669281006E0
5.579131040E-1,-6.913757324E-2,9.625411987E0,-8.683242798E0
5.629485050E-1,-9.130859375E-2,9.639602661E0,-8.696792603E0
5.679839050E-1,-5.516052246E-2,9.643371582E0,-8.670822144E0
5.730193050E-1,-4.067993164E-2,9.593063354E0,-8.684432983E0
5.780547060E-1,-5.667114258E-2,9.605773926E0,-8.717071533E0
5.830901060E-1,-5.216979980E-2,9.620223999E0,-8.724334717E0
5.881255060E-1,-5.661010742E-2,9.616088867E0,-8.705322266E0
5.931609070E-1,-5.148315430E-2,9.595443726E0,-8.680480957E0
5.981963070E-1,-7.798767090E-2,9.617828369E0,-8.693435669E0
6.032317080E-1,-9.806823730E-2,9.614624023E0,-8.733596802E0
6.082671080E-1,-9.364318848E-2,9.617904663E0,-8.693771362E0
6.133025080E-1,-5.949401855E-2,9.597259521E0,-8.696578979E0
6.183379090E-1,-4.391479492E-2,9.599197388E0,-8.703933716E0
6.233733090E-1,-6.495666504E-2,9.620941162E0,-8.743316650E0
6.284087100E-1,-7.356262207E-2,9.652435303E0,-8.724929810E0
6.334441100E-1,-8.435058594E-2,9.624389648E0,-8.709960938E0
6.384795100E-1,-6.573486328E-2,9.619049072E0,-8.727127075E0
6.435149110E-1,-7.225036621E-2,9.632781982E0,-8.752868652E0
6.485503110E-1,-6.419372559E-2,9.631713867E0,-8.711685181E0
6.535857120E-1,-5.874633789E-2,9.627120972E0,-8.688339233E0
6.586211120E-1,-4.966735840E-2,9.613204956E0,-8.704360962E0
6.636565120E-1,-4.824829102E-2,9.606414795E0,-8.718917847E0
6.686919130E-1,-7.194519043E-2,9.597335815E0,-8.711791992E0
6.737273130E-1,-5.513000488E-2,9.595962524E0,-8.723419189E0
6.787627140E-1,-4.942321777E-2,9.632278442E0,-8.728118896E0
6.837981140E-1,-7.403564453E-2,9.668014526E0,-8.670684814E0
6.888335140E-1,-8.961486816E-2,9.644180298E0,-8.655960083E0
6.938689150E-1,-6.607055664E-2,9.628265381E0,-8.677017212E0
6.989043150E-1,-6.552124023E-2,9.627822876E0,-8.699417114E0
7.039397150E-1,-3.919982910E-2,9.634963989E0,-8.713195801E0
7.089751160E-1,-4.081726074E-2,9.642852783E0,-8.721435547E0
7.140105160E-1,-4.803466797E-2,9.624176025E0,-8.735824585E0
7.190459170E-1,-4.293823242E-2,9.612258911E0,-8.714035034E0
7.240813170E-1,-5.613708496E-2,9.584442139E0,-8.665908813E0
7.291167170E-1,-3.804016113E-2,9.624694824E0,-8.675537109E0
7.341521180E-1,-5.520629883E-2,9.645736694E0,-8.674026489E0
7.391875180E-1,-5.924987793E-2,9.625717163E0,-8.633316040E0
7.442229190E-1,-6.245422363E-2,9.612060547E0,-8.649383545E0
7.492583190E-1,-6.216430664E-2,9.612258911E0,-8.671447754E0
7.542937190E-1,-1.655578613E-2,9.628753662E0,-8.652679443E0
7.593291200E-1,-2.348327637E-2,9.621597290E0,-8.643447876E0
7.643645200E-1,-1.826477051E-2,9.609222412E0,-8.653778076E0
7.693999210E-1,-2.636718750E-2,9.618850708E0,-8.701538086E0
7.744353210E-1,-5.278015137E-2,9.625030518E0,-8.669128418E0
7.794707210E-1,-5.633544922E-2,9.609329224E0,-8.662017822E0
7.845061220E-1,-2.943420410E-2,9.617095947E0,-8.644622803E0
7.895415220E-1,-4.991149902E-2,9.620880127E0,-8.672332764E0
7.945769230E-1,-2.151489258E-2,9.609481812E0,-8.596099854E0
7.996123230E-1,-1.042175293E-2,9.618148804E0,-8.605255127E0
8.046477230E-1,-2.758789062E-2,9.611083984E0,-8.596847534E0
8.096831240E-1,-3.138732910E-2,9.612945557E0,-8.625228882E0
8.147185240E-1,-5.355834961E-2,9.621795654E0,-8.631546021E0
8.197539240E-1,-3.918457031E-2,9.639602661E0,-8.625411987E0
8.247893250E-1,-1.541137695E-3,9.642303467E0,-8.561279297E0
8.298247250E-1,4.318237305E-3,9.650634766E0,-8.571456909E0
8.348601260E-1,-1.686096191E-2,9.656051636E0,-8.627349854E0
8.398955260E-1,-4.541015625E-2,9.654418945E0,-8.592880249E0
8.449309260E-1,-8.865356445E-3,9.643310547E0,-8.593048096E0
8.499663270E-1,-3.608703613E-2,9.635681152E0,-8.564788818E0
8.550017270E-1,-3.407287598E-2,9.628448486E0,-8.607192993E0
8.600371280E-1,-4.508972168E-2,9.630279541E0,-8.555786133E0
8.650725280E-1,-4.797363281E-2,9.623519897E0,-8.569030762E0
8.701079280E-1,-1.091003418E-2,9.613967896E0,-8.585906982E0
8.751433290E-1,-2.642822266E-2,9.641952515E0,-8.581604004E0
8.801787290E-1,-7.583618164E-3,9.637542725E0,-8.543472290E0
8.852141300E-1,-2.685546875E-3,9.632476807E0,-8.572616577E0
8.902495300E-1,8.728027344E-3,9.609268188E0,-8.617599487E0
8.952849300E-1,-6.790161133E-3,9.621749878E0,-8.536331177E0
9.003203310E-1,-4.666137695E-2,9.645965576E0,-8.537841797E0
9.053557310E-1,-1.934814453E-2,9.667068481E0,-8.566970825E0
9.103911310E-1,-1.919555664E-2,9.607757568E0,-8.560760498E0
9.154265320E-1,-4.093933105E-2,9.598388672E0,-8.539840698E0
9.204619320E-1,1.033020020E-2,9.662780762E0,-8.550354004E0
9.254973330E-1,-2.375793457E-2,9.606338501E0,-8.527923584E0
9.305327330E-1,-1.716613770E-2,9.608566284E0,-8.561233521E0
9.355681330E-1,-4.425048828E-4,9.637161255E0,-8.583251953E0
9.406035340E-1,1.571655273E-3,9.618148804E0,-8.551086426E0
9.456389340E-1,6.164550781E-3,9.622314453E0,-8.493621826E0
9.506743350E-1,-3.260803223E-2,9.658950806E0,-8.554214478E0
9.557097350E-1,-1.812744141E-2,9.660690308E0,-8.516372681E0
9.607451350E-1,-3.694152832E-2,9.620513916E0,-8.504989624E0
9.657805360E-1,-5.284118652E-2,9.645095825E0,-8.591751099E0
9.708159360E-1,-5.212402344E-2,9.626998901E0,-8.517990112E0
9.758513370E-1,-1.257324219E-2,9.622711182E0,-8.568038940E0
9.808867370E-1,-4.074096680E-3,9.615173340E0,-8.523742676E0
9.859221370E-1,6.134033203E-3,9.606048584E0,-8.525588989E0
9.909575380E-1,9.414672852E-3,9.632141113E0,-8.516159058E0
9.959929380E-1,-2.696228027E-2,9.629074097E0,-8.526229858E0
1.001028339E0,-7.629394531E-3,9.618087769E0,-8.539352417E0
1.006063739E0,-1.519775391E-2,9.604461670E0,-8.522735596E0
1.011099139E0,-4.470825195E-3,9.614624023E0,-8.521820068E0
1.016134540E0,-2.059936523E-3,9.608291626E0,-8.554519653E0
1.021169940E0,5.142211914E-3,9.605026245E0,-8.536987305E0
1.026205340E0,1.457214355E-2,9.627700806E0,-8.509765625E0
1.031240741E0,8.911132812E-3,9.644561768E0,-8.542251587E0
1.036276141E0,-5.325317383E-3,9.621124268E0,-8.524948120E0
1.041311542E0,-2.459716797E-2,9.638305664E0,-8.510314941E0
1.046346942E0,1.373291016E-4,9.658020020E0,-8.558303833E0
1.051382342E0,2.726745605E-2,9.647827148E0,-8.549194336E0
1.056417743E0,1.881408691E-2,9.621246338E0,-8.510879517E0
1.061453143E0,2.604675293E-2,9.610000610E0,-8.490142822E0
1.066488544E0,-1.461791992E-2,9.624023438E0,-8.564712524E0
1.071523944E0,-1.475524902E-2,9.623687744E0,-8.563858032E0
1.076559344E0,6.057739258E-3,9.629592896E0,-8.536315918E0
1.081594745E0,5.798339844E-4,9.604705811E0,-8.549667358E0
1.086630145E0,5.477905273E-3,9.583602905E0,-8.553985596E0
1.091665546E0,2.226257324E-2,9.613784790E0,-8.562500000E0
1.096700946E0,3.764343262E-2,9.636749268E0,-8.576080322E0
1.101736346E0,3.010559082E-2,9.641906738E0,-8.586044312E0
1.106771747E0,4.074096680E-3,9.650573730E0,-8.576416016E0
1.111807147E0,2.105712891E-3,9.650573730E0,-8.564147949E0
1.116842548E0,3.967285156E-4,9.642608643E0,-8.555053711E0
1.121877948E0,-1.269531250E-2,9.628311157E0,-8.551620483E0
1.126913348E0,-3.768920898E-3,9.588699341E0,-8.587615967E0
1.131948749E0,1.976013184E-2,9.593780518E0,-8.593811035E0
1.136984149E0,2.177429199E-2,9.615707397E0,-8.596618652E0
1.142019549E0,3.694152832E-2,9.612564087E0,-8.604766846E0
1.147054950E0,4.954528809E-2,9.643569946E0,-8.640579224E0
1.152090350E0,-1.026916504E-2,9.622314453E0,-8.628753662E0
1.157125751E0,9.826660156E-3,9.596328735E0,-8.599182129E0
1.162161151E0,2.809143066E-2,9.610610962E0,-8.622100830E0
1.167196551E0,1.356506348E-2,9.618499756E0,-8.602050781E0
1.172231952E0,2.456665039E-3,9.610214233E0,-8.616088867E0
1.177267352E0,1.634216309E-2,9.625061035E0,-8.627471924E0
1.182302753E0,-1.081848145E-2,9.613983154E0,-8.678039551E0
1.187338153E0,-1.730346680E-2,9.611801147E0,-8.672119141E0
1.192373553E0,1.707458496E-2,9.629638672E0,-8.660720825E0
1.197408954E0,1.194763184E-2,9.608215332E0,-8.667282104E0
1.202444354E0,1.582336426E-2,9.623184204E0,-8.678756714E0
1.207479755E0,1.907348633E-3,9.622970581E0,-8.622177124E0
1.212515155E0,6.591796875E-3,9.647247314E0,-8.675048828E0
1.217550555E0,1.098632812E-2,9.625503540E0,-8.731689453E0
1.222585956E0,3.723144531E-3,9.659027100E0,-8.671539307E0
1.227621356E0,2.162170410E-2,9.629104614E0,-8.637619019E0
1.232656756E0,1.181030273E-2,9.624847412E0,-8.614028931E0
1.237692157E0,-2.116394043E-2,9.631683350E0,-8.676620483E0
1.242727557E0,-6.195068359E-3,9.581665039E0,-8.672317505E0
1.247762958E0,-4.898071289E-3,9.598144531E0,-8.692428589E0
1.252798358E0,1.161193848E-2,9.635482788E0,-8.733657837E0
1.257833758E0,1.383972168E-2,9.618469238E0,-8.730072021E0
1.262869159E0,-5.630493164E-3,9.613952637E0,-8.761566162E0
1.267904559E0,-1.635742188E-2,9.604965210E0,-8.718841553E0
1.272939960E0,2.949523926E-2,9.610870361E0,-8.719284058E0
1.277975360E0,3.736877441E-2,9.606857300E0,-8.679138184E0
1.283010760E0,-5.645751953E-3,9.624816895E0,-8.733718872E0
1.288046161E0,1.779174805E-2,9.641784668E0,-8.653213501E0
1.293081561E0,1.391601562E-2,9.637619019E0,-8.725357056E0
1.298116962E0,-3.584289551E-2,9.611511230E0,-8.712554932E0
1.303152362E0,3.018188477E-2,9.625488281E0,-8.703018188E0
1.308187762E0,-1.892089844E-2,9.602310181E0,-8.714324951E0
1.313223163E0,1.063537598E-2,9.627609253E0,-8.686233521E0
1.318258563E0,-2.308654785E-2,9.612258911E0,-8.684417725E0
1.323293964E0,-4.833984375E-2,9.631134033E0,-8.697204590E0
1.328329364E0,-7.583618164E-3,9.602218628E0,-8.722915649E0
1.333364764E0,-6.896972656E-3,9.642745972E0,-8.698120117E0
1.338400165E0,2.899169922E-4,9.613998413E0,-8.675216675E0
1.343435565E0,-1.664733887E-2,9.577331543E0,-8.751907349E0
1.348470965E0,-1.208496094E-2,9.675918579E0,-8.682281494E0
1.353506366E0,-1.200866699E-2,9.636703491E0,-8.724121094E0
1.358541766E0,-2.438354492E-2,9.610839844E0,-8.705978394E0
1.363577167E0,-1.206970215E-2,9.600723267E0,-8.711837769E0
1.368612567E0,-2.804565430E-2,9.649810791E0,-8.706802368E0
1.373647967E0,-4.602050781E-2,9.646087646E0,-8.642318726E0
1.378683368E0,-3.221130371E-2,9.618499756E0,-8.715484619E0
1.383718768E0,-1.100158691E-2,9.616622925E0,-8.702575684E0
1.388754169E0,3.356933594E-4,9.614929199E0,-8.685989380E0
1.393789569E0,-1.052856445E-2,9.640686035E0,-8.687179565E0
1.398824969E0,-1.754760742E-3,9.649612427E0,-8.650283813E0
1.403860370E0,-2.531433105E-2,9.637710571E0,-8.716476440E0
1.408895770E0,-2.456665039E-2,9.629348755E0,-8.716949463E0
1.413931171E0,5.310058594E-3,9.638900757E0,-8.692825317E0
1.418966571E0,-8.499145508E-3,9.612167358E0,-8.707946777E0
1.424001971E0,-1.437377930E-2,9.612808228E0,-8.681335449E0
1.429037372E0,-1.937866211E-3,9.637084961E0,-8.719879150E0
1.434072772E0,-1.373291016E-4,9.629669189E0,-8.677185059E0
1.439108173E0,-1.115417480E-2,9.627243042E0,-8.609649658E0
1.444143573E0,2.502441406E-3,9.626434326E0,-8.639358521E0
1.449178973E0,-3.294372559E-2,9.634674072E0,-8.643661499E0
1.454214374E0,-2.536010742E-2,9.655670166E0,-8.666671753E0
1.459249774E0,-1.116943359E-2,9.647705078E0,-8.643432617E0
1.464285174E0,3.067016602E-3,9.614486694E0,-8.659942627E0
1.469320575E0,1.243591309E-2,9.627029419E0,-8.669128418E0
1.474355975E0,-1.983642578E-3,9.603866577E0,-8.654663086E0
1.479391376E0,-8.773803711E-3,9.572280884E0,-8.628158569E0
1.484426776E0,-4.531860352E-3,9.594696045E0,-8.619628906E0
1.489462176E0,-7.873535156E-3,9.611572266E0,-8.622726440E0
1.494497577E0,-1.826477051E-2,9.633926392E0,-8.625625610E0
1.499532977E0,-2.931213379E-2,9.637145996E0,-8.627990723E0
1.504568378E0,-1.628112793E-2,9.614135742E0,-8.645919800E0
1.509603778E0,-2.914428711E-3,9.626403809E0,-8.631759644E0
1.514639178E0,-2.082824707E-2,9.637466431E0,-8.604064941E0
1.519674579E0,-3.717041016E-2,9.655075073E0,-8.586242676E0
1.524709979E0,-3.515625000E-2,9.643829346E0,-8.582672119E0
1.529745380E0,-2.825927734E-2,9.603836060E0,-8.607254028E0
1.534780780E0,-3.909301758E-2,9.612518311E0,-8.621322632E0
1.539816180E0,-4.718017578E-2,9.628601074E0,-8.582778931E0
1.544851581E0,-2.993774414E-2,9.630035400E0,-8.576965332E0
1.549886981E0,-4.431152344E-2,9.615402222E0,-8.581253052E0
1.554922381E0,-2.275085449E-2,9.633789062E0,-8.568679810E0
1.559957782E0,-2.275085449E-2,9.628601074E0,-8.604080200E0
1.564993182E0,-5.918884277E-2,9.632904053E0,-8.543609619E0
1.570028583E0,-5.682373047E-2,9.650695801E0,-8.533218384E0
1.575063983E0,-6.031799316E-2,9.648071289E0,-8.565414429E0
1.580099383E0,-6.240844727E-2,9.627487183E0,-8.566528320E0
1.585134784E0,-2.632141113E-2,9.628097534E0,-8.572891235E0
1.590170184E0,-1.322937012E-2,9.626266479E0,-8.558914185E0
1.595205585E0,-1.803588867E-2,9.613357544E0,-8.550613403E0
1.600240985E0,-2.453613281E-2,9.629119873E0,-8.550613403E0
1.605276385E0,-2.322387695E-2,9.647781372E0,-8.538650513E0
1.610311786E0,-4.446411133E-2,9.643127441E0,-8.544372559E0
1.615347186E0,-3.514099121E-2,9.639923096E0,-8.534088135E0
1.620382587E0,-6.134033203E-2,9.618362427E0,-8.480682373E0
1.625417987E0,-7.916259766E-2,9.618652344E0,-8.523330688E0
1.630453387E0,-6.654357910E-2,9.628295898E0,-8.557769775E0
1.635488788E0,-5.668640137E-2,9.651123047E0,-8.524826050E0
1.640524188E0,-3.224182129E-2,9.652755737E0,-8.507247925E0
1.645559589E0,-7.324218750E-2,9.612976074E0,-8.482070923E0
1.650594989E0,-6.221008301E-2,9.619888306E0,-8.517959595E0
1.655630389E0,-5.957031250E-2,9.637237549E0,-8.528793335E0
1.660665790E0,-5.793762207E-2,9.631851196E0,-8.523132324E0
1.665701190E0,-4.327392578E-2,9.640609741E0,-8.522048950E0
1.670736590E0,-4.920959473E-2,9.631927490E0,-8.515823364E0
1.675771991E0,-3.361511230E-2,9.636703491E0,-8.519104004E0
1.680807391E0,-7.403564453E-2,9.646057129E0,-8.519668579E0
1.685842792E0,-7.899475098E-2,9.653533936E0,-8.526138306E0
1.690878192E0,-5.709838867E-2,9.627914429E0,-8.513656616E0
1.695913592E0,-7.295227051E-2,9.598999023E0,-8.512527466E0
1.700948993E0,-5.175781250E-2,9.635299683E0,-8.469787598E0
1.705984393E0,-5.726623535E-2,9.614761353E0,-8.483245850E0
1.711019794E0,-8.296203613E-2,9.622955322E0,-8.490875244E0
1.716055194E0,-8.375549316E-2,9.646621704E0,-8.542495728E0
1.721090594E0,-8.139038086E-2,9.649429321E0,-8.564758301E0
1.726125995E0,-5.061340332E-2,9.618713379E0,-8.550460815E0
1.731161395E0,-7.814025879E-2,9.654159546E0,-8.527404785E0
1.736196796E0,-3.077697754E-2,9.650848389E0,-8.559112549E0
1.741232196E0,-1.342773438E-3,9.600570679E0,-8.508132935E0
1.746267596E0,-7.148742676E-2,9.625900269E0,-8.568862915E0
1.751302997E0,-2.923583984E-2,9.630401611E0,-8.551513672E0
1.756338397E0,-9.616088867E-2,9.630767822E0,-8.502395630E0
1.761373798E0,-7.032775879E-2,9.633712769E0,-8.552246094E0
1.766409198E0,-3.468322754E-2,9.619232178E0,-8.570144653E0
1.771444598E0,-8.534240723E-2,9.622222900E0,-8.573623657E0
1.776479999E0,-1.006774902E-1,9.598480225E0,-8.563476562E0
1.781515399E0,-1.123962402E-1,9.629806519E0,-8.545639038E0
1.786550799E0,-6.954956055E-2,9.649215698E0,-8.605697632E0
1.791586200E0,-8.262634277E-2,9.610382080E0,-8.609634399E0
1.796621600E0,-7.049560547E-2,9.628356934E0,-8.613906860E0
1.801657001E0,-4.223632812E-2,9.624191284E0,-8.588500977E0
1.806692401E0,-5.039978027E-2,9.648498535E0,-8.599151611E0
1.811727801E0,-5.697631836E-2,9.648147583E0,-8.604965210E0
1.816763202E0,-5.303955078E-2,9.655563354E0,-8.606185913E0
1.821798602E0,-7.899475098E-2,9.626831055E0,-8.590042114E0
1.826834003E0,-7.199096680E-2,9.600036621E0,-8.617126465E0
1.831869403E0,-5.473327637E-2,9.612258911E0,-8.621505737E0
1.836904803E0,-5.424499512E-2,9.648071289E0,-8.588088989E0
1.841940204E0,-3.292846680E-2,9.657669067E0,-8.642288208E0
1.846975604E0,-6.222534180E-2,9.637420654E0,-8.637573242E0
1.852011005E0,-4.179382324E-2,9.619873047E0,-8.552932739E0
1.857046405E0,-3.697204590E-2,9.605087280E0,-8.550659180E0
1.862081805E0,-6.097412109E-2,9.618850708E0,-8.600128174E0
1.867117206E0,-4.891967773E-2,9.640548706E0,-8.643493652E0
1.872152606E0,-4.913330078E-2,9.617889404E0,-8.642974854E0
1.877188006E0,-4.969787598E-2,9.620468140E0,-8.627838135E0
1.882223407E0,-7.812500000E-2,9.614028931E0,-8.620559692E0
1.887258807E0,-5.827331543E-2,9.624938965E0,-8.627655029E0
1.892294208E0,-3.761291504E-2,9.638000488E0,-8.655395508E0
1.897329608E0,-3.752136230E-2,9.633483887E0,-8.627761841E0
1.902365008E0,-6.802368164E-2,9.624908447E0,-8.640243530E0
1.907400409E0,-8.106994629E-2,9.629364014E0,-8.663635254E0
1.912435809E0,-7.203674316E-2,9.628021240E0,-8.675445557E0
1.917471210E0,-6.852722168E-2,9.636779785E0,-8.712905884E0
1.922506610E0,-7.014465332E-2,9.626815796E0,-8.703598022E0
1.927542010E0,-6.216430664E-2,9.632873535E0,-8.651550293E0
1.932577411E0,-6.591796875E-2,9.636688232E0,-8.669479370E0
1.937612811E0,-5.026245117E-2,9.605361938E0,-8.668273926E0
1.942648212E0,-6.207275391E-2,9.625274658E0,-8.686203003E0
1.947683612E0,-7.603454590E-2,9.620544434E0,-8.698440552E0
1.952719012E0,-6.709289551E-2,9.602203369E0,-8.677474976E0
1.957754413E0,-7.762145996E-2,9.613159180E0,-8.668060303E0
1.962789813E0,-7.673645020E-2,9.623870850E0,-8.639343262E0
1.967825214E0,-7.359313965E-2,9.619781494E0,-8.706115723E0
1.972860614E0,-7.238769531E-2,9.620788574E0,-8.724456787E0
1.977896014E0,-6.803894043E-2,9.632812500E0,-8.709228516E0
1.982931415E0,-5.979919434E-2,9.637542725E0,-8.748825073E0
1.987966815E0,-5.519104004E-2,9.610717773E0,-8.738922119E0
1.993002215E0,-4.153442383E-2,9.615951538E0,-8.697692871E0
1.998037616E0,-3.222656250E-2,9.629562378E0,-8.699386597E0
2.003073016E0,-5.189514160E-2,9.644592285E0,-8.676162720E0
2.008108417E0,-5.912780762E-2,9.647003174E0,-8.661712646E0
2.013143817E0,-6.083679199E-2,9.608917236E0,-8.691741943E0
2.018179217E0,-5.574035645E-2,9.612106323E0,-8.680572510E0
2.023214618E0,-7.800292969E-2,9.612472534E0,-8.735122681E0
2.028250018E0,-6.460571289E-2,9.629470825E0,-8.687286377E0
2.033285419E0,-8.666992188E-2,9.637542725E0,-8.673461914E0
2.038320819E0,-5.781555176E-2,9.632293701E0,-8.691390991E0
2.043356219E0,-4.328918457E-2,9.608932495E0,-8.704757690E0
2.048391620E0,-3.234863281E-2,9.603652954E0,-8.660247803E0
2.053427020E0,-6.425476074E-2,9.617187500E0,-8.694046021E0
2.058462421E0,-8.177185059E-2,9.596389771E0,-8.671920776E0
2.063497821E0,-5.104064941E-2,9.582229614E0,-8.695205688E0
2.068533221E0,-3.941345215E-2,9.630981445E0,-8.728240967E0
2.073568622E0,-4.051208496E-2,9.622573853E0,-8.731918335E0
2.078604022E0,-4.492187500E-2,9.652496338E0,-8.703506470E0
2.083639423E0,-4.974365234E-2,9.636627197E0,-8.647445679E0
2.088674823E0,-1.954650879E-2,9.624542236E0,-8.692214966E0
2.093710223E0,-2.099609375E-2,9.608642578E0,-8.721450806E0
2.098745624E0,-7.057189941E-2,9.593887329E0,-8.686264038E0
2.103781024E0,-6.159973145E-2,9.609481812E0,-8.696548462E0
2.108816424E0,-1.861572266E-2,9.628753662E0,-8.669906616E0
2.113851825E0,-3.016662598E-2,9.630401611E0,-8.737808228E0
2.118887225E0,-3.810119629E-2,9.628158569E0,-8.727783203E0
2.123922626E0,-4.533386230E-2,9.618957520E0,-8.654327393E0
2.128958026E0,-5.023193359E-2,9.620773315E0,-8.675643921E0
2.133993426E0,-3.651428223E-2,9.602294922E0,-8.686050415E0
2.139028827E0,-2.214050293E-2,9.620529175E0,-8.690963745E0
2.144064227E0,-3.134155273E-2,9.618499756E0,-8.665023804E0
2.149099628E0,-2.903747559E-2,9.585403442E0,-8.641433716E0
2.154135028E0,-3.440856934E-2,9.623657227E0,-8.698654175E0
2.159170428E0,-5.966186523E-2,9.639617920E0,-8.623031616E0
2.164205829E0,-5.012512207E-2,9.629577637E0,-8.656463623E0
2.169241229E0,-4.302978516E-2,9.614501953E0,-8.680343628E0
2.174276630E0,-3.660583496E-2,9.665435791E0,-8.656402588E0
2.179312030E0,-1.243591309E-2,9.622879028E0,-8.608581543E0
2.184347430E0,-4.179382324E-2,9.617401123E0,-8.646255493E0
2.189382831E0,-4.943847656E-2,9.610565186E0,-8.653564453E0
2.194418231E0,-4.119873047E-2,9.640792847E0,-8.669433594E0
2.199453631E0,-3.991699219E-2,9.609512329E0,-8.599517822E0
2.204489032E0,-1.475524902E-2,9.596725464E0,-8.619354248E0
2.209524432E0,-8.087158203E-4,9.599792480E0,-8.588699341E0
2.214559833E0,-4.806518555E-3,9.631958008E0,-8.590667725E0
2.219595233E0,-2.151489258E-2,9.646728516E0,-8.603134155E0
2.224630633E0,-4.875183105E-2,9.623260498E0,-8.608993530E0
2.229666034E0,-2.705383301E-2,9.621810913E0,-8.590194702E0
2.234701434E0,-1.712036133E-2,9.616119385E0,-8.607727051E0
2.239736835E0,-3.627014160E-2,9.623138428E0,-8.596145630E0
2.244772235E0,-1.634216309E-2,9.635665894E0,-8.644119263E0
2.249807635E0,-3.317260742E-2,9.608978271E0,-8.620834351E0
2.254843036E0,-3.463745117E-2,9.629562378E0,-8.566040039E0
2.259878436E0,-1.182556152E-2,9.609802246E0,-8.575363159E0
2.264913837E0,-3.413391113E-2,9.619171143E0,-8.601379395E0
2.269949237E0,-2.619934082E-2,9.622985840E0,-8.596801758E0
2.274984637E0,-2.394104004E-2,9.625793457E0,-8.605361938E0
2.280020038E0,-2.845764160E-2,9.620880127E0,-8.526245117E0
2.285055438E0,-1.789855957E-2,9.618499756E0,-8.537765503E0
2.290090839E0,-1.704406738E-2,9.617004395E0,-8.578201294E0
2.295126239E0,-1.997375488E-2,9.618164062E0,-8.564727783E0
2.300161639E0,-2.238464355E-2,9.619491577E0,-8.563629150E0
2.305197040E0,-1.068115234E-4,9.653839111E0,-8.565124512E0
2.310232440E0,-6.896972656E-3,9.660751343E0,-8.547470093E0
2.315267840E0,-2.522277832E-2,9.634246826E0,-8.517105103E0
2.320303241E0,-9.750366211E-3,9.638916016E0,-8.526641846E0
2.325338641E0,5.493164062E-4,9.628341675E0,-8.565567017E0
2.330374042E0,-3.077697754E-2,9.610855103E0,-8.568542480E0
2.335409442E0,-3.941345215E-2,9.615020752E0,-8.528381348E0
2.340444842E0,-9.399414062E-3,9.618209839E0,-8.484725952E0
2.345480243E0,1.383972168E-2,9.599929810E0,-8.525344849E0
2.350515643E0,4.608154297E-3,9.619995117E0,-8.539001465E0
2.355551044E0,1.489257812E-2,9.628143311E0,-8.536285400E0
2.360586444E0,1.818847656E-2,9.627319336E0,-8.523956299E0
2.365621844E0,-3.067016602E-3,9.648300171E0,-8.542831421E0
2.370657245E0,7.659912109E-3,9.636734009E0,-8.523422241E0
2.375692645E0,1.480102539E-3,9.611343384E0,-8.521011353E0
2.380728046E0,-1.739501953E-2,9.611404419E0,-8.564392090E0
2.385763446E0,1.718139648E-2,9.656188965E0,-8.569656372E0
2.390798846E0,5.935668945E-3,9.655014038E0,-8.580749512E0
2.395834247E0,-6.286621094E-3,9.637985229E0,-8.537704468E0
2.400869647E0,-3.051757812E-5,9.639923096E0,-8.501556396E0
2.405905048E0,-4.302978516E-3,9.636962891E0,-8.500625610E0
2.410940448E0,9.826660156E-3,9.644180298E0,-8.511154175E0
2.415975848E0,1.553344727E-2,9.649444580E0,-8.534149170E0
2.421011249E0,1.539611816E-2,9.638504028E0,-8.554397583E0
2.426046649E0,1.622009277E-2,9.651763916E0,-8.547470093E0
2.431082049E0,-1.464843750E-3,9.651702881E0,-8.573211670E0
2.436117450E0,1.783752441E-2,9.633972168E0,-8.541259766E0
2.441152850E0,-4.470825195E-3,9.628021240E0,-8.539642334E0
2.446188251E0,-1.440429688E-2,9.639877319E0,-8.531280518E0
2.451223651E0,1.365661621E-2,9.629074097E0,-8.533096313E0
2.456259051E0,2.511596680E-2,9.635543823E0,-8.560913086E0
2.461294452E0,7.934570312E-4,9.657730103E0,-8.550048828E0
2.466329852E0,-1.846313477E-2,9.641983032E0,-8.547088623E0
2.471365253E0,2.044677734E-3,9.609390259E0,-8.537185669E0
2.476400653E0,3.463745117E-3,9.607437134E0,-8.573196411E0
2.481436053E0,1.142883301E-2,9.641250610E0,-8.580139160E0
2.486471454E0,2.273559570E-3,9.618591309E0,-8.606155396E0
2.491506854E0,2.107238770E-2,9.615264893E0,-8.544006348E0
2.496542255E0,7.965087891E-3,9.622039795E0,-8.576553345E0
2.501577655E0,2.432250977E-2,9.633255005E0,-8.606323242E0
2.506613055E0,3.826904297E-2,9.618911743E0,-8.644622803E0
2.511648456E0,-3.042602539E-2,9.647186279E0,-8.582214355E0
2.516683856E0,1.133728027E-2,9.651824951E0,-8.595016479E0
2.521719256E0,2.282714844E-2,9.630645752E0,-8.610916138E0
2.526754657E0,-6.698608398E-3,9.617279053E0,-8.633956909E0
2.531790057E0,9.155273438E-4,9.631347656E0,-8.647186279E0
2.536825458E0,-3.335571289E-2,9.670257568E0,-8.639373779E0
2.541860858E0,-2.944946289E-2,9.662063599E0,-8.567184448E0
2.546896258E0,2.757263184E-2,9.636444092E0,-8.612304688E0
2.551931659E0,1.214599609E-2,9.642028809E0,-8.582778931E0
2.556967059E0,-2.487182617E-3,9.607467651E0,-8.593154907E0
2.562002460E0,-5.187988281E-3,9.620697021E0,-8.631072998E0
2.567037860E0,1.145935059E-2,9.639923096E0,-8.612503052E0
2.572073260E0,-9.597778320E-3,9.663635254E0,-8.692611694E0
2.577108661E0,2.137756348E-2,9.655349731E0,-8.626892090E0
2.582144061E0,3.781127930E-2,9.606857300E0,-8.632064819E0
2.587179462E0,3.996276855E-2,9.613967896E0,-8.644073486E0
2.592214862E0,-7.324218750E-3,9.617828369E0,-8.613815308E0
2.597250262E0,-2.655029297E-3,9.608520508E0,-8.676422119E0
2.602285663E0,-2.441406250E-4,9.631134033E0,-8.670776367E0
2.607321063E0,-6.256103516E-4,9.611648560E0,-8.658416748E0
2.612356464E0,-2.003479004E-2,9.593551636E0,-8.667343140E0
2.617391864E0,1.759338379E-2,9.604766846E0,-8.680892944E0
2.622427264E0,2.505493164E-2,9.612030029E0,-8.618026733E0
2.627462665E0,2.593994141E-4,9.630752563E0,-8.601211548E0
2.632498065E0,-1.972961426E-2,9.620376587E0,-8.670028687E0
2.637533465E0,4.699707031E-3,9.629608154E0,-8.708908081E0
2.642568866E0,3.341674805E-3,9.620193481E0,-8.696258545E0
2.647604266E0,-1.707458496E-2,9.602401733E0,-8.663146973E0
2.652639667E0,-2.986145020E-2,9.642837524E0,-8.675582886E0
2.657675067E0,5.340576172E-3,9.653427124E0,-8.750167847E0
2.662710467E0,1.907348633E-3,9.611145020E0,-8.739242554E0
2.667745868E0,-1.504516602E-2,9.603805542E0,-8.762557983E0
2.672781268E0,-4.684448242E-3,9.634567261E0,-8.729568481E0
2.677816669E0,-2.471923828E-2,9.643051147E0,-8.662384033E0
2.682852069E0,1.843261719E-2,9.643280029E0,-8.690643311E0
2.687887469E0,2.706909180E-2,9.618820190E0,-8.725326538E0
2.692922870E0,8.575439453E-3,9.627334595E0,-8.760955811E0
2.697958270E0,-1.026916504E-2,9.647048950E0,-8.670654297E0
2.702993671E0,-1.129150391E-2,9.628616333E0,-8.688796997E0
2.708029071E0,-3.538513184E-2,9.648696899E0,-8.728958130E0
2.713064471E0,-3.770446777E-2,9.646591187E0,-8.703903198E0
2.718099872E0,-3.184509277E-2,9.619400024E0,-8.708374023E0
2.723135272E0,-1.451110840E-2,9.621917725E0,-8.724807739E0
2.728170673E0,1.022338867E-3,9.633712769E0,-8.740493774E0
2.733206073E0,2.349853516E-3,9.620101929E0,-8.696578979E0
2.738241473E0,3.799438477E-3,9.643707275E0,-8.680679321E0
2.743276874E0,-1.235961914E-2,9.632369995E0,-8.671585083E0
2.748312274E0,-1.770019531E-2,9.631866455E0,-8.673980713E0
2.753347674E0,-1.025390625E-2,9.643081665E0,-8.704513550E0
2.758383075E0,-3.030395508E-2,9.615707397E0,-8.721084595E0
2.763418475E0,-1.110839844E-2,9.613388062E0,-8.727890015E0
2.768453876E0,1.548767090E-2,9.626144409E0,-8.701293945E0
2.773489276E0,1.968383789E-3,9.638259888E0,-8.720642090E0
2.778524676E0,2.349853516E-2,9.639770508E0,-8.727935791E0
2.783560077E0,2.139282227E-2,9.606292725E0,-8.682586670E0
2.788595477E0,-1.571655273E-3,9.608367920E0,-8.697570801E0
2.793630878E0,-1.844787598E-2,9.644195557E0,-8.731475830E0
2.798666278E0,-2.458190918E-2,9.649017334E0,-8.686996460E0
2.803701678E0,-1.039123535E-2,9.631118774E0,-8.681289673E0
2.808737079E0,-1.344299316E-2,9.634872437E0,-8.701293945E0
2.813772479E0,-2.790832520E-2,9.639923096E0,-8.663269043E0
2.818807880E0,-1.947021484E-2,9.617019653E0,-8.642501831E0
2.823843280E0,-2.311706543E-2,9.636871338E0,-8.658416748E0
2.828878680E0,-4.479980469E-2,9.655975342E0,-8.670822144E0
2.833914081E0,-1.637268066E-2,9.660278320E0,-8.662231445E0
2.838949481E0,-4.974365234E-3,9.642044067E0,-8.655349731E0
2.843984881E0,-5.035400391E-4,9.639862061E0,-8.647460938E0
2.849020282E0,-1.979064941E-2,9.635040283E0,-8.693237305E0
2.854055682E0,-1.176452637E-2,9.604217529E0,-8.674713135E0
2.859091083E0,-1.780700684E-2,9.600631714E0,-8.610397339E0
2.864126483E0,-1.078796387E-2,9.609268188E0,-8.584335327E0
2.869161883E0,-1.724243164E-2,9.635421753E0,-8.622802734E0
2.874197284E0,-3.407287598E-2,9.641189575E0,-8.621261597E0
2.879232684E0,-3.146362305E-2,9.629318237E0,-8.650222778E0
2.884268085E0,-3.619384766E-2,9.647186279E0,-8.630157471E0
2.889303485E0,-2.940368652E-2,9.599441528E0,-8.645187378E0
2.894338885E0,-3.405761719E-2,9.605041504E0,-8.626998901E0
2.899374286E0,-3.805541992E-2,9.626510620E0,-8.612060547E0
2.904409686E0,-2.703857422E-2,9.601654053E0,-8.623519897E0
2.909445087E0,-6.309509277E-2,9.621887207E0,-8.634552002E0
2.914480487E0,-2.853393555E-3,9.616180420E0,-8.577148438E0
2.919515887E0,-2.055358887E-2,9.645736694E0,-8.578887939E0
2.924551288E0,-3.070068359E-2,9.641662598E0,-8.583587646E0
2.929586688E0,-2.725219727E-2,9.617126465E0,-8.610870361E0
2.934622089E0,-6.634521484E-2,9.613739014E0,-8.573074341E0
2.939657489E0,-4.644775391E-2,9.643371582E0,-8.582092285E0
2.944692889E0,-4.544067383E-2,9.647064209E0,-8.629013062E0
2.949728290E0,-6.072998047E-2,9.670700073E0,-8.498504639E0
2.954763690E0,-4.251098633E-2,9.649002075E0,-8.569869995E0
2.959799090E0,-3.642272949E-2,9.638061523E0,-8.536331177E0
2.964834491E0,-2.256774902E-2,9.648849487E0,-8.586013794E0
2.969869891E0,-5.625915527E-2,9.605880737E0,-8.570343018E0
2.974905292E0,4.730224609E-4,9.629745483E0,-8.553390503E0
2.979940692E0,-4.039001465E-2,9.635101318E0,-8.571792603E0
2.984976092E0,-6.709289551E-2,9.647064209E0,-8.564895630E0
2.990011493E0,-2.246093750E-2,9.644409180E0,-8.516006470E0
2.995046893E0,-6.860351562E-2,9.623657227E0,-8.603363037E0
3.000082294E0,-3.446960449E-2,9.640182495E0,-8.524337769E0
3.005117694E0,-5.398559570E-2,9.647750854E0,-8.525085449E0
3.010153094E0,-7.458496094E-2,9.660461426E0,-8.582763672E0
3.015188495E0,-4.417419434E-2,9.643905640E0,-8.562789917E0
3.020223895E0,-5.786132812E-2,9.606658936E0,-8.535705566E0
3.025259296E0,-8.076477051E-2,9.633712769E0,-8.525207520E0
3.030294696E0,-3.244018555E-2,9.641250610E0,-8.494491577E0
3.035330096E0,-4.032897949E-2,9.633651733E0,-8.535537720E0
3.040365497E0,-4.258728027E-2,9.640563965E0,-8.499389648E0
3.045400897E0,-7.920837402E-2,9.641525269E0,-8.520996094E0
3.050436298E0,-5.395507812E-2,9.620590210E0,-8.517562866E0
3.055471698E0,-5.831909180E-2,9.609863281E0,-8.531967163E0
3.060507098E0,-5.697631836E-2,9.626937866E0,-8.533065796E0
3.065542499E0,-8.250427246E-2,9.631408691E0,-8.533279419E0
3.070577899E0,-6.312561035E-2,9.629608154E0,-8.557067871E0
3.075613299E0,-4.804992676E-2,9.647827148E0,-8.567352295E0
3.080648700E0,-4.309082031E-2,9.646270752E0,-8.527206421E0
3.085684100E0,-3.346252441E-2,9.615600586E0,-8.561264038E0
3.090719501E0,-5.519104004E-2,9.654830933E0,-8.537170410E0
3.095754901E0,-5.390930176E-2,9.655364990E0,-8.477874756E0
3.100790301E0,-5.177307129E-2,9.624755859E0,-8.537368774E0
3.105825702E0,-4.966735840E-2,9.615951538E0,-8.534637451E0
3.110861102E0,-5.429077148E-2,9.637420654E0,-8.539230347E0
3.115896503E0,-8.523559570E-2,9.626831055E0,-8.558502197E0
3.120931903E0,-6.311035156E-2,9.637588501E0,-8.591735840E0
3.125967303E0,-6.874084473E-2,9.628753662E0,-8.598953247E0
3.131002704E0,-5.331420898E-2,9.626693726E0,-8.545288086E0
3.136038104E0,-1.864624023E-2,9.636672974E0,-8.478363037E0
3.141073505E0,-3.646850586E-2,9.637847900E0,-8.512832642E0
3.146108905E0,-3.172302246E-2,9.637695312E0,-8.513595581E0
3.151144305E0,-4.179382324E-2,9.645584106E0,-8.523895264E0
3.156179706E0,-8.193969727E-2,9.646957397E0,-8.533554077E0
3.161215106E0,-7.002258301E-2,9.616119385E0,-8.548797607E0
3.166250506E0,-5.953979492E-2,9.627593994E0,-8.581527710E0
3.171285907E0,-6.135559082E-2,9.650894165E0,-8.556900024E0
3.176321307E0,-5.334472656E-2,9.643814087E0,-8.577087402E0
3.181356708E0,-5.895996094E-2,9.619873047E0,-8.561508179E0
3.186392108E0,-7.135009766E-2,9.611495972E0,-8.575973511E0
3.191427508E0,-7.905578613E-2,9.647994995E0,-8.603225708E0
3.196462909E0,-7.069396973E-2,9.647476196E0,-8.577056885E0
3.201498309E0,-6.565856934E-2,9.621490479E0,-8.596038818E0
3.206533710E0,-4.725646973E-2,9.645324707E0,-8.631088257E0
3.211569110E0,-4.005432129E-2,9.649002075E0,-8.617431641E0
3.216604510E0,-4.463195801E-2,9.615447998E0,-8.570648193E0
3.221639911E0,-5.111694336E-2,9.619476318E0,-8.570999146E0
3.226675311E0,-5.935668945E-2,9.613555908E0,-8.580551147E0
3.231710712E0,-5.950927734E-2,9.635772705E0,-8.612716675E0
3.236746112E0,-5.035400391E-2,9.633361816E0,-8.644042969E0
3.241781512E0,-3.683471680E-2,9.625534058E0,-8.647628784E0
3.246816913E0,-5.094909668E-2,9.607208252E0,-8.629272461E0
3.251852313E0,-5.632019043E-2,9.628448486E0,-8.625656128E0
3.256887714E0,-4.199218750E-2,9.615402222E0,-8.639984131E0
3.261923114E0,-5.197143555E-2,9.625549316E0,-8.631576538E0
3.266958514E0,-3.585815430E-2,9.646347046E0,-8.619583130E0
3.271993915E0,-3.733825684E-2,9.618362427E0,-8.622161865E0
3.277029315E0,-4.995727539E-2,9.627517700E0,-8.616073608E0
3.282064715E0,-4.434204102E-2,9.647705078E0,-8.642990112E0
3.287100116E0,-6.692504883E-2,9.618881226E0,-8.703887939E0
3.292135516E0,-7.135009766E-2,9.617126465E0,-8.664031982E0
3.297170917E0,-8.016967773E-2,9.619094849E0,-8.607803345E0
3.302206317E0,-7.652282715E-2,9.623931885E0,-8.641098022E0
3.307241717E0,-5.584716797E-2,9.609069824E0,-8.714218140E0
3.312277118E0,-6.913757324E-2,9.628509521E0,-8.673568726E0
3.317312518E0,-5.705261230E-2,9.665710449E0,-8.657730103E0
3.322347919E0,-6.826782227E-2,9.621124268E0,-8.684753418E0
3.327383319E0,-4.446411133E-2,9.583526611E0,-8.671478271E0
3.332418719E0,-2.462768555E-2,9.595901489E0,-8.701004028E0
3.337454120E0,-2.993774414E-2,9.631698608E0,-8.655319214E0
3.342489520E0,-7.637023926E-2,9.619140625E0,-8.674438477E0
3.347524921E0,-6.289672852E-2,9.618194580E0,-8.643676758E0
3.352560321E0,-4.733276367E-2,9.629013062E0,-8.663940430E0
3.357595721E0,-6.700134277E-2,9.647445679E0,-8.626739502E0
3.362631122E0,-8.677673340E-2,9.588912964E0,-8.650115967E0
3.367666522E0,-5.348205566E-2,9.626602173E0,-8.650772095E0
3.372701923E0,-7.929992676E-2,9.637054443E0,-8.701629639E0
3.377737323E0,-4.765319824E-2,9.630783081E0,-8.682846069E0
3.382772723E0,-4.112243652E-2,9.619003296E0,-8.676971436E0
3.387808124E0,-5.014038086E-2,9.625411987E0,-8.729827881E0
3.392843524E0,-5.043029785E-2,9.625640869E0,-8.701141357E0
3.397878924E0,-8.355712891E-2,9.592514038E0,-8.657989502E0
3.402914325E0,-5.056762695E-2,9.609298706E0,-8.771697998E0
3.407949725E0,-7.168579102E-2,9.661071777E0,-8.726013184E0
3.412985126E0,-6.269836426E-2,9.646041870E0,-8.686294556E0
3.418020526E0,-7.270812988E-2,9.613220215E0,-8.684341431E0
3.423055926E0,-4.051208496E-2,9.604461670E0,-8.644088745E0
3.428091327E0,-7.057189941E-2,9.648483276E0,-8.693893433E0
3.433126727E0,-2.195739746E-2,9.633041382E0,-8.674301147E0
3.438162128E0,-5.064392090E-2,9.604629517E0,-8.755920410E0
3.443197528E0,-3.207397461E-2,9.584701538E0,-8.689865112E0
3.448232928E0,-5.638122559E-2,9.586746216E0,-8.689071655E0
3.453268329E0,-3.137207031E-2,9.631042480E0,-8.754257202E0
3.458303729E0,-4.405212402E-2,9.607833862E0,-8.681152344E0
3.463339130E0,-1.985168457E-2,9.645385742E0,-8.690261841E0
3.468374530E0,-2.148437500E-2,9.650619507E0,-8.670440674E0
3.473409930E0,-1.867675781E-2,9.653305054E0,-8.666168213E0
3.478445331E0,-2.043151855E-2,9.630966187E0,-8.677780151E0
3.483480731E0,-4.521179199E-2,9.604629517E0,-8.650588989E0
3.488516131E0,-4.130554199E-2,9.611145020E0,-8.654556274E0
3.493551532E0,-3.060913086E-2,9.601821899E0,-8.655349731E0
3.498586932E0,-2.685546875E-2,9.634582520E0,-8.617248535E0
3.503622333E0,-4.927062988E-2,9.629272461E0,-8.671691895E0
3.508657733E0,-4.751586914E-2,9.618499756E0,-8.710952759E0
3.513693133E0,-4.382324219E-2,9.627487183E0,-8.688140869E0
3.518728534E0,-2.352905273E-2,9.641738892E0,-8.690307617E0
3.523763934E0,-4.008483887E-2,9.619613647E0,-8.646530151E0
3.528799335E0,-4.278564453E-2,9.622177124E0,-8.674575806E0
3.533834735E0,-1.625061035E-2,9.612014771E0,-8.673416138E0
3.538870135E0,-1.791381836E-2,9.626373291E0,-8.675216675E0
3.543905536E0,-1.881408691E-2,9.637390137E0,-8.664123535E0
3.548940936E0,-2.493286133E-2,9.617843628E0,-8.664703369E0
3.553976337E0,-2.879333496E-2,9.606369019E0,-8.648849487E0
3.559011737E0,-4.002380371E-2,9.613174438E0,-8.623840332E0
3.564047137E0,-4.321289062E-2,9.614486694E0,-8.616744995E0
3.569082538E0,-3.211975098E-2,9.629425049E0,-8.637954712E0
3.574117938E0,-1.812744141E-2,9.621063232E0,-8.661880493E0
3.579153339E0,-3.614807129E-2,9.612365723E0,-8.673049927E0
3.584188739E0,-2.984619141E-2,9.616882324E0,-8.683959961E0
3.589224139E0,-2.835083008E-2,9.615463257E0,-8.649307251E0
3.594259540E0,-4.058837891E-2,9.598983765E0,-8.615356445E0
3.599294940E0,-2.290344238E-2,9.595520020E0,-8.583816528E0
3.604330340E0,-1.559448242E-2,9.604217529E0,-8.586959839E0
3.609365741E0,-3.138732910E-2,9.626968384E0,-8.614868164E0
3.614401141E0,-1.551818848E-2,9.637176514E0,-8.612503052E0
3.619436542E0,-3.204345703E-4,9.618103027E0,-8.607467651E0
3.624471942E0,6.408691406E-4,9.598495483E0,-8.608108521E0
3.629507342E0,-8.331298828E-3,9.621719360E0,-8.584899902E0
3.634542743E0,-8.010864258E-3,9.641372681E0,-8.583999634E0
3.639578143E0,-6.927490234E-3,9.629699707E0,-8.582855225E0
3.644613544E0,-9.963989258E-3,9.622848511E0,-8.554290771E0
3.649648944E0,-2.276611328E-2,9.643630981E0,-8.540618896E0
3.654684344E0,-1.405334473E-2,9.638717651E0,-8.558944702E0
3.659719745E0,-4.302978516E-3,9.640380859E0,-8.598571777E0
3.664755145E0,8.087158203E-4,9.631393433E0,-8.608856201E0
3.669790546E0,1.657104492E-2,9.640808105E0,-8.611480713E0
3.674825946E0,1.234436035E-2,9.629806519E0,-8.561416626E0
3.679861346E0,5.096435547E-3,9.616897583E0,-8.543518066E0
3.684896747E0,1.068115234E-3,9.614486694E0,-8.566055298E0
3.689932147E0,-5.401611328E-3,9.631881714E0,-8.585968018E0
3.694967548E0,-1.263427734E-2,9.616409302E0,-8.580993652E0
3.700002948E0,-2.777099609E-3,9.640762329E0,-8.544326782E0
3.705038348E0,-1.892089844E-2,9.657669067E0,-8.514190674E0
3.710073749E0,3.402709961E-3,9.602416992E0,-8.537796021E0
3.715109149E0,-9.521484375E-3,9.625900269E0,-8.564392090E0
3.720144549E0,-6.164550781E-3,9.630783081E0,-8.564178467E0
3.725179950E0,-1.580810547E-2,9.626159668E0,-8.573638916E0
3.730215350E0,-4.425048828E-3,9.623748779E0,-8.588088989E0
3.735250751E0,-1.383972168E-2,9.621337891E0,-8.543243408E0
3.740286151E0,1.008605957E-2,9.626693726E0,-8.541275024E0
3.745321551E0,8.377075195E-3,9.643692017E0,-8.519958496E0
3.750356952E0,6.698608398E-3,9.656982422E0,-8.481140137E0
3.755392352E0,6.698608398E-3,9.652908325E0,-8.548995972E0
3.760427753E0,8.728027344E-3,9.651824951E0,-8.562515259E0
3.765463153E0,-7.614135742E-3,9.635131836E0,-8.566680908E0
3.770498553E0,-1.556396484E-3,9.634872437E0,-8.573577881E0
3.775533954E0,3.814697266E-3,9.630889893E0,-8.480590820E0
3.780569354E0,2.151489258E-3,9.617431641E0,-8.525863647E0
3.785604755E0,8.499145508E-3,9.624877930E0,-8.492126465E0
3.790640155E0,3.349304199E-2,9.614532471E0,-8.546432495E0
3.795675555E0,-1.646423340E-2,9.642974854E0,-8.494384766E0
3.800710956E0,-2.632141113E-2,9.651504517E0,-8.554885864E0
3.805746356E0,7.980346680E-3,9.621826172E0,-8.530059814E0
3.810781756E0,-4.943847656E-3,9.644241333E0,-8.545532227E0
3.815817157E0,3.263854980E-2,9.597366333E0,-8.552947998E0
3.820852557E0,2.095031738E-2,9.653976440E0,-8.536315918E0
3.825887958E0,1.538085938E-2,9.618927002E0,-8.534027100E0
3.830923358E0,-2.763366699E-2,9.641418457E0,-8.539718628E0
3.835958758E0,1.600646973E-2,9.614440918E0,-8.570816040E0
3.840994159E0,1.239013672E-2,9.628524780E0,-8.544403076E0
3.846029559E0,2.859497070E-2,9.591293335E0,-8.559143066E0
3.851064960E0,7.781982422E-4,9.580932617E0,-8.501052856E0
3.856100360E0,1.298522949E-2,9.644256592E0,-8.430206299E0
3.861145897E0,-1.617431641E-2,9.617980957E0,-8.562606812E0
3.866181298E0,1.675415039E-2,9.636749268E0,-8.585540771E0
3.871216698E0,2.517700195E-3,9.633026123E0,-8.557785034E0
3.876252099E0,1.235961914E-3,9.655029297E0,-8.541412354E0
3.881287499E0,-2.221679688E-2,9.667907715E0,-8.544158936E0
3.886322899E0,3.604125977E-2,9.625915527E0,-8.554672241E0
3.891358300E0,1.480102539E-3,9.634597778E0,-8.586242676E0
3.896393700E0,4.573059082E-2,9.611602783E0,-8.575729370E0
3.901429101E0,-4.226684570E-3,9.622314453E0,-8.589965820E0
3.906464501E0,-8.483886719E-3,9.622467041E0,-8.618438721E0
3.911499901E0,6.103515625E-3,9.632797241E0,-8.595306396E0
3.916535302E0,2.819824219E-2,9.613342285E0,-8.591781616E0
3.921570702E0,9.155273438E-5,9.612976074E0,-8.585723877E0
3.926606102E0,-1.220703125E-4,9.640533447E0,-8.579635620E0
3.931641503E0,-1.892089844E-2,9.646789551E0,-8.576904297E0
3.936676903E0,8.651733398E-3,9.644180298E0,-8.603652954E0
3.941712304E0,1.521301270E-2,9.600982666E0,-8.628479004E0
3.946747704E0,-6.317138672E-3,9.597045898E0,-8.668579102E0
3.951783104E0,1.028442383E-2,9.629119873E0,-8.627838135E0
3.956818505E0,2.023315430E-2,9.643936157E0,-8.630645752E0
3.961853905E0,1.576232910E-2,9.635375977E0,-8.643676758E0
3.966889306E0,3.509521484E-2,9.641815186E0,-8.617050171E0
3.971924706E0,3.224182129E-2,9.621002197E0,-8.630416870E0
3.976960106E0,1.080322266E-2,9.615310669E0,-8.616241455E0
3.981995507E0,-2.528381348E-2,9.626571655E0,-8.590820312E0
3.987030907E0,-2.430725098E-2,9.628021240E0,-8.598052979E0
3.992066308E0,-8.560180664E-3,9.644897461E0,-8.634307861E0
3.997101708E0,4.959106445E-3,9.661331177E0,-8.642776489E0
4.002137108E0,-1.423645020E-2,9.631835938E0,-8.678756714E0
4.007172509E0,-6.515502930E-3,9.618484497E0,-8.689117432E0
4.012207909E0,-1.844787598E-2,9.629470825E0,-8.656387329E0
4.017243310E0,-1.159667969E-3,9.624511719E0,-8.643310547E0
4.022278710E0,2.140808105E-2,9.647476196E0,-8.673507690E0
4.027314110E0,1.260375977E-2,9.643676758E0,-8.731338501E0
4.032349511E0,1.615905762E-2,9.619827271E0,-8.711288452E0
4.037384911E0,1.133728027E-2,9.629379272E0,-8.673599243E0
4.042420311E0,1.287841797E-2,9.631500244E0,-8.666275024E0
4.047455712E0,9.719848633E-3,9.613494873E0,-8.642562866E0
4.052491112E0,1.647949219E-3,9.608749390E0,-8.648529053E0
4.057526513E0,1.856994629E-2,9.617477417E0,-8.673690796E0
4.062561913E0,7.751464844E-3,9.647811890E0,-8.664367676E0
4.067597313E0,-8.544921875E-3,9.647140503E0,-8.680450439E0
4.072632714E0,-3.662109375E-4,9.638549805E0,-8.686111450E0
4.077668114E0,7.263183594E-3,9.614273071E0,-8.691513062E0
4.082703515E0,-5.966186523E-3,9.601577759E0,-8.676498413E0
4.087738915E0,-1.319885254E-2,9.627212524E0,-8.682418823E0
4.092774315E0,-1.419067383E-3,9.641479492E0,-8.690307617E0
4.097809716E0,-1.638793945E-2,9.618423462E0,-8.715728760E0
4.102845116E0,-7.019042969E-4,9.629287720E0,-8.683746338E0
4.107880517E0,-1.754760742E-3,9.606918335E0,-8.707031250E0
4.112915917E0,-3.445434570E-2,9.630935669E0,-8.696517944E0
4.117951317E0,-1.321411133E-2,9.652175903E0,-8.699279785E0
4.122986718E0,-2.478027344E-2,9.612487793E0,-8.710540771E0
4.128022118E0,-1.094055176E-2,9.621658325E0,-8.698425293E0
4.133057518E0,-9.994506836E-3,9.630401611E0,-8.693435669E0
4.138092919E0,-1.782226562E-2,9.604843140E0,-8.700729370E0
4.143128319E0,-1.580810547E-2,9.591537476E0,-8.723220825E0
4.148163720E0,-1.286315918E-2,9.627319336E0,-8.680526733E0
4.153199120E0,-1.617431641E-2,9.622253418E0,-8.692077637E0
4.158234520E0,-3.834533691E-2,9.589538574E0,-8.680816650E0
4.163269921E0,-4.638671875E-3,9.607910156E0,-8.682571411E0
4.168305321E0,-1.748657227E-2,9.655334473E0,-8.668060303E0
4.173340722E0,-1.783752441E-2,9.629455566E0,-8.678970337E0
4.178376122E0,-1.098632812E-2,9.629379272E0,-8.687652588E0
4.183411522E0,-2.040100098E-2,9.584487915E0,-8.703277588E0
4.188446923E0,-1.977539062E-2,9.594863892E0,-8.646408081E0
4.193482323E0,-1.309204102E-2,9.614120483E0,-8.713302612E0
4.198517724E0,-3.613281250E-2,9.598815918E0,-8.680923462E0
4.203553124E0,-7.873535156E-3,9.645263672E0,-8.659240723E0
4.208588524E0,-7.431030273E-3,9.580627441E0,-8.684356689E0
4.213623925E0,-2.569580078E-2,9.634475708E0,-8.663665771E0
4.218659325E0,-1.068115234E-2,9.632980347E0,-8.657928467E0
4.223694726E0,-6.535339355E-2,9.635086060E0,-8.660034180E0
4.228730126E0,-4.013061523E-3,9.632812500E0,-8.620376587E0
4.233765526E0,-3.358459473E-2,9.618576050E0,-8.662216187E0
4.238800927E0,-3.118896484E-2,9.611587524E0,-8.612747192E0
4.243836327E0,6.561279297E-4,9.648040771E0,-8.652557373E0
4.248871727E0,-5.058288574E-2,9.593688965E0,-8.637100220E0
4.253907128E0,-5.468750000E-2,9.637542725E0,-8.660751343E0
4.258942528E0,-4.342651367E-2,9.637008667E0,-8.624389648E0
4.263977929E0,-4.534912109E-2,9.628341675E0,-8.658767700E0
4.269013329E0,-3.958129883E-2,9.634307861E0,-8.578613281E0
4.274048729E0,-2.494812012E-2,9.647644043E0,-8.623992920E0
4.279084130E0,-3.338623047E-2,9.612197876E0,-8.601196289E0
4.284119530E0,-4.655456543E-2,9.636581421E0,-8.631774902E0
4.289154931E0,-2.110290527E-2,9.612884521E0,-8.664108276E0
4.294190331E0,-4.032897949E-2,9.613845825E0,-8.627456665E0
4.299225731E0,4.852294922E-3,9.572402954E0,-8.632644653E0
4.304261132E0,-1.171875000E-2,9.655700684E0,-8.633392334E0
4.309296532E0,-4.287719727E-2,9.636947632E0,-8.609848022E0
4.314331933E0,-4.454040527E-2,9.619628906E0,-8.612854004E0
4.319367333E0,-4.550170898E-2,9.613372803E0,-8.585861206E0
4.324402733E0,-1.327514648E-3,9.647399902E0,-8.594467163E0
4.329438134E0,-5.076599121E-2,9.636672974E0,-8.596054077E0
4.334473534E0,-5.767822266E-2,9.627334595E0,-8.590393066E0
4.339508935E0,-5.043029785E-2,9.636962891E0,-8.595840454E0
4.344544335E0,-4.917907715E-2,9.649444580E0,-8.574478149E0
4.349579735E0,-4.896545410E-2,9.640243530E0,-8.531326294E0
4.354615136E0,-4.598999023E-2,9.614059448E0,-8.567581177E0
4.359650536E0,-2.769470215E-2,9.618133545E0,-8.552719116E0
4.364685936E0,-4.760742188E-2,9.633956909E0,-8.571899414E0
4.369721337E0,-3.692626953E-2,9.620880127E0,-8.574508667E0
4.374756737E0,-5.194091797E-2,9.621658325E0,-8.529098511E0
4.379792138E0,-8.636474609E-2,9.633880615E0,-8.571655273E0
4.384827538E0,-7.247924805E-2,9.646575928E0,-8.560104370E0
4.389862938E0,-3.773498535E-2,9.631011963E0,-8.508728027E0
4.394898339E0,-5.740356445E-2,9.631668091E0,-8.523162842E0
4.399933739E0,-4.566955566E-2,9.625381470E0,-8.517868042E0
4.404969140E0,-4.856872559E-2,9.614303589E0,-8.528945923E0
4.410004540E0,-3.097534180E-2,9.626632690E0,-8.510543823E0
4.415039940E0,-1.475524902E-2,9.632095337E0,-8.538726807E0
4.420075341E0,-4.328918457E-2,9.633300781E0,-8.583129883E0
4.425110741E0,-5.302429199E-2,9.639984131E0,-8.569152832E0
4.430146142E0,-3.489685059E-2,9.632003784E0,-8.521560669E0
4.435181542E0,-2.850341797E-2,9.640762329E0,-8.536010742E0
4.440216942E0,-5.844116211E-2,9.635940552E0,-8.525939941E0
4.445252343E0,-8.740234375E-2,9.627029419E0,-8.529312134E0
4.450287743E0,-8.578491211E-2,9.655212402E0,-8.565322876E0
4.455323143E0,-5.917358398E-2,9.630599976E0,-8.528930664E0
4.460358544E0,-3.924560547E-2,9.616302490E0,-8.499374390E0
4.465393944E0,-5.714416504E-2,9.619796753E0,-8.531997681E0
4.470429345E0,-7.130432129E-2,9.647491455E0,-8.540237427E0
4.475464745E0,-5.749511719E-2,9.641021729E0,-8.510604858E0
4.480500145E0,-6.726074219E-2,9.641906738E0,-8.513107300E0
4.485535546E0,-6.326293945E-2,9.637969971E0,-8.511062622E0
4.490570946E0,-6.011962891E-2,9.637313843E0,-8.534210205E0
4.495606347E0,-7.067871094E-2,9.620849609E0,-8.506210327E0
4.500641747E0,-6.208801270E-2,9.612670898E0,-8.548202515E0
4.505677147E0,-7.981872559E-2,9.614578247E0,-8.553298950E0
4.510712548E0,-8.227539062E-2,9.616882324E0,-8.571670532E0
4.515747948E0,-7.661437988E-2,9.647232056E0,-8.514434814E0
4.520783349E0,-6.365966797E-2,9.637023926E0,-8.544891357E0
4.525818749E0,-6.913757324E-2,9.627288818E0,-8.601547241E0
4.530854149E0,-4.232788086E-2,9.636413574E0,-8.533569336E0
4.535889550E0,-3.413391113E-2,9.638214111E0,-8.527954102E0
4.540924950E0,-6.413269043E-2,9.644531250E0,-8.594650269E0
4.545960351E0,-6.007385254E-2,9.615188599E0,-8.570602417E0
4.550995751E0,-8.035278320E-2,9.611389160E0,-8.576919556E0
4.556031151E0,-7.391357422E-2,9.644760132E0,-8.593063354E0
4.561066552E0,-7.133483887E-2,9.626373291E0,-8.584701538E0
4.566101952E0,-9.069824219E-2,9.629791260E0,-8.534454346E0
4.571137352E0,-5.357360840E-2,9.640426636E0,-8.592819214E0
4.576172753E0,-5.494689941E-2,9.636474609E0,-8.588745117E0
4.581208153E0,-2.799987793E-2,9.617416382E0,-8.554351807E0
4.586243554E0,-7.389831543E-2,9.627731323E0,-8.560226440E0
4.591278954E0,-7.157897949E-2,9.634460449E0,-8.603103638E0
4.596314354E0,-8.595275879E-2,9.628982544E0,-8.628646851E0
4.601349755E0,-6.764221191E-2,9.598785400E0,-8.623184204E0
4.606385155E0,-6.892395020E-2,9.611526489E0,-8.558883667E0
4.611420556E0,-3.730773926E-2,9.635177612E0,-8.621398926E0
4.616455956E0,-5.757141113E-2,9.639694214E0,-8.624832153E0
4.621491356E0,-2.709960938E-2,9.600479126E0,-8.595916748E0
4.626526757E0,-4.423522949E-2,9.617050171E0,-8.580139160E0
4.631562157E0,-9.545898438E-2,9.627548218E0,-8.592742920E0
4.636597558E0,-7.525634766E-2,9.628021240E0,-8.588897705E0
4.641632958E0,-9.500122070E-2,9.621093750E0,-8.655609131E0
4.646668358E0,-7.229614258E-2,9.609191895E0,-8.587631226E0
4.651703759E0,-6.239318848E-2,9.618438721E0,-8.662017822E0
4.656739159E0,-7.174682617E-2,9.637451172E0,-8.676559448E0
4.661774560E0,-5.290222168E-2,9.623336792E0,-8.643783569E0
4.666809960E0,-5.722045898E-2,9.627716064E0,-8.660797119E0
4.671845360E0,-4.669189453E-2,9.618286133E0,-8.607421875E0
4.676880761E0,-6.619262695E-2,9.613342285E0,-8.605331421E0
4.681916161E0,-1.335144043E-2,9.606750488E0,-8.682434082E0
4.686951561E0,-6.129455566E-2,9.610305786E0,-8.632766724E0
4.691986962E0,-7.487487793E-2,9.628692627E0,-8.667373657E0
4.697022362E0,-5.957031250E-2,9.654983521E0,-8.607650757E0
4.702057763E0,-7.412719727E-2,9.618377686E0,-8.687286377E0
4.707093163E0,-5.732727051E-2,9.604324341E0,-8.672500610E0
4.712128563E0,-7.057189941E-2,9.637863159E0,-8.648895264E0
4.717163964E0,-6.057739258E-2,9.638153076E0,-8.679321289E0
4.722199364E0,-5.709838867E-2,9.633895874E0,-8.653350830E0
4.727234765E0,-8.558654785E-2,9.652679443E0,-8.654937744E0
4.732270165E0,-6.259155273E-2,9.603836060E0,-8.658660889E0
4.737305565E0,-7.284545898E-2,9.614379883E0,-8.678298950E0
4.742340966E0,-6.362915039E-2,9.579513550E0,-8.652862549E0
4.747376366E0,-4.832458496E-2,9.598388672E0,-8.654541016E0
4.752411767E0,-4.261779785E-2,9.636184692E0,-8.693435669E0
4.757447167E0,-4.804992676E-2,9.612472534E0,-8.696929932E0
4.762482567E0,-4.376220703E-2,9.622024536E0,-8.704025269E0
4.767517968E0,-3.901672363E-2,9.621658325E0,-8.698501587E0
4.772553368E0,-5.606079102E-2,9.629089355E0,-8.696853638E0
4.777588768E0,-4.707336426E-2,9.626327515E0,-8.670059204E0
4.782624169E0,-5.627441406E-2,9.620712280E0,-8.715545654E0
4.787659569E0,-6.492614746E-2,9.621673584E0,-8.721954346E0
4.792694970E0,-5.282592773E-2,9.643981934E0,-8.696533203E0
4.797730370E0,-3.497314453E-2,9.608825684E0,-8.715591431E0
4.802765770E0,-1.759338379E-2,9.599456787E0,-8.710769653E0
4.807801171E0,-3.752136230E-2,9.610839844E0,-8.696319580E0
4.812836571E0,-4.443359375E-2,9.638549805E0,-8.682205200E0
4.817871972E0,-5.442810059E-2,9.645278931E0,-8.707870483E0
4.822907372E0,-6.646728516E-2,9.635162354E0,-8.736785889E0
4.827942772E0,-2.819824219E-2,9.643096924E0,-8.750961304E0
4.832978173E0,-1.264953613E-2,9.639968872E0,-8.741470337E0
4.838013573E0,-4.257202148E-2,9.621917725E0,-8.719482422E0
4.843048974E0,-5.455017090E-2,9.622177124E0,-8.688293457E0
4.848084374E0,-4.695129395E-2,9.617538452E0,-8.642959595E0
4.853119774E0,-4.226684570E-2,9.620559692E0,-8.639190674E0
4.858155175E0,-4.202270508E-2,9.636138916E0,-8.644195557E0
4.863190575E0,-2.186584473E-2,9.630401611E0,-8.673202515E0
4.868225976E0,-2.259826660E-2,9.654144287E0,-8.692489624E0
4.873261376E0,-4.818725586E-2,9.638412476E0,-8.667922974E0
4.878296776E0,-4.660034180E-2,9.592315674E0,-8.633575439E0
4.883332177E0,-3.810119629E-2,9.597503662E0,-8.669448853E0
4.888367577E0,-1.649475098E-2,9.615112305E0,-8.720230103E0
4.893402977E0,-9.628295898E-3,9.620193481E0,-8.699935913E0
4.898438378E0,-3.009033203E-2,9.635650635E0,-8.670196533E0
4.903473778E0,-1.531982422E-2,9.619567871E0,-8.644485474E0
4.908509179E0,-2.409362793E-2,9.602340698E0,-8.662414551E0
4.913544579E0,-3.207397461E-2,9.630752563E0,-8.661788940E0
4.918579979E0,-2.513122559E-2,9.639541626E0,-8.648208618E0
4.923615380E0,-3.498840332E-2,9.593750000E0,-8.671203613E0
4.928650780E0,-4.563903809E-2,9.622772217E0,-8.699630737E0
4.933686181E0,-2.571105957E-2,9.614318848E0,-8.664596558E0
4.938721581E0,-3.094482422E-2,9.631103516E0,-8.651550293E0
4.943756981E0,-3.193664551E-2,9.619003296E0,-8.648742676E0
4.948792382E0,1.220703125E-3,9.599868774E0,-8.637420654E0
4.953827782E0,5.294799805E-3,9.607315063E0,-8.647583008E0
4.958863183E0,-2.066040039E-2,9.618301392E0,-8.696411133E0
4.963898583E0,-5.021667480E-2,9.604965210E0,-8.680664062E0
4.968933983E0,-3.242492676E-2,9.629989624E0,-8.644470215E0
4.973969384E0,4.959106445E-3,9.607055664E0,-8.652725220E0
4.979004784E0,-1.399230957E-2,9.639724731E0,-8.668853760E0
4.984040185E0,4.501342773E-3,9.646163940E0,-8.690841675E0
4.989075585E0,-3.952026367E-3,9.608108521E0,-8.649612427E0
4.994110985E0,1.831054688E-4,9.593612671E0,-8.601730347E0
4.999146386E0,5.874633789E-3,9.623855591E0,-8.609222412E0
5.004181786E0,8.697509766E-3,9.606384277E0,-8.594482422E0
5.009217186E0,1.110839844E-2,9.628219604E0,-8.609344482E0
5.014252587E0,-2.960205078E-3,9.634826660E0,-8.645446777E0
5.019287987E0,-7.293701172E-3,9.639328003E0,-8.602554321E0
5.024323388E0,2.204895020E-2,9.656860352E0,-8.585250854E0
5.029358788E0,-2.166748047E-3,9.643936157E0,-8.626861572E0
5.034394188E0,-2.044677734E-2,9.633590698E0,-8.625015259E0
5.039429589E0,-1.304626465E-2,9.617340088E0,-8.589111328E0
5.044464989E0,-5.645751953E-3,9.622817993E0,-8.646636963E0
5.049500390E0,8.377075195E-3,9.634567261E0,-8.589462280E0
5.054535790E0,-3.448486328E-2,9.635162354E0,-8.595489502E0
5.059571190E0,-1.327514648E-3,9.632827759E0,-8.612091064E0
5.064606591E0,1.365661621E-2,9.646881104E0,-8.572525024E0
5.069641991E0,2.098083496E-2,9.613739014E0,-8.588699341E0
5.074677392E0,2.098083496E-2,9.618469238E0,-8.524810791E0
5.079712792E0,8.483886719E-3,9.611648560E0,-8.582077026E0
5.084748192E0,-1.481628418E-2,9.622985840E0,-8.602096558E0
5.089783593E0,-1.710510254E-2,9.615402222E0,-8.576919556E0
5.094818993E0,-1.815795898E-2,9.598785400E0,-8.526535034E0
5.099854393E0,-3.439331055E-2,9.592041016E0,-8.527175903E0
5.104889794E0,-8.056640625E-3,9.653045654E0,-8.596298218E0
5.109925194E0,1.150512695E-2,9.635269165E0,-8.578826904E0
5.114960595E0,-9.231567383E-3,9.594543457E0,-8.614669800E0
5.119995995E0,1.052856445E-3,9.612899780E0,-8.572311401E0
5.125031395E0,2.558898926E-2,9.607208252E0,-8.572570801E0
5.130066796E0,-7.583618164E-3,9.611358643E0,-8.560806274E0
5.135102196E0,-6.851196289E-3,9.612457275E0,-8.561218262E0
5.140137597E0,1.235961914E-3,9.615234375E0,-8.537826538E0
5.145172997E0,2.012634277E-2,9.599868774E0,-8.523742676E0
5.150208397E0,2.435302734E-2,9.604537964E0,-8.535629272E0
5.155243798E0,4.701232910E-2,9.614669800E0,-8.547683716E0
5.160279198E0,5.645751953E-4,9.613571167E0,-8.528335571E0
5.165314599E0,-5.798339844E-4,9.640716553E0,-8.551879883E0
5.170349999E0,-4.333496094E-3,9.660522461E0,-8.606109619E0
5.175385399E0,2.926635742E-2,9.614929199E0,-8.569549561E0
5.180420800E0,3.921508789E-3,9.625396729E0,-8.527191162E0
5.185456200E0,-5.935668945E-3,9.644012451E0,-8.536392212E0
5.190491601E0,2.267456055E-2,9.649154663E0,-8.512237549E0
5.195527001E0,1.809692383E-2,9.658172607E0,-8.533508301E0
5.200562401E0,9.948730469E-3,9.639923096E0,-8.544967651E0
5.205597802E0,5.035400391E-4,9.637588501E0,-8.551315308E0
5.210633202E0,-1.637268066E-2,9.635177612E0,-8.556945801E0
5.215668602E0,-1.176452637E-2,9.633255005E0,-8.546203613E0
5.220704003E0,8.865356445E-3,9.626907349E0,-8.538665771E0
5.225739403E0,6.988525391E-3,9.642883301E0,-8.510833740E0
5.230774804E0,1.605224609E-2,9.639862061E0,-8.490631104E0
5.235810204E0,1.481628418E-2,9.623718262E0,-8.583435059E0
5.240845604E0,1.464843750E-2,9.630950928E0,-8.597366333E0
5.245881005E0,1.876831055E-2,9.634140015E0,-8.595916748E0
5.250916405E0,-5.630493164E-3,9.623443604E0,-8.568679810E0
5.255951806E0,-9.155273438E-3,9.631607056E0,-8.542648315E0
5.260987206E0,2.288818359E-4,9.630447388E0,-8.536529541E0
5.266022606E0,5.584716797E-3,9.597229004E0,-8.537277222E0
5.271058007E0,1.570129395E-2,9.615188599E0,-8.571838379E0
5.276093407E0,2.928161621E-2,9.642211914E0,-8.573806763E0
5.281128808E0,1.013183594E-2,9.626693726E0,-8.574615479E0
5.286164208E0,7.202148438E-3,9.616409302E0,-8.583206177E0
5.291199608E0,2.209472656E-2,9.631912231E0,-8.561386108E0
5.296235009E0,1.968383789E-2,9.625976562E0,-8.558654785E0
5.301270409E0,1.727294922E-2,9.612167358E0,-8.567199707E0
5.306305810E0,2.427673340E-2,9.603591919E0,-8.580825806E0
5.311341210E0,3.186035156E-2,9.614547729E0,-8.542755127E0
5.316376610E0,1.464843750E-2,9.607406616E0,-8.591033936E0
5.321412011E0,1.338195801E-2,9.588958740E0,-8.565673828E0
5.326447411E0,2.098083496E-2,9.633361816E0,-8.607437134E0
5.331482811E0,2.441406250E-4,9.650390625E0,-8.652435303E0
5.336518212E0,4.196166992E-3,9.636276245E0,-8.631408691E0
5.341553612E0,1.536560059E-2,9.612838745E0,-8.624404907E0
5.346589013E0,2.093505859E-2,9.628555298E0,-8.633834839E0
5.351624413E0,2.336120605E-2,9.618347168E0,-8.653045654E0
5.356659813E0,5.523681641E-3,9.614700317E0,-8.582290649E0
5.361695214E0,-1.933288574E-2,9.634994507E0,-8.587097168E0
5.366730614E0,1.367187500E-2,9.642303467E0,-8.660781860E0
5.371766015E0,1.853942871E-2,9.614959717E0,-8.673660278E0
5.376801415E0,1.039123535E-2,9.580169678E0,-8.681640625E0
5.381836815E0,2.746582031E-4,9.613113403E0,-8.681015015E0
5.386872216E0,2.410888672E-2,9.626220703E0,-8.632446289E0
5.391907616E0,-1.275634766E-2,9.640243530E0,-8.626388550E0
5.396943017E0,-2.517700195E-3,9.613143921E0,-8.642135620E0
5.401978417E0,2.426147461E-3,9.623046875E0,-8.664657593E0
5.407013817E0,1.525878906E-5,9.631835938E0,-8.705978394E0
5.412049218E0,-4.425048828E-4,9.638565063E0,-8.672378540E0
5.417084618E0,5.043029785E-2,9.608612061E0,-8.652694702E0
5.422120018E0,-1.220703125E-4,9.611755371E0,-8.716125488E0
5.427155419E0,-2.593994141E-4,9.601638794E0,-8.664642334E0
5.432190819E0,-3.895568848E-2,9.617843628E0,-8.708160400E0
5.437226220E0,-3.315734863E-2,9.625045776E0,-8.665069580E0
5.442261620E0,1.678466797E-4,9.623535156E0,-8.632461548E0
5.447297020E0,-4.211425781E-3,9.629653931E0,-8.693115234E0
5.452332421E0,-4.411315918E-2,9.589324951E0,-8.720016479E0
5.457367821E0,-6.439208984E-3,9.631164551E0,-8.684753418E0
5.462403222E0,1.271057129E-2,9.615173340E0,-8.690399170E0
5.467438622E0,9.338378906E-3,9.636215210E0,-8.697799683E0
5.472474022E0,-3.648376465E-2,9.614761353E0,-8.734634399E0
5.477509423E0,1.914978027E-2,9.636810303E0,-8.694747925E0
5.482544823E0,6.958007812E-3,9.646881104E0,-8.681747437E0
5.487580224E0,-5.065917969E-3,9.595321655E0,-8.700332642E0
5.492615624E0,1.145935059E-2,9.632781982E0,-8.664871216E0
5.497651024E0,-1.000976562E-2,9.648864746E0,-8.627822876E0
5.502686425E0,-1.304626465E-2,9.618438721E0,-8.685195923E0
5.507721825E0,-4.109191895E-2,9.616378784E0,-8.735305786E0
5.512757226E0,-4.463195801E-2,9.623260498E0,-8.707290649E0
5.517792626E0,-2.526855469E-2,9.622817993E0,-8.654571533E0
5.522828026E0,-4.003906250E-2,9.617507935E0,-8.678970337E0
5.527863427E0,-2.635192871E-2,9.637603760E0,-8.680450439E0
5.532898827E0,3.326416016E-3,9.660675049E0,-8.721481323E0
5.537934227E0,1.200866699E-2,9.631195068E0,-8.736816406E0
5.542969628E0,-1.953125000E-2,9.618499756E0,-8.722869873E0
5.548005028E0,-5.401611328E-3,9.618499756E0,-8.727203369E0
5.553040429E0,-2.012634277E-2,9.616744995E0,-8.706085205E0
5.558075829E0,-6.561279297E-3,9.608871460E0,-8.656478882E0
5.563111229E0,1.235961914E-3,9.616790771E0,-8.669845581E0
5.568146630E0,-4.804992676E-2,9.596191406E0,-8.703140259E0
5.573182030E0,-4.292297363E-2,9.593704224E0,-8.686416626E0
5.578217431E0,-2.833557129E-2,9.605911255E0,-8.665176392E0
5.583252831E0,-3.915405273E-2,9.634597778E0,-8.696578979E0
5.588288231E0,8.514404297E-3,9.631683350E0,-8.682189941E0
5.593323632E0,4.943847656E-3,9.584365845E0,-8.620407104E0
5.598359032E0,-9.597778320E-3,9.615447998E0,-8.679519653E0
5.603394433E0,-3.991699219E-2,9.617263794E0,-8.661758423E0
5.608429833E0,-3.926086426E-2,9.633911133E0,-8.689575195E0
5.613465233E0,-1.963806152E-2,9.609115601E0,-8.691970825E0
5.618500634E0,-4.328918457E-2,9.617538452E0,-8.678939819E0
5.623536034E0,-3.883361816E-2,9.592468262E0,-8.665283203E0
5.628571435E0,-2.514648438E-2,9.619155884E0,-8.618209839E0
5.633606835E0,-3.639221191E-2,9.620758057E0,-8.629455566E0
5.638642235E0,-5.926513672E-2,9.618484497E0,-8.664276123E0
5.643677636E0,-3.742980957E-2,9.650299072E0,-8.649673462E0
5.648713036E0,-2.578735352E-2,9.643798828E0,-8.658630371E0
5.653748436E0,-5.111694336E-3,9.628555298E0,-8.649124146E0
5.658783837E0,-2.474975586E-2,9.612350464E0,-8.660079956E0
5.663819237E0,-1.962280273E-2,9.605026245E0,-8.647964478E0
5.668854638E0,-2.963256836E-2,9.621246338E0,-8.604110718E0
5.673890038E0,-2.246093750E-2,9.607177734E0,-8.616409302E0
5.678925438E0,-1.283264160E-2,9.611145020E0,-8.637161255E0
5.683960839E0,-3.652954102E-2,9.646865845E0,-8.608932495E0
5.688996239E0,-5.868530273E-2,9.643585205E0,-8.581710815E0
5.694031640E0,-5.313110352E-2,9.618698120E0,-8.593978882E0
5.699067040E0,-5.853271484E-2,9.631256104E0,-8.598434448E0
5.704102440E0,-6.947326660E-2,9.636260986E0,-8.588699341E0
5.709137841E0,-4.870605469E-2,9.623260498E0,-8.602111816E0
5.714173241E0,-5.400085449E-2,9.623260498E0,-8.627563477E0
5.719208642E0,-4.597473145E-2,9.636108398E0,-8.624359131E0
5.724244042E0,-6.130981445E-2,9.660202026E0,-8.593032837E0
5.729279442E0,-7.313537598E-2,9.662796021E0,-8.587234497E0
5.734314843E0,-5.757141113E-2,9.645599365E0,-8.611297607E0
5.739350243E0,-5.197143555E-2,9.648757935E0,-8.615982056E0
5.744385643E0,-3.099060059E-2,9.645202637E0,-8.587356567E0
5.749421044E0,-3.540039062E-2,9.625976562E0,-8.574920654E0
5.754456444E0,-4.714965820E-2,9.630294800E0,-8.609237671E0
5.759491845E0,-3.001403809E-2,9.649566650E0,-8.606597900E0
5.764527245E0,-4.881286621E-2,9.618011475E0,-8.596542358E0
5.769562645E0,-8.197021484E-2,9.614318848E0,-8.577835083E0
5.774598046E0,-5.906677246E-2,9.612106323E0,-8.572036743E0
5.779633446E0,-6.437683105E-2,9.621185303E0,-8.597106934E0
5.784668847E0,-4.783630371E-2,9.613159180E0,-8.594528198E0
5.789704247E0,-5.630493164E-2,9.626739502E0,-8.583648682E0
5.794739647E0,-3.567504883E-2,9.624908447E0,-8.569595337E0
5.799775048E0,-5.552673340E-2,9.633041382E0,-8.556198120E0
5.804810448E0,-7.946777344E-2,9.637542725E0,-8.572418213E0
5.809845849E0,-5.502319336E-2,9.610595703E0,-8.536056519E0
5.814881249E0,-5.656433105E-2,9.625411987E0,-8.534744263E0
5.819916649E0,-5.259704590E-2,9.640136719E0,-8.533187866E0
5.824952050E0,-6.736755371E-2,9.631011963E0,-8.574813843E0
5.829987450E0,-8.137512207E-2,9.647033691E0,-8.597717285E0
5.835022851E0,-9.532165527E-2,9.632537842E0,-8.558181763E0
5.840058251E0,-4.129028320E-2,9.649536133E0,-8.565841675E0
5.845093651E0,-5.484008789E-2,9.634338379E0,-8.527938843E0
5.850129052E0,-6.198120117E-2,9.616287231E0,-8.509582520E0
5.855164452E0,-6.437683105E-2,9.642349243E0,-8.534332275E0
5.860199852E0,-5.435180664E-2,9.615951538E0,-8.530410767E0
5.865235253E0,-6.333923340E-2,9.602935791E0,-8.573348999E0
5.870270653E0,-6.259155273E-2,9.616760254E0,-8.551452637E0
5.875306054E0,-6.233215332E-2,9.635681152E0,-8.543930054E0
5.880341454E0,-7.104492188E-2,9.617950439E0,-8.545639038E0
5.885376854E0,-5.189514160E-2,9.605010986E0,-8.590225220E0
5.890412255E0,-7.278442383E-2,9.637741089E0,-8.504043579E0
5.895447655E0,-5.160522461E-2,9.619537354E0,-8.527664185E0
5.900483056E0,-4.125976562E-2,9.593276978E0,-8.542938232E0
5.905518456E0,-7.574462891E-2,9.596954346E0,-8.548110962E0
5.910553856E0,-5.781555176E-2,9.582962036E0,-8.557632446E0
5.915589257E0,-9.089660645E-2,9.611358643E0,-8.572036743E0
5.920624657E0,-3.204345703E-2,9.626098633E0,-8.536666870E0
5.925660058E0,-8.346557617E-2,9.663253784E0,-8.564361572E0
5.930695458E0,-7.264709473E-2,9.645019531E0,-8.543029785E0
5.935730858E0,-9.246826172E-2,9.650222778E0,-8.532852173E0
5.940766259E0,-7.676696777E-2,9.578079224E0,-8.556289673E0
5.945801659E0,-7.691955566E-2,9.650253296E0,-8.534286499E0
5.950837060E0,-5.252075195E-2,9.630767822E0,-8.537368774E0
5.955872460E0,-7.267761230E-2,9.635375977E0,-8.526428223E0
5.960907860E0,-3.849792480E-2,9.637786865E0,-8.564682007E0
5.965943261E0,-7.955932617E-2,9.639358521E0,-8.532028198E0
5.970978661E0,-8.375549316E-2,9.639144897E0,-8.599151611E0
5.976014061E0,-7.603454590E-2,9.659378052E0,-8.550827026E0
5.981049462E0,-3.442382812E-2,9.623184204E0,-8.605072021E0
5.986084862E0,-6.138610840E-2,9.640930176E0,-8.577529907E0
5.991120263E0,-3.990173340E-2,9.602737427E0,-8.578582764E0
5.996155663E0,-2.787780762E-2,9.643539429E0,-8.567153931E0
6.001191063E0,-4.763793945E-2,9.655578613E0,-8.585952759E0
6.006226464E0,-5.961608887E-2,9.644332886E0,-8.604644775E0
6.011261864E0,-4.632568359E-2,9.643707275E0,-8.555130005E0
6.016297265E0,-6.924438477E-2,9.620071411E0,-8.607498169E0
6.021332665E0,-7.675170898E-2,9.632186890E0,-8.624359131E0
6.026368065E0,-5.581665039E-2,9.628555298E0,-8.620498657E0
6.031403466E0,-5.050659180E-2,9.636749268E0,-8.599609375E0
6.036438866E0,-2.937316895E-2,9.665176392E0,-8.624450684E0
6.041474267E0,-3.196716309E-2,9.641174316E0,-8.616699219E0
6.046509667E0,-4.386901855E-2,9.629852295E0,-8.631881714E0
6.051545067E0,-3.736877441E-2,9.632369995E0,-8.644958496E0
6.056580468E0,-5.757141113E-2,9.649444580E0,-8.642684937E0
6.061615868E0,-6.233215332E-2,9.644683838E0,-8.601287842E0
6.066651268E0,-6.233215332E-2,9.642135620E0,-8.558715820E0
6.071686669E0,-7.460021973E-2,9.624389648E0,-8.607345581E0
6.076722069E0,-7.586669922E-2,9.606323242E0,-8.650634766E0
6.081757470E0,-5.618286133E-2,9.613739014E0,-8.679046631E0
6.086792870E0,-5.859375000E-2,9.626068115E0,-8.698684692E0
6.091828270E0,-5.403137207E-2,9.647628784E0,-8.664062500E0
6.096863671E0,-7.496643066E-2,9.649780273E0,-8.612899780E0
6.101899071E0,-7.240295410E-2,9.631500244E0,-8.619064331E0
6.106934472E0,-6.826782227E-2,9.601760864E0,-8.651077271E0
6.111969872E0,-5.096435547E-2,9.619491577E0,-8.680862427E0
6.117005272E0,-7.232666016E-2,9.651947021E0,-8.708496094E0
6.122040673E0,-6.652832031E-2,9.635589600E0,-8.678436279E0
6.127076073E0,-3.503417969E-2,9.630340576E0,-8.683776855E0
6.132111474E0,-5.213928223E-2,9.622940063E0,-8.712600708E0
6.137146874E0,-7.279968262E-2,9.610321045E0,-8.660034180E0
6.142182274E0,-5.693054199E-2,9.608642578E0,-8.618057251E0
6.147217675E0,-5.715942383E-2,9.600311279E0,-8.660354614E0
6.152253075E0,-6.205749512E-2,9.590423584E0,-8.694259644E0
6.157288476E0,-5.451965332E-2,9.615051270E0,-8.691055298E0
6.162323876E0,-2.148437500E-2,9.649948120E0,-8.675628662E0
6.167359276E0,-2.148437500E-2,9.642135620E0,-8.658401489E0
6.172394677E0,-3.614807129E-2,9.604629517E0,-8.683502197E0
6.177430077E0,-4.783630371E-2,9.600692749E0,-8.693649292E0
6.182465477E0,-5.220031738E-2,9.614959717E0,-8.638320923E0
6.187500878E0,-4.586791992E-2,9.621536255E0,-8.663452148E0
6.192536278E0,-5.413818359E-2,9.626342773E0,-8.668655396E0
6.197571679E0,-5.207824707E-2,9.609085083E0,-8.672683716E0
6.202607079E0,-4.324340820E-2,9.621932983E0,-8.742568970E0
6.207642479E0,-4.908752441E-2,9.632781982E0,-8.698379517E0
6.212677880E0,-2.784729004E-2,9.627777100E0,-8.686508179E0
6.217713280E0,-4.910278320E-2,9.613845825E0,-8.704223633E0
6.222748681E0,-3.500366211E-2,9.643142700E0,-8.682083130E0
6.227784081E0,-6.248474121E-2,9.667007446E0,-8.663314819E0
6.232819481E0,-6.602478027E-2,9.631988525E0,-8.697204590E0
6.237854882E0,-4.975891113E-2,9.638244629E0,-8.719070435E0
6.242890282E0,-5.480957031E-2,9.610000610E0,-8.690963745E0
6.247925683E0,-3.903198242E-2,9.627273560E0,-8.690795898E0
6.252961083E0,-5.073547363E-2,9.635162354E0,-8.672698975E0
6.257996483E0,-6.475830078E-2,9.619857788E0,-8.671066284E0
6.263031884E0,-3.990173340E-2,9.621932983E0,-8.705017090E0
6.268067284E0,-5.151367188E-2,9.654800415E0,-8.675018311E0
6.273102685E0,-4.919433594E-2,9.619323730E0,-8.665237427E0
6.278138085E0,-3.384399414E-2,9.611358643E0,-8.675018311E0
6.283173485E0,-5.595397949E-2,9.599075317E0,-8.697235107E0
6.288208886E0,-3.742980957E-2,9.619598389E0,-8.639114380E0
6.293244286E0,-2.537536621E-2,9.658935547E0,-8.669052124E0
6.298279686E0,-2.424621582E-2,9.604019165E0,-8.674392700E0
6.303315087E0,-2.857971191E-2,9.588424683E0,-8.715454102E0
6.308350487E0,-3.996276855E-2,9.646697998E0,-8.686752319E0
6.313385888E0,-9.841918945E-3,9.645156860E0,-8.675033569E0
6.318421288E0,-2.333068848E-2,9.637924194E0,-8.705871582E0
6.323456688E0,-2.653503418E-2,9.655761719E0,-8.678100586E0
6.328492089E0,-5.892944336E-2,9.628890991E0,-8.614471436E0
6.333527489E0,-1.789855957E-2,9.611663818E0,-8.645202637E0
6.338562890E0,1.837158203E-2,9.635009766E0,-8.676574707E0
6.343598290E0,-1.928710938E-2,9.585220337E0,-8.695678711E0
6.348633690E0,1.365661621E-2,9.595123291E0,-8.674209595E0
6.353669091E0,4.196166992E-3,9.618499756E0,-8.663696289E0
6.358704491E0,-1.235961914E-3,9.619461060E0,-8.617172241E0
6.363739892E0,-2.043151855E-2,9.642715454E0,-8.618927002E0
6.368775292E0,2.853393555E-3,9.611007690E0,-8.687347412E0
6.373810692E0,-2.072143555E-2,9.641952515E0,-8.666015625E0
6.378846093E0,-3.553771973E-2,9.638763428E0,-8.646286011E0
6.383881493E0,-2.807617188E-2,9.651580811E0,-8.606201172E0
6.388916893E0,-1.634216309E-2,9.642868042E0,-8.654312134E0
6.393952294E0,6.149291992E-3,9.594314575E0,-8.621231079E0
6.398987694E0,-1.506042480E-2,9.631088257E0,-8.588623047E0
6.404023095E0,-1.571655273E-2,9.660140991E0,-8.629013062E0
6.409058495E0,-1.063537598E-2,9.630187988E0,-8.605148315E0
6.414093895E0,-2.175903320E-2,9.651763916E0,-8.629165649E0
6.419129296E0,2.777099609E-3,9.631393433E0,-8.615951538E0
6.424164696E0,2.487182617E-3,9.602584839E0,-8.571258545E0
6.429200097E0,-5.844116211E-3,9.639251709E0,-8.624954224E0
6.434235497E0,1.687622070E-2,9.621551514E0,-8.584609985E0
6.439270897E0,-2.479553223E-2,9.633316040E0,-8.591506958E0
6.444306298E0,-2.037048340E-2,9.627182007E0,-8.579071045E0
6.449341698E0,1.159667969E-2,9.592788696E0,-8.588119507E0
6.454377099E0,3.501892090E-2,9.583999634E0,-8.594085693E0
6.459412499E0,3.906250000E-3,9.628173828E0,-8.583999634E0
6.464447899E0,8.392333984E-3,9.620910645E0,-8.567398071E0
6.469483300E0,1.599121094E-2,9.642791748E0,-8.590805054E0
6.474518700E0,2.572631836E-2,9.653442383E0,-8.550598145E0
6.479554101E0,4.196166992E-3,9.638015747E0,-8.519775391E0
6.484589501E0,2.668762207E-2,9.651672363E0,-8.523788452E0
6.489624901E0,3.359985352E-2,9.633010864E0,-8.547271729E0
6.494660302E0,7.308959961E-3,9.635406494E0,-8.554870605E0
6.499695702E0,9.399414062E-3,9.625930786E0,-8.544433594E0
6.504731102E0,-1.457214355E-2,9.635910034E0,-8.511169434E0
6.509766503E0,6.607055664E-3,9.647521973E0,-8.542068481E0
6.514801903E0,3.787231445E-2,9.648895264E0,-8.548629761E0
6.519837304E0,-8.697509766E-4,9.635742188E0,-8.566864014E0
6.524872704E0,-2.935791016E-2,9.607925415E0,-8.535614014E0
6.529908104E0,-1.716613770E-2,9.598068237E0,-8.496749878E0
6.534943505E0,-1.168823242E-2,9.601623535E0,-8.488708496E0
6.539978905E0,-5.035400391E-4,9.625656128E0,-8.509704590E0
6.545014306E0,1.409912109E-2,9.662658691E0,-8.498931885E0
6.550049706E0,9.033203125E-3,9.635589600E0,-8.507232666E0
6.555085106E0,6.713867188E-4,9.634109497E0,-8.550689697E0
6.560120507E0,5.981445312E-3,9.651672363E0,-8.547714233E0
6.565155907E0,4.653930664E-3,9.615661621E0,-8.545379639E0
6.570191308E0,1.701354980E-2,9.581115723E0,-8.529479980E0
6.575226708E0,2.555847168E-2,9.588790894E0,-8.506698608E0
6.580262108E0,1.248168945E-2,9.618255615E0,-8.518508911E0
6.585297509E0,1.008605957E-2,9.617767334E0,-8.537719727E0
6.590332909E0,4.959106445E-3,9.640853882E0,-8.517059326E0
6.595368310E0,2.159118652E-2,9.663284302E0,-8.504287720E0
6.600403710E0,1.197814941E-2,9.656982422E0,-8.527587891E0
6.605439110E0,-1.023864746E-2,9.630508423E0,-8.534255981E0
6.610474511E0,7.827758789E-3,9.649200439E0,-8.533065796E0
6.615509911E0,-1.429748535E-2,9.636276245E0,-8.540069580E0
6.620545311E0,6.851196289E-3,9.635681152E0,-8.538772583E0
6.625580712E0,4.243469238E-2,9.633529663E0,-8.552246094E0
6.630616112E0,2.243041992E-3,9.658996582E0,-8.573181152E0
6.635651513E0,1.194763184E-2,9.648422241E0,-8.537811279E0
6.640686913E0,8.941650391E-3,9.622421265E0,-8.563323975E0
6.645722313E0,3.631591797E-3,9.617813110E0,-8.513198853E0
6.650757714E0,2.516174316E-2,9.658462524E0,-8.564529419E0
6.655793114E0,-1.130676270E-2,9.643203735E0,-8.588150024E0
6.660828515E0,2.105712891E-3,9.657928467E0,-8.570144653E0
6.665863915E0,-3.158569336E-3,9.653320312E0,-8.555755615E0
6.670899315E0,-2.243041992E-2,9.632751465E0,-8.591934204E0
6.675934716E0,-2.662658691E-2,9.612945557E0,-8.535156250E0
6.680970116E0,-3.677368164E-3,9.624267578E0,-8.559371948E0
6.686005517E0,-9.719848633E-3,9.622192383E0,-8.602661133E0
6.691040917E0,-6.439208984E-3,9.595245361E0,-8.568710327E0
6.696076317E0,2.679443359E-2,9.621932983E0,-8.578140259E0
6.701111718E0,1.663208008E-2,9.642227173E0,-8.618087769E0
6.706147118E0,-4.882812500E-4,9.640579224E0,-8.620300293E0
6.711182518E0,-6.973266602E-3,9.617111206E0,-8.588531494E0
6.716217919E0,-5.493164062E-3,9.620040894E0,-8.581832886E0
6.721253319E0,-2.236938477E-2,9.638031006E0,-8.618026733E0
6.726288720E0,8.178710938E-3,9.663711548E0,-8.598220825E0
6.731324120E0,1.802062988E-2,9.635437012E0,-8.644027710E0
6.736359520E0,-8.041381836E-3,9.634994507E0,-8.648208618E0
6.741394921E0,-7.720947266E-3,9.610412598E0,-8.621215820E0
6.746430321E0,-9.872436523E-3,9.608978271E0,-8.631027222E0
6.751465722E0,2.001953125E-2,9.625122070E0,-8.629226685E0
6.756501122E0,1.863098145E-2,9.602264404E0,-8.594116211E0
6.761536522E0,-2.635192871E-2,9.668075562E0,-8.588714600E0
6.766571923E0,-1.937866211E-2,9.623260498E0,-8.586486816E0
6.771607323E0,-1.373291016E-4,9.623947144E0,-8.615219116E0
6.776642724E0,1.446533203E-2,9.659362793E0,-8.634216309E0
6.781678124E0,-3.958129883E-2,9.598709106E0,-8.644866943E0
6.786713524E0,-9.841918945E-3,9.635284424E0,-8.677551270E0
6.791748925E0,-7.919311523E-3,9.636245728E0,-8.688796997E0
6.796784325E0,-1.480102539E-2,9.618865967E0,-8.659606934E0
6.801819726E0,-3.880310059E-2,9.624893188E0,-8.679275513E0
6.806855126E0,5.538940430E-3,9.638534546E0,-8.657699585E0
6.811890526E0,-2.415466309E-2,9.606414795E0,-8.679702759E0
6.816925927E0,-2.578735352E-3,9.620330811E0,-8.677780151E0
6.821961327E0,1.460266113E-2,9.603622437E0,-8.640991211E0
6.826996727E0,1.068115234E-4,9.634246826E0,-8.685241699E0
6.832032128E0,-1.704406738E-2,9.653533936E0,-8.680282593E0
6.837067528E0,1.686096191E-2,9.634658813E0,-8.686691284E0
6.842102929E0,-8.682250977E-3,9.621322632E0,-8.680572510E0
6.847138329E0,-2.864074707E-2,9.619979858E0,-8.654235840E0
6.852173729E0,-7.583618164E-3,9.615524292E0,-8.686187744E0
6.857209130E0,-1.022338867E-2,9.643661499E0,-8.667297363E0
6.862244530E0,-1.283264160E-2,9.623809814E0,-8.647232056E0
6.867279931E0,2.059936523E-3,9.623886108E0,-8.681121826E0
6.872315331E0,-1.887512207E-2,9.619720459E0,-8.664688110E0
6.877350731E0,-1.390075684E-2,9.628387451E0,-8.705978394E0
6.882386132E0,-9.246826172E-3,9.638259888E0,-8.702331543E0
6.887421532E0,-3.140258789E-2,9.616806030E0,-8.685165405E0
6.892456933E0,-4.624938965E-2,9.602188110E0,-8.687591553E0
6.897492333E0,-1.916503906E-2,9.629653931E0,-8.686599731E0
6.902527733E0,-2.745056152E-2,9.618606567E0,-8.646408081E0
6.907563134E0,-2.505493164E-2,9.605072021E0,-8.675094604E0
6.912598534E0,-3.163146973E-2,9.609451294E0,-8.666641235E0
6.917633935E0,-3.833007812E-2,9.606552124E0,-8.651977539E0
6.922669335E0,-4.000854492E-2,9.610778809E0,-8.631195068E0
6.927704735E0,-4.118347168E-2,9.611221313E0,-8.678222656E0
6.932740136E0,-2.088928223E-2,9.621688843E0,-8.713485718E0
6.937775536E0,-2.702331543E-2,9.588531494E0,-8.726196289E0
6.942810936E0,-4.603576660E-2,9.607055664E0,-8.701843262E0
6.947846337E0,-3.811645508E-2,9.623138428E0,-8.697189331E0
6.952881737E0,-2.287292480E-2,9.614791870E0,-8.703292847E0
6.957917138E0,-1.345825195E-2,9.616119385E0,-8.686508179E0
6.962952538E0,-1.472473145E-2,9.645553589E0,-8.706222534E0
6.967987938E0,-2.511596680E-2,9.652618408E0,-8.684783936E0
6.973023339E0,-2.551269531E-2,9.614990234E0,-8.680175781E0
6.978058739E0,-1.231384277E-2,9.610275269E0,-8.667755127E0
6.983094140E0,-4.844665527E-2,9.626037598E0,-8.656356812E0
6.988129540E0,-5.708312988E-2,9.637695312E0,-8.682952881E0
6.993164940E0,-3.897094727E-2,9.629516602E0,-8.678482056E0
6.998200341E0,-4.595947266E-2,9.632827759E0,-8.641433716E0
7.003235741E0,-1.817321777E-2,9.615127563E0,-8.675659180E0
7.008271142E0,-1.510620117E-2,9.597457886E0,-8.711288452E0
7.013306542E0,-2.192687988E-2,9.612197876E0,-8.685501099E0
7.018341942E0,-3.157043457E-2,9.612197876E0,-8.696578979E0
7.023377343E0,-2.616882324E-2,9.596267700E0,-8.687393188E0
7.028412743E0,-2.613830566E-2,9.601959229E0,-8.638916016E0
7.033448143E0,-5.285644531E-2,9.619705200E0,-8.627304077E0
7.038483544E0,-6.002807617E-2,9.610000610E0,-8.636230469E0
7.043518944E0,-4.017639160E-2,9.619232178E0,-8.632354736E0
7.048554345E0,-4.594421387E-2,9.610229492E0,-8.632385254E0
7.053589745E0,-4.789733887E-2,9.611663818E0,-8.632278442E0
7.058625145E0,-7.231140137E-2,9.651077271E0,-8.654846191E0
7.063660546E0,-7.867431641E-2,9.669494629E0,-8.627593994E0
7.068695946E0,-9.902954102E-2,9.638122559E0,-8.605606079E0
7.073731347E0,-3.923034668E-2,9.601104736E0,-8.578445435E0
7.078766747E0,-6.851196289E-2,9.606643677E0,-8.596542358E0
7.083802147E0,-3.897094727E-2,9.624053955E0,-8.668853760E0
7.088837548E0,-1.136779785E-2,9.622497559E0,-8.583786011E0
7.093872948E0,-3.562927246E-2,9.650787354E0,-8.638977051E0
7.098908349E0,-5.657958984E-2,9.628585815E0,-8.590347290E0
7.103943749E0,-2.526855469E-2,9.645935059E0,-8.543121338E0
7.108979149E0,-3.863525391E-2,9.634201050E0,-8.567626953E0
7.114014550E0,-5.520629883E-2,9.642303467E0,-8.596252441E0
7.119049950E0,-4.750061035E-2,9.612426758E0,-8.610671997E0
7.124085351E0,-5.180358887E-2,9.629074097E0,-8.565475464E0
7.129120751E0,-5.696105957E-2,9.641067505E0,-8.561889648E0
7.134156151E0,-7.019042969E-2,9.644393921E0,-8.602462769E0
7.139191552E0,-6.973266602E-2,9.666000366E0,-8.592803955E0
7.144226952E0,-5.003356934E-2,9.638214111E0,-8.606201172E0
7.149262352E0,-3.491210938E-2,9.661437988E0,-8.557357788E0
7.154297753E0,-5.152893066E-2,9.606002808E0,-8.561859131E0
7.159333153E0,-5.506896973E-2,9.622070312E0,-8.573745728E0
7.164368554E0,-6.425476074E-2,9.602874756E0,-8.556289673E0
7.169403954E0,-5.549621582E-2,9.666427612E0,-8.589965820E0
7.174439354E0,-7.377624512E-2,9.626678467E0,-8.618942261E0
7.179474755E0,-4.602050781E-2,9.632690430E0,-8.520889282E0
7.184510155E0,-3.376770020E-2,9.628021240E0,-8.576797485E0
7.189545556E0,-3.912353516E-2,9.590835571E0,-8.578796387E0
7.194580956E0,-8.497619629E-2,9.663314819E0,-8.548049927E0
7.199616356E0,-4.051208496E-2,9.647064209E0,-8.540710449E0
7.204651757E0,-1.022186279E-1,9.647171021E0,-8.531051636E0
7.209687157E0,-8.856201172E-2,9.649291992E0,-8.564788818E0
7.214722558E0,-5.316162109E-2,9.645141602E0,-8.528015137E0
7.219757958E0,-5.911254883E-2,9.621643066E0,-8.543075562E0
7.224793358E0,-7.543945312E-2,9.628280640E0,-8.544342041E0
7.229828759E0,-6.527709961E-2,9.612274170E0,-8.591415405E0
7.234864159E0,-6.568908691E-2,9.638122559E0,-8.544311523E0
7.239899560E0,-4.238891602E-2,9.637802124E0,-8.466567993E0
7.244934960E0,-6.814575195E-2,9.613525391E0,-8.575164795E0
7.249970360E0,-6.741333008E-2,9.635742188E0,-8.528976440E0
7.255005761E0,-3.179931641E-2,9.621093750E0,-8.548080444E0
7.260041161E0,-4.078674316E-2,9.662704468E0,-8.530120850E0
7.265076561E0,-7.325744629E-2,9.672607422E0,-8.556762695E0
7.270111962E0,-8.099365234E-2,9.605804443E0,-8.563995361E0
7.275147362E0,-8.120727539E-2,9.616165161E0,-8.573303223E0
7.280182763E0,-5.574035645E-2,9.610321045E0,-8.583053589E0
7.285218163E0,-5.816650391E-2,9.645889282E0,-8.579620361E0
7.290253563E0,-6.240844727E-2,9.640457153E0,-8.579666138E0
7.295288964E0,-7.783508301E-2,9.630661011E0,-8.520233154E0
7.300324364E0,-8.908081055E-2,9.617828369E0,-8.539749146E0
7.305359765E0,-5.995178223E-2,9.601013184E0,-8.552795410E0
7.310395165E0,-6.138610840E-2,9.587356567E0,-8.579849243E0
7.315430565E0,-6.622314453E-2,9.640045166E0,-8.557968140E0
7.320465966E0,-6.712341309E-2,9.623397827E0,-8.581527710E0
7.325501366E0,-5.831909180E-2,9.611495972E0,-8.587112427E0
7.330536767E0,-6.208801270E-2,9.635986328E0,-8.579528809E0
7.335572167E0,-7.427978516E-2,9.642700195E0,-8.553894043E0
7.340607567E0,-5.757141113E-2,9.642913818E0,-8.545837402E0
7.345642968E0,-6.498718262E-2,9.637268066E0,-8.555892944E0
7.350678368E0,-6.991577148E-2,9.649902344E0,-8.577896118E0
7.355713768E0,-6.680297852E-2,9.642166138E0,-8.594329834E0
7.360749169E0,-6.352233887E-2,9.624069214E0,-8.551788330E0
7.365784569E0,-5.708312988E-2,9.631774902E0,-8.530838013E0
7.370819970E0,-5.587768555E-2,9.637878418E0,-8.558776855E0
7.375855370E0,-4.710388184E-2,9.630874634E0,-8.611358643E0
7.380890770E0,-6.221008301E-2,9.657699585E0,-8.633529663E0
7.385926171E0,-7.626342773E-2,9.649734497E0,-8.601837158E0
7.390961571E0,-8.497619629E-2,9.650558472E0,-8.562500000E0
7.395996972E0,-6.320190430E-2,9.634674072E0,-8.591552734E0
7.401032372E0,-3.326416016E-2,9.626342773E0,-8.616012573E0
7.406067772E0,-4.473876953E-2,9.634674072E0,-8.621231079E0
7.411103173E0,-4.522705078E-2,9.633209229E0,-8.624176025E0
7.416138573E0,-1.705932617E-2,9.630889893E0,-8.586135864E0
7.421173974E0,-3.747558594E-2,9.621551514E0,-8.586273193E0
7.426209374E0,-4.064941406E-2,9.650207520E0,-8.609115601E0
7.431244774E0,-4.205322266E-2,9.643798828E0,-8.604507446E0
7.436280175E0,-5.569458008E-2,9.624694824E0,-8.591949463E0
7.441315575E0,-6.198120117E-2,9.638824463E0,-8.628829956E0
7.446350976E0,-5.281066895E-2,9.635147095E0,-8.595764160E0
7.451386376E0,-5.326843262E-2,9.617385864E0,-8.605682373E0
7.456421776E0,-3.746032715E-2,9.608261108E0,-8.605224609E0
7.461457177E0,-3.924560547E-2,9.631820679E0,-8.617889404E0
7.466492577E0,-7.800292969E-2,9.646286011E0,-8.625076294E0
7.471527977E0,-8.836364746E-2,9.619171143E0,-8.582656860E0
7.476563378E0,-6.449890137E-2,9.619903564E0,-8.604843140E0
7.481598778E0,-6.367492676E-2,9.606994629E0,-8.611846924E0
7.486634179E0,-8.261108398E-2,9.614959717E0,-8.619796753E0
7.491669579E0,-6.748962402E-2,9.617370605E0,-8.685729980E0
7.496704979E0,-6.530761719E-2,9.633926392E0,-8.650695801E0
7.501740380E0,-5.099487305E-2,9.630966187E0,-8.620803833E0
7.506775780E0,-6.401062012E-2,9.639007568E0,-8.637420654E0
7.511811181E0,-6.387329102E-2,9.610519409E0,-8.684570312E0
7.516846581E0,-3.765869141E-2,9.636001587E0,-8.678726196E0
7.521881981E0,-3.332519531E-2,9.613830566E0,-8.668609619E0
7.526917382E0,-6.900024414E-2,9.659423828E0,-8.684860229E0
7.531952782E0,-7.264709473E-2,9.613265991E0,-8.627105713E0
7.536988183E0,-6.782531738E-2,9.601837158E0,-8.717651367E0
7.542023583E0,-5.484008789E-2,9.642715454E0,-8.703567505E0
7.547058983E0,-1.756286621E-2,9.632843018E0,-8.648422241E0
7.552094384E0,-2.917480469E-2,9.617782593E0,-8.634750366E0
7.557129784E0,-4.632568359E-2,9.637435913E0,-8.672302246E0
7.562165185E0,-6.318664551E-2,9.624786377E0,-8.719985962E0
7.567200585E0,-7.786560059E-2,9.610107422E0,-8.680557251E0
7.572235985E0,-6.346130371E-2,9.655578613E0,-8.645690918E0
7.577271386E0,-3.775024414E-2,9.656723022E0,-8.701553345E0
7.582306786E0,-4.071044922E-2,9.597366333E0,-8.737213135E0
7.587342186E0,-3.399658203E-2,9.587768555E0,-8.664825439E0
7.592377587E0,-5.467224121E-2,9.638641357E0,-8.650878906E0
7.597412987E0,-5.284118652E-2,9.621109009E0,-8.669387817E0
7.602448388E0,-1.948547363E-2,9.666107178E0,-8.643447876E0
7.607483788E0,-6.428527832E-2,9.609207153E0,-8.693801880E0
7.612519188E0,-2.919006348E-2,9.627548218E0,-8.723190308E0
7.617554589E0,-3.656005859E-2,9.610900879E0,-8.676254272E0
7.622589989E0,-4.521179199E-2,9.653259277E0,-8.663574219E0
7.627625390E0,-3.703308105E-2,9.637344360E0,-8.644668579E0
7.632660790E0,-4.780578613E-2,9.668228149E0,-8.735046387E0
7.637696190E0,-1.472473145E-2,9.634338379E0,-8.717773438E0
7.642731591E0,-1.379394531E-2,9.623992920E0,-8.700286865E0
7.647766991E0,-6.256103516E-3,9.611602783E0,-8.713043213E0
7.652802392E0,-1.794433594E-2,9.631027222E0,-8.659805298E0
7.657837792E0,-3.866577148E-2,9.615921021E0,-8.667358398E0
7.662873192E0,-2.145385742E-2,9.601898193E0,-8.720367432E0
7.667908593E0,-5.966186523E-3,9.615737915E0,-8.680252075E0
7.672943993E0,-1.324462891E-2,9.613739014E0,-8.730148315E0
7.677979393E0,-2.204895020E-2,9.617645264E0,-8.706665039E0
7.683014794E0,-4.882812500E-4,9.634704590E0,-8.728881836E0
7.688050194E0,-4.438781738E-2,9.630294800E0,-8.691818237E0
7.693085595E0,-4.759216309E-2,9.622970581E0,-8.642578125E0
7.698120995E0,-1.455688477E-2,9.629287720E0,-8.673797607E0
7.703156395E0,-1.213073730E-2,9.630783081E0,-8.643051147E0
7.708191796E0,2.746582031E-3,9.637298584E0,-8.626785278E0
7.713227196E0,-4.078674316E-2,9.623413086E0,-8.627410889E0
7.718262597E0,-3.443908691E-2,9.649917603E0,-8.623901367E0
7.723297997E0,-2.311706543E-2,9.622650146E0,-8.615600586E0
7.728333397E0,-1.663208008E-3,9.642532349E0,-8.641326904E0
7.733368798E0,-8.651733398E-3,9.633789062E0,-8.661376953E0
7.738404198E0,2.343750000E-2,9.630340576E0,-8.645004272E0
7.743439599E0,-6.195068359E-3,9.621444702E0,-8.639358521E0
7.748474999E0,-2.033996582E-2,9.599319458E0,-8.628677368E0
7.753510399E0,9.933471680E-3,9.631668091E0,-8.648818970E0
7.758545800E0,1.768493652E-2,9.641403198E0,-8.657135010E0
7.763581200E0,1.522827148E-2,9.641754150E0,-8.639923096E0
7.768616601E0,4.882812500E-4,9.643722534E0,-8.648605347E0
7.773652001E0,-5.599975586E-3,9.628601074E0,-8.660980225E0
7.778687401E0,-2.966308594E-2,9.597885132E0,-8.616424561E0
7.783722802E0,-2.548217773E-2,9.593154907E0,-8.631088257E0
7.788758202E0,-8.331298828E-3,9.625778198E0,-8.639450073E0
7.793793602E0,-1.359558105E-2,9.636291504E0,-8.602218628E0
7.798829003E0,-1.777648926E-2,9.636611938E0,-8.604629517E0
7.803864403E0,-1.774597168E-2,9.631408691E0,-8.608367920E0
7.808899804E0,-1.737976074E-2,9.598419189E0,-8.624359131E0
7.813935204E0,-2.101135254E-2,9.589935303E0,-8.597686768E0
7.818970604E0,-3.784179688E-3,9.576278687E0,-8.603164673E0
7.824006005E0,6.515502930E-3,9.620910645E0,-8.588180542E0
7.829041405E0,-4.608154297E-3,9.635986328E0,-8.576644897E0
7.834076806E0,-7.019042969E-4,9.619735718E0,-8.591400146E0
7.839112206E0,-3.103637695E-2,9.653228760E0,-8.608108521E0
7.844147606E0,-7.522583008E-3,9.664001465E0,-8.622665405E0
7.849183007E0,1.591491699E-2,9.622512817E0,-8.578979492E0
7.854218407E0,1.876831055E-3,9.622985840E0,-8.572204590E0
7.859253808E0,1.475524902E-2,9.632583618E0,-8.574584961E0
7.864289208E0,1.530456543E-2,9.638442993E0,-8.561309814E0
7.869324608E0,2.880859375E-2,9.631011963E0,-8.577484131E0
7.874360009E0,2.299499512E-2,9.632537842E0,-8.613464355E0
7.879395409E0,2.960205078E-2,9.635955811E0,-8.574737549E0
7.884430810E0,5.508422852E-3,9.630340576E0,-8.548233032E0
7.889466210E0,-1.800537109E-3,9.623107910E0,-8.522048950E0
7.894501610E0,-1.304626465E-2,9.655838013E0,-8.500152588E0
7.899537011E0,2.285766602E-2,9.647140503E0,-8.553451538E0
7.904572411E0,1.933288574E-2,9.632369995E0,-8.559555054E0
7.909607811E0,-2.563476562E-3,9.607620239E0,-8.588027954E0
7.914643212E0,-9.368896484E-3,9.620834351E0,-8.589904785E0
7.919678612E0,3.167724609E-2,9.622573853E0,-8.562774658E0
7.924714013E0,3.005981445E-2,9.701828003E0,-8.546173096E0
7.929749413E0,-9.567260742E-3,9.623428345E0,-8.562042236E0
7.934784813E0,3.250122070E-3,9.625015259E0,-8.529357910E0
7.939820214E0,-4.333496094E-3,9.648101807E0,-8.563720703E0
7.944855614E0,-1.345825195E-2,9.628372192E0,-8.570495605E0
7.949891015E0,6.988525391E-3,9.631149292E0,-8.569656372E0
7.954926415E0,4.747009277E-2,9.618774414E0,-8.561645508E0
7.959961815E0,2.790832520E-2,9.632354736E0,-8.558090210E0
7.964997216E0,-1.165771484E-2,9.602203369E0,-8.557754517E0
7.970032616E0,-4.577636719E-3,9.617950439E0,-8.566101074E0
7.975068017E0,1.199340820E-2,9.642044067E0,-8.516448975E0
7.980103417E0,-1.837158203E-2,9.625350952E0,-8.544479370E0
7.985138817E0,1.077270508E-2,9.625427246E0,-8.563461304E0
7.990174218E0,5.004882812E-3,9.599166870E0,-8.604583740E0
7.995209618E0,-4.623413086E-3,9.594833374E0,-8.542938232E0
8.000245018E0,-5.203247070E-3,9.601486206E0,-8.536437988E0
8.005280419E0,1.663208008E-3,9.629348755E0,-8.545501709E0
8.010315819E0,1.121520996E-2,9.644332886E0,-8.582992554E0
8.015351220E0,6.744384766E-3,9.630569458E0,-8.515747070E0
8.020386620E0,3.050231934E-2,9.613739014E0,-8.536331177E0
8.025422020E0,3.263854980E-2,9.608978271E0,-8.527130127E0
8.030457421E0,1.307678223E-2,9.609024048E0,-8.552047729E0
8.035492821E0,-1.641845703E-2,9.611526489E0,-8.516220093E0
8.040528222E0,1.464843750E-3,9.618103027E0,-8.552703857E0
8.045563622E0,-6.423950195E-3,9.652786255E0,-8.591110229E0
8.050599022E0,1.023864746E-2,9.596603394E0,-8.558151245E0
8.055634423E0,-5.966186523E-3,9.623535156E0,-8.593460083E0
8.060669823E0,-1.119995117E-2,9.650894165E0,-8.591247559E0
8.065705224E0,1.969909668E-2,9.617187500E0,-8.564163208E0
8.070740624E0,-8.026123047E-3,9.610748291E0,-8.532974243E0
8.075776024E0,4.852294922E-3,9.637390137E0,-8.628707886E0
8.080811425E0,-5.233764648E-3,9.605560303E0,-8.585388184E0
8.085846825E0,1.199340820E-2,9.622131348E0,-8.539611816E0
8.090882226E0,1.904296875E-2,9.663742065E0,-8.558929443E0
8.095917626E0,-2.366638184E-2,9.647964478E0,-8.575057983E0
8.100953026E0,-7.263183594E-3,9.674285889E0,-8.614318848E0
8.105988427E0,5.035400391E-4,9.627059937E0,-8.583923340E0
8.111023827E0,-1.278686523E-2,9.629104614E0,-8.586624146E0
8.116059227E0,-3.509521484E-4,9.649658203E0,-8.561203003E0
8.121094628E0,9.948730469E-3,9.643997192E0,-8.565460205E0
8.126130028E0,-3.387451172E-3,9.651824951E0,-8.582229614E0
8.131165429E0,1.245117188E-2,9.646392822E0,-8.620498657E0
8.136200829E0,1.046752930E-2,9.607406616E0,-8.614807129E0
8.141236229E0,1.914978027E-2,9.604614258E0,-8.651306152E0
8.146271630E0,-5.432128906E-3,9.618957520E0,-8.644821167E0
8.151307030E0,2.142333984E-2,9.621627808E0,-8.614593506E0
8.156342431E0,1.055908203E-2,9.631744385E0,-8.652114868E0
8.161377831E0,-1.802062988E-2,9.600997925E0,-8.638000488E0
8.166413231E0,2.243041992E-3,9.613739014E0,-8.616058350E0
8.171448632E0,-1.037597656E-2,9.612030029E0,-8.630889893E0
8.176484032E0,5.828857422E-3,9.603713989E0,-8.622131348E0
8.181519433E0,-2.151489258E-2,9.599243164E0,-8.641418457E0
8.186554833E0,-6.729125977E-3,9.609420776E0,-8.650543213E0
8.191590233E0,2.319335938E-3,9.618545532E0,-8.655792236E0
8.196625634E0,-6.591796875E-3,9.623641968E0,-8.648986816E0
8.201661034E0,-1.133728027E-2,9.638244629E0,-8.655700684E0
8.206696435E0,-7.934570312E-3,9.648727417E0,-8.641510010E0
8.211731835E0,-2.680969238E-2,9.621963501E0,-8.624588013E0
8.216767235E0,-4.934692383E-2,9.605636597E0,-8.655014038E0
8.221802636E0,-2.900695801E-2,9.621200562E0,-8.624786377E0
8.226838036E0,-3.247070312E-2,9.618057251E0,-8.663635254E0
8.231873436E0,-2.439880371E-2,9.604064941E0,-8.695251465E0
8.236908837E0,-2.084350586E-2,9.597930908E0,-8.678588867E0
8.241944237E0,-1.402282715E-2,9.594146729E0,-8.675003052E0
8.246979638E0,-3.749084473E-2,9.597656250E0,-8.661499023E0
8.252015038E0,-2.528381348E-2,9.612030029E0,-8.688247681E0
8.257050438E0,-7.156372070E-3,9.625076294E0,-8.697143555E0
8.262085839E0,-2.050781250E-2,9.641250610E0,-8.652008057E0
8.267121239E0,-2.503967285E-2,9.628829956E0,-8.653320312E0
8.272156640E0,-4.460144043E-2,9.608978271E0,-8.660736084E0
8.277192040E0,-5.375671387E-2,9.619094849E0,-8.680007935E0
8.282227440E0,-4.397583008E-2,9.647750854E0,-8.710891724E0
8.287262841E0,-5.657958984E-2,9.649307251E0,-8.751831055E0
8.292298241E0,-8.396911621E-2,9.649963379E0,-8.696853638E0
8.297333642E0,-4.640197754E-2,9.669830322E0,-8.650650024E0
8.302369042E0,-3.460693359E-2,9.628662109E0,-8.652969360E0
8.307404442E0,-4.252624512E-2,9.599380493E0,-8.655349731E0
8.312439843E0,-4.002380371E-2,9.613418579E0,-8.674972534E0
8.317475243E0,-1.689147949E-2,9.642517090E0,-8.705551147E0
8.322510643E0,-3.808593750E-2,9.643341064E0,-8.655563354E0
8.327546044E0,-3.837585449E-2,9.615783691E0,-8.712524414E0
8.332581444E0,-3.799438477E-3,9.622451782E0,-8.711685181E0
8.337616845E0,-1.293945312E-2,9.635162354E0,-8.673797607E0
8.342652245E0,-6.114196777E-2,9.633911133E0,-8.681167603E0
8.347687645E0,-1.904296875E-2,9.625411987E0,-8.667892456E0
8.352723046E0,-3.460693359E-2,9.604553223E0,-8.701736450E0
8.357758446E0,-3.570556641E-2,9.626022339E0,-8.653625488E0
8.362793847E0,-2.606201172E-2,9.619277954E0,-8.659881592E0
8.367829247E0,-6.535339355E-2,9.610244751E0,-8.660949707E0
8.372864647E0,-3.054809570E-2,9.660614014E0,-8.683929443E0
8.377900048E0,-3.396606445E-2,9.662796021E0,-8.680603027E0
8.382935448E0,-4.228210449E-2,9.636810303E0,-8.660751343E0
8.387970849E0,-1.426696777E-2,9.638992310E0,-8.649429321E0
8.393006249E0,-4.571533203E-2,9.616790771E0,-8.702880859E0
8.398041649E0,-3.137207031E-2,9.647644043E0,-8.652877808E0
8.403077050E0,-4.190063477E-2,9.613174438E0,-8.688751221E0
8.408112450E0,-4.328918457E-2,9.613327026E0,-8.630325317E0
8.413147851E0,-4.765319824E-2,9.642044067E0,-8.663604736E0
8.418183251E0,-5.029296875E-2,9.620117188E0,-8.615890503E0
8.423218651E0,-7.093811035E-2,9.638992310E0,-8.626159668E0
8.428254052E0,-2.369689941E-2,9.676605225E0,-8.693283081E0
8.433289452E0,-4.974365234E-2,9.638534546E0,-8.656341553E0
8.438324852E0,-7.159423828E-2,9.621078491E0,-8.636535645E0
8.443360253E0,-5.043029785E-2,9.630401611E0,-8.629165649E0
8.448395653E0,-3.385925293E-2,9.637298584E0,-8.643203735E0
8.453431054E0,-4.109191895E-2,9.618255615E0,-8.624694824E0
8.458466454E0,-4.814147949E-2,9.609939575E0,-8.635955811E0
8.463501854E0,-5.009460449E-2,9.634109497E0,-8.628417969E0
8.468537255E0,-4.490661621E-2,9.616210938E0,-8.657043457E0
8.473572655E0,-6.755065918E-2,9.654205322E0,-8.610290527E0
8.478608056E0,-4.370117188E-2,9.651748657E0,-8.610458374E0
8.483643456E0,-5.203247070E-2,9.626800537E0,-8.592895508E0
8.488678856E0,-8.142089844E-2,9.635437012E0,-8.625762939E0
8.493714257E0,-2.717590332E-2,9.622573853E0,-8.580627441E0
8.498749657E0,-4.998779297E-2,9.647323608E0,-8.594604492E0
8.503785058E0,-6.442260742E-2,9.615707397E0,-8.617599487E0
8.508820458E0,-7.661437988E-2,9.602020264E0,-8.615234375E0
8.513855858E0,-6.930541992E-2,9.620986938E0,-8.591888428E0
8.518891259E0,-3.080749512E-2,9.651458740E0,-8.600921631E0
8.523926659E0,-2.299499512E-2,9.675064087E0,-8.620773315E0
8.528962060E0,-4.949951172E-2,9.635543823E0,-8.603912354E0
8.533997460E0,-5.418395996E-2,9.614593506E0,-8.593612671E0
8.539032860E0,-3.848266602E-2,9.626998901E0,-8.580596924E0
8.544068261E0,-8.514404297E-3,9.602355957E0,-8.587646484E0
8.549103661E0,-5.229187012E-2,9.614349365E0,-8.579223633E0
8.554139061E0,-7.484436035E-2,9.632049561E0,-8.584503174E0
8.559174462E0,-4.920959473E-2,9.659866333E0,-8.546600342E0
8.564209862E0,-6.335449219E-2,9.667800903E0,-8.602844238E0
8.569245263E0,-5.924987793E-2,9.654647827E0,-8.568695068E0
8.574280663E0,-5.459594727E-2,9.633224487E0,-8.579483032E0
8.579316063E0,-5.114746094E-2,9.633071899E0,-8.594284058E0
8.584351464E0,-4.954528809E-2,9.615402222E0,-8.588668823E0
8.589386864E0,-3.210449219E-2,9.628845215E0,-8.584762573E0
8.594422265E0,-5.142211914E-2,9.643310547E0,-8.590621948E0
8.599457665E0,-7.397460938E-2,9.651840210E0,-8.582183838E0
8.604493065E0,-6.776428223E-2,9.615127563E0,-8.577453613E0
8.609528466E0,-8.003234863E-2,9.613677979E0,-8.589721680E0
8.614563866E0,-5.734252930E-2,9.643264771E0,-8.560226440E0
8.619599267E0,-7.920837402E-2,9.656585693E0,-8.549392700E0
8.624634667E0,-7.081604004E-2,9.664047241E0,-8.526458740E0
8.629670067E0,-7.159423828E-2,9.637008667E0,-8.509078979E0
8.634705468E0,-8.934020996E-2,9.626113892E0,-8.527496338E0
8.639740868E0,-7.345581055E-2,9.637374878E0,-8.560302734E0
8.644776268E0,-6.027221680E-2,9.628524780E0,-8.558074951E0
8.649811669E0,-5.865478516E-2,9.616119385E0,-8.590850830E0
8.654847069E0,-5.993652344E-2,9.630477905E0,-8.585006714E0
8.659882470E0,-6.010437012E-2,9.629959106E0,-8.534149170E0
8.664917870E0,-6.346130371E-2,9.641235352E0,-8.516815186E0
8.669953270E0,-6.233215332E-2,9.647018433E0,-8.578018188E0
8.674988671E0,-6.233215332E-2,9.620941162E0,-8.581527710E0
8.680024071E0,-7.308959961E-2,9.608657837E0,-8.554641724E0
8.685059472E0,-7.177734375E-2,9.623062134E0,-8.572845459E0
8.690094872E0,-6.471252441E-2,9.642166138E0,-8.585327148E0
8.695130272E0,-7.186889648E-2,9.644195557E0,-8.579162598E0
8.700165673E0,-7.078552246E-2,9.627685547E0,-8.548126221E0
8.705201073E0,-7.156372070E-2,9.619979858E0,-8.524108887E0
8.710236474E0,-6.665039062E-2,9.620880127E0,-8.551559448E0
8.715271874E0,-5.625915527E-2,9.611755371E0,-8.542282104E0
8.720307274E0,-6.687927246E-2,9.634704590E0,-8.537734985E0
8.725342675E0,-6.306457520E-2,9.623886108E0,-8.529098511E0
8.730378075E0,-5.595397949E-2,9.619461060E0,-8.557708740E0
8.735413476E0,-6.179809570E-2,9.621597290E0,-8.562850952E0
8.740448876E0,-7.312011719E-2,9.644378662E0,-8.564468384E0
8.745484276E0,-5.612182617E-2,9.643951416E0,-8.584350586E0
8.750519677E0,-7.933044434E-2,9.599945068E0,-8.596282959E0
8.755555077E0,-5.380249023E-2,9.609909058E0,-8.584075928E0
8.760590477E0,-3.732299805E-2,9.643646240E0,-8.537857056E0
8.765625878E0,-3.614807129E-2,9.659118652E0,-8.590133667E0
8.770661278E0,-5.654907227E-2,9.642791748E0,-8.606399536E0
8.775696679E0,-6.045532227E-2,9.646957397E0,-8.588394165E0
8.780732079E0,-5.039978027E-2,9.609268188E0,-8.576278687E0
8.785767479E0,-5.776977539E-2,9.595565796E0,-8.580230713E0
8.790802880E0,-8.755493164E-2,9.626235962E0,-8.638717651E0
8.795838280E0,-6.544494629E-2,9.620849609E0,-8.590927124E0
8.800873681E0,-4.383850098E-2,9.656784058E0,-8.603347778E0
8.805909081E0,-7.157897949E-2,9.657592773E0,-8.581161499E0
8.810944481E0,-5.784606934E-2,9.631546021E0,-8.547576904E0
8.815979882E0,-4.257202148E-2,9.642745972E0,-8.604492188E0
8.821015282E0,-3.239440918E-2,9.623352051E0,-8.550659180E0
8.826050683E0,-8.110046387E-2,9.636001587E0,-8.599655151E0
8.831086083E0,-5.766296387E-2,9.641921997E0,-8.587829590E0
8.836121483E0,-7.739257812E-2,9.626754761E0,-8.626266479E0
8.841156884E0,-5.876159668E-2,9.618881226E0,-8.665145874E0
8.846192284E0,-4.391479492E-2,9.597991943E0,-8.576126099E0
8.851227685E0,-3.407287598E-2,9.627059937E0,-8.608947754E0
8.856263085E0,-3.376770020E-2,9.609313965E0,-8.612457275E0
8.861298485E0,-5.258178711E-2,9.630126953E0,-8.640716553E0
8.866333886E0,-2.424621582E-2,9.616119385E0,-8.636306763E0
8.871369286E0,-2.455139160E-2,9.624755859E0,-8.622283936E0
8.876404686E0,-4.208374023E-2,9.579666138E0,-8.636764526E0
8.881440087E0,-8.818054199E-2,9.643630981E0,-8.653854370E0
8.886475487E0,-7.841491699E-2,9.616455078E0,-8.615112305E0
8.891510888E0,-6.724548340E-2,9.623687744E0,-8.621826172E0
8.896546288E0,-6.843566895E-2,9.629516602E0,-8.656738281E0
8.901581688E0,-5.355834961E-2,9.619110107E0,-8.672348022E0
8.906617089E0,-3.825378418E-2,9.626800537E0,-8.650115967E0
8.911652489E0,-5.574035645E-2,9.636749268E0,-8.641082764E0
8.916687890E0,-4.061889648E-2,9.627761841E0,-8.615539551E0
8.921723290E0,-3.918457031E-2,9.609298706E0,-8.700836182E0
8.926758690E0,-4.679870605E-2,9.616256714E0,-8.663940430E0
8.931794091E0,-7.051086426E-2,9.645050049E0,-8.622192383E0
8.936829491E0,-8.403015137E-2,9.645828247E0,-8.651062012E0
8.941864892E0,-6.101989746E-2,9.637283325E0,-8.663986206E0
8.946900292E0,-5.752563477E-2,9.628417969E0,-8.661499023E0
8.951935692E0,-6.517028809E-2,9.644256592E0,-8.674468994E0
8.956971093E0,-6.066894531E-2,9.657745361E0,-8.690612793E0
8.962006493E0,-6.469726562E-2,9.642471313E0,-8.643615723E0
8.967041893E0,-3.579711914E-2,9.635162354E0,-8.658508301E0
8.972077294E0,-2.188110352E-2,9.637542725E0,-8.724349976E0
8.977112694E0,-3.089904785E-2,9.635879517E0,-8.695648193E0
8.982148095E0,-3.681945801E-2,9.625152588E0,-8.659286499E0
8.987183495E0,-3.442382812E-2,9.651733398E0,-8.668945312E0
8.992218895E0,-2.282714844E-2,9.633026123E0,-8.662948608E0
8.997254296E0,-3.439331055E-2,9.636489868E0,-8.657424927E0
9.002289696E0,-5.316162109E-2,9.620819092E0,-8.684265137E0
9.007325097E0,-2.505493164E-2,9.620819092E0,-8.710769653E0
9.012360497E0,-2.081298828E-2,9.620513916E0,-8.701751709E0
9.017395897E0,-9.124755859E-3,9.638381958E0,-8.692550659E0
9.022431298E0,-4.989624023E-3,9.630386353E0,-8.673339844E0
9.027466698E0,1.132202148E-2,9.606491089E0,-8.709991455E0
9.032502099E0,1.086425781E-2,9.615249634E0,-8.690719604E0
9.037537499E0,-2.046203613E-2,9.631546021E0,-8.694656372E0
9.042572899E0,-3.288269043E-2,9.609970093E0,-8.693191528E0
9.047608300E0,-3.776550293E-2,9.624725342E0,-8.665252686E0
9.052643700E0,-1.365661621E-2,9.626403809E0,-8.655044556E0
9.057679101E0,-1.341247559E-2,9.616317749E0,-8.636077881E0
9.062714501E0,-1.679992676E-2,9.628021240E0,-8.653106689E0
9.067749901E0,-1.536560059E-2,9.606369019E0,-8.670761108E0
9.072785302E0,-3.251647949E-2,9.601470947E0,-8.676681519E0
9.077820702E0,-1.084899902E-2,9.614852905E0,-8.680328369E0
9.082856102E0,1.495361328E-3,9.612670898E0,-8.705047607E0
9.087891503E0,-8.712768555E-3,9.621139526E0,-8.687683105E0
9.092926903E0,-1.159667969E-3,9.619201660E0,-8.663436890E0
9.097962304E0,-1.014709473E-2,9.625564575E0,-8.671752930E0
9.102997704E0,-8.438110352E-3,9.613662720E0,-8.699188232E0
9.108033104E0,8.789062500E-3,9.605300903E0,-8.700027466E0
9.113068505E0,5.416870117E-3,9.623962402E0,-8.681106567E0
9.118103905E0,5.279541016E-3,9.632781982E0,-8.657684326E0
9.123139306E0,2.075195312E-2,9.618164062E0,-8.634674072E0
9.128174706E0,-9.124755859E-3,9.649185181E0,-8.639587402E0
9.133210106E0,-3.291320801E-2,9.639831543E0,-8.653411865E0
9.138245507E0,-4.364013672E-3,9.656478882E0,-8.660812378E0
9.143280907E0,-1.220703125E-2,9.629882812E0,-8.621475220E0
9.148316308E0,3.051757812E-3,9.609802246E0,-8.642364502E0
9.153351708E0,-9.963989258E-3,9.644058228E0,-8.582336426E0
9.158387108E0,1.475524902E-2,9.633987427E0,-8.607437134E0
9.163422509E0,8.468627930E-3,9.592758179E0,-8.652557373E0
9.168457909E0,-1.251220703E-2,9.597640991E0,-8.627365112E0
9.173493310E0,-1.010131836E-2,9.611221313E0,-8.618377686E0
9.178528710E0,-1.293945312E-2,9.629760742E0,-8.630325317E0
9.183564110E0,-2.136230469E-3,9.651351929E0,-8.588928223E0
9.188599511E0,1.287841797E-2,9.629196167E0,-8.557983398E0
9.193634911E0,1.373291016E-3,9.628295898E0,-8.627166748E0
9.198670311E0,1.422119141E-2,9.626602173E0,-8.627349854E0
9.203705712E0,-4.655456543E-2,9.612228394E0,-8.589447021E0
9.208741112E0,-2.737426758E-2,9.632278442E0,-8.602920532E0
9.213776513E0,2.584838867E-2,9.604019165E0,-8.629425049E0
9.218811913E0,1.324462891E-2,9.625076294E0,-8.637924194E0
9.223847313E0,9.078979492E-3,9.640548706E0,-8.675216675E0
9.228882714E0,-3.651428223E-2,9.611221313E0,-8.625595093E0
9.233918114E0,2.149963379E-2,9.629577637E0,-8.587997437E0
9.238953515E0,1.991271973E-2,9.632781982E0,-8.590286255E0
9.243988915E0,-9.307861328E-3,9.639221191E0,-8.612533569E0
9.249024315E0,2.883911133E-3,9.626861572E0,-8.597473145E0
9.254059716E0,2.195739746E-2,9.643280029E0,-8.580398560E0
9.259095116E0,-5.691528320E-3,9.613403320E0,-8.572463989E0
9.264130517E0,-7.934570312E-4,9.627197266E0,-8.605987549E0
9.269165917E0,-1.649475098E-2,9.595916748E0,-8.603149414E0
9.274201317E0,-2.639770508E-2,9.606292725E0,-8.593688965E0
9.279236718E0,-7.781982422E-4,9.674774170E0,-8.591094971E0
9.284272118E0,1.145935059E-2,9.620880127E0,-8.595840454E0
9.289307518E0,-2.896118164E-2,9.620819092E0,-8.607086182E0
9.294342919E0,-2.401733398E-2,9.617218018E0,-8.556243896E0
9.299378319E0,-1.333618164E-2,9.661254883E0,-8.590545654E0
9.304413720E0,2.183532715E-2,9.657089233E0,-8.575500488E0
9.309449120E0,-6.134033203E-3,9.621459961E0,-8.550308228E0
9.314484520E0,1.475524902E-2,9.633621216E0,-8.545196533E0
9.319519921E0,-5.813598633E-3,9.673187256E0,-8.541549683E0
9.324555321E0,-1.312255859E-2,9.622985840E0,-8.592453003E0
9.329590722E0,-1.715087891E-2,9.645568848E0,-8.528045654E0
9.334626122E0,2.557373047E-2,9.635269165E0,-8.543701172E0
9.339661522E0,3.749084473E-2,9.652969360E0,-8.577255249E0
9.344696923E0,5.325317383E-3,9.642318726E0,-8.544189453E0
9.349732323E0,8.163452148E-3,9.629837036E0,-8.523681641E0
9.354767724E0,-6.423950195E-3,9.638336182E0,-8.552551270E0
9.359803124E0,1.103210449E-2,9.628280640E0,-8.581649780E0
9.364838524E0,3.189086914E-3,9.617584229E0,-8.550628662E0
9.369873925E0,-2.525329590E-2,9.615661621E0,-8.509658813E0
9.374909325E0,-2.882385254E-2,9.617126465E0,-8.520538330E0
9.379944726E0,3.982543945E-3,9.605499268E0,-8.571594238E0
9.384980126E0,-2.365112305E-3,9.645141602E0,-8.581756592E0
9.390015526E0,-1.127624512E-2,9.648208618E0,-8.572052002E0
9.395050927E0,-5.342102051E-2,9.630401611E0,-8.572494507E0
9.400086327E0,-7.415771484E-3,9.629730225E0,-8.534606934E0
9.405121727E0,2.226257324E-2,9.623901367E0,-8.541122437E0
9.410157128E0,1.051330566E-2,9.613021851E0,-8.544403076E0
9.415192528E0,2.825927734E-2,9.620285034E0,-8.525909424E0
9.420227929E0,1.174926758E-2,9.640686035E0,-8.538467407E0
9.425263329E0,-1.797485352E-2,9.612579346E0,-8.562561035E0
9.430298729E0,-2.239990234E-2,9.579040527E0,-8.557144165E0
9.435334130E0,-2.786254883E-2,9.627334595E0,-8.524063110E0
9.440369530E0,-4.402160645E-2,9.633056641E0,-8.502502441E0
9.445404931E0,-1.710510254E-2,9.644775391E0,-8.517791748E0
9.450440331E0,-2.899169922E-4,9.636947632E0,-8.551559448E0
9.455475731E0,3.344726562E-2,9.606597900E0,-8.535644531E0
9.460511132E0,2.392578125E-2,9.614532471E0,-8.564682007E0
9.465546532E0,-9.323120117E-3,9.618438721E0,-8.562896729E0
9.470581933E0,-1.579284668E-2,9.628036499E0,-8.560119629E0
9.475617333E0,-1.278686523E-2,9.637771606E0,-8.589294434E0
9.480652733E0,4.623413086E-3,9.620880127E0,-8.622024536E0
9.485688134E0,9.475708008E-3,9.620880127E0,-8.602981567E0
9.490723534E0,-8.621215820E-3,9.633728027E0,-8.634521484E0
9.495758935E0,-9.933471680E-3,9.644668579E0,-8.633712769E0
9.500794335E0,6.988525391E-3,9.631256104E0,-8.574829102E0
9.505829735E0,1.622009277E-2,9.630920410E0,-8.543075562E0
9.510865136E0,-1.785278320E-3,9.648910522E0,-8.604431152E0
9.515900536E0,-6.591796875E-3,9.644744873E0,-8.609909058E0
9.520935936E0,4.623413086E-3,9.631118774E0,-8.618316650E0
9.525971337E0,1.080322266E-2,9.625274658E0,-8.634384155E0
9.531006737E0,-8.605957031E-3,9.613433838E0,-8.625671387E0
9.536042138E0,-1.136779785E-2,9.605163574E0,-8.611495972E0
9.541077538E0,9.155273438E-5,9.627578735E0,-8.646408081E0
9.546112938E0,-1.879882812E-2,9.633407593E0,-8.667877197E0
9.551148339E0,-2.688598633E-2,9.626510620E0,-8.654968262E0
9.556183739E0,-2.655029297E-3,9.613296509E0,-8.658294678E0
9.561219140E0,2.005004883E-2,9.620697021E0,-8.623291016E0
9.566254540E0,8.224487305E-3,9.621643066E0,-8.618896484E0
9.571289940E0,-1.504516602E-2,9.634704590E0,-8.649475098E0
9.576325341E0,-1.197814941E-2,9.622497559E0,-8.666702271E0
9.581360741E0,-2.102661133E-2,9.617095947E0,-8.651153564E0
9.586396142E0,-3.866577148E-2,9.637405396E0,-8.645156860E0
9.591431542E0,-1.716613770E-2,9.627258301E0,-8.640594482E0
9.596466942E0,-2.879333496E-2,9.633239746E0,-8.666946411E0
9.601502343E0,-1.818847656E-2,9.637542725E0,-8.655212402E0
9.606537743E0,-3.608703613E-2,9.613800049E0,-8.679229736E0
9.611573143E0,-4.701232910E-2,9.626983643E0,-8.653427124E0
9.616608544E0,-3.109741211E-2,9.627120972E0,-8.669815063E0
9.621643944E0,-2.088928223E-2,9.589279175E0,-8.644241333E0
9.626679345E0,-2.140808105E-2,9.614944458E0,-8.645889282E0
9.631714745E0,-4.743957520E-2,9.619323730E0,-8.638366699E0
9.636750145E0,-3.681945801E-2,9.630493164E0,-8.608291626E0
9.641785546E0,-1.144409180E-2,9.636840820E0,-8.665893555E0
9.646820946E0,-1.994323730E-2,9.641647339E0,-8.635589600E0
9.651856347E0,-3.231811523E-2,9.625595093E0,-8.666748047E0
9.656891747E0,-3.588867188E-2,9.608428955E0,-8.636001587E0
9.661927147E0,-6.620788574E-2,9.608734131E0,-8.665878296E0
9.666962548E0,-3.683471680E-2,9.624206543E0,-8.713150024E0
9.671997948E0,-6.024169922E-2,9.610198975E0,-8.662109375E0
9.677033349E0,-7.351684570E-2,9.635787964E0,-8.682296753E0
9.682068749E0,-2.897644043E-2,9.648849487E0,-8.677108765E0
9.687104149E0,-1.976013184E-2,9.594406128E0,-8.711151123E0
9.692139550E0,-7.949829102E-3,9.610763550E0,-8.673233032E0
9.697174950E0,-4.029846191E-2,9.618362427E0,-8.636962891E0
9.702210351E0,-5.274963379E-2,9.585372925E0,-8.659957886E0
9.707245751E0,-2.436828613E-2,9.623229980E0,-8.613311768E0
9.712281151E0,-3.416442871E-2,9.620651245E0,-8.680282593E0
9.717316552E0,-5.387878418E-2,9.609268188E0,-8.739212036E0
9.722351952E0,-1.438903809E-2,9.619827271E0,-8.679687500E0
9.727387352E0,-5.877685547E-2,9.648773193E0,-8.639724731E0
9.732422753E0,-4.031372070E-2,9.638015747E0,-8.656921387E0
9.737458153E0,-6.228637695E-2,9.643051147E0,-8.652725220E0
9.742493554E0,-3.572082520E-2,9.625198364E0,-8.725433350E0
9.747528954E0,-3.164672852E-2,9.621368408E0,-8.709747314E0
9.752564354E0,-3.349304199E-2,9.626464844E0,-8.687393188E0
9.757599755E0,-2.894592285E-2,9.632156372E0,-8.693054199E0
9.762635155E0,-1.673889160E-2,9.630722046E0,-8.668640137E0
9.767670556E0,-4.895019531E-2,9.641769409E0,-8.636184692E0
9.772705956E0,-7.269287109E-2,9.620040894E0,-8.644256592E0
9.777741356E0,-4.431152344E-2,9.648422241E0,-8.629486084E0
9.782776757E0,-5.181884766E-2,9.630966187E0,-8.649337769E0
9.787812157E0,-2.096557617E-2,9.624694824E0,-8.629104614E0
9.792847558E0,-3.207397461E-2,9.631408691E0,-8.608581543E0
9.797882958E0,-2.035522461E-2,9.638397217E0,-8.601348877E0
9.802918358E0,-3.196716309E-2,9.645446777E0,-8.614624023E0
9.807953759E0,-4.994201660E-2,9.626190186E0,-8.670196533E0
9.812989159E0,-8.422851562E-2,9.613494873E0,-8.650192261E0
9.818024560E0,-3.187561035E-2,9.634094238E0,-8.649536133E0
9.823059960E0,-1.353454590E-2,9.631362915E0,-8.685791016E0
9.828095360E0,-5.686950684E-2,9.611816406E0,-8.650588989E0
9.833130761E0,-5.818176270E-2,9.604064941E0,-8.642669678E0
9.838166161E0,-6.317138672E-2,9.618255615E0,-8.605712891E0
9.843201561E0,-6.236267090E-2,9.629501343E0,-8.649093628E0
9.848236962E0,-5.877685547E-2,9.613739014E0,-8.666534424E0
9.853272362E0,-5.191040039E-2,9.621490479E0,-8.638610840E0
9.858307763E0,-7.244873047E-2,9.630706787E0,-8.618667603E0
9.863343163E0,-6.849670410E-2,9.618652344E0,-8.654678345E0
9.868378563E0,-4.804992676E-2,9.611358643E0,-8.617736816E0
9.873413964E0,-4.219055176E-2,9.620162964E0,-8.612915039E0
9.878449364E0,-4.083251953E-2,9.624710083E0,-8.628250122E0
9.883484765E0,-4.525756836E-2,9.613739014E0,-8.658142090E0
9.888520165E0,-5.665588379E-2,9.633987427E0,-8.635009766E0
9.893555565E0,-4.943847656E-2,9.635955811E0,-8.588363647E0
9.898590966E0,-3.497314453E-2,9.611221313E0,-8.580169678E0
9.903626366E0,-4.026794434E-2,9.617187500E0,-8.601242065E0
9.908661767E0,-4.656982422E-2,9.610290527E0,-8.627868652E0
9.913697167E0,-6.584167480E-2,9.594635010E0,-8.600158691E0
9.918732567E0,-6.736755371E-2,9.598556519E0,-8.600662231E0
9.923767968E0,-5.276489258E-2,9.629333496E0,-8.622543335E0
9.928803368E0,-3.376770020E-2,9.645614624E0,-8.621429443E0
9.933838768E0,-5.459594727E-2,9.616271973E0,-8.594024658E0
9.938874169E0,-7.723999023E-2,9.612152100E0,-8.599822998E0
9.943909569E0,-8.137512207E-2,9.657394409E0,-8.611587524E0
9.948944970E0,-5.462646484E-2,9.652221680E0,-8.556945801E0
9.953980370E0,-5.619812012E-2,9.627044678E0,-8.555419922E0
9.959015770E0,-3.735351562E-2,9.617416382E0,-8.548126221E0
9.964051171E0,-3.945922852E-2,9.625640869E0,-8.531570435E0
9.969086571E0,-6.193542480E-2,9.611511230E0,-8.563461304E0
9.974121972E0,-6.086730957E-2,9.619689941E0,-8.584671021E0
9.979157372E0,-6.390380859E-2,9.633560181E0,-8.576812744E0
9.984192772E0,-6.388854980E-2,9.614273071E0,-8.559173584E0
9.989228173E0,-5.088806152E-2,9.628738403E0,-8.533355713E0
9.994263573E0,-4.067993164E-2,9.639923096E0,-8.534408569E0
9.999298974E0,-2.667236328E-2,9.622970581E0,-8.528533936E0
1.000433437E1,-3.747558594E-2,9.616119385E0,-8.531356812E0
1.000936977E1,-7.315063477E-2,9.595031738E0,-8.495300293E0
1.001440518E1,-7.128906250E-2,9.616058350E0,-8.517211914E0
1.001944058E1,-7.072448730E-2,9.647369385E0,-8.556350708E0
1.002447598E1,-6.634521484E-2,9.645004272E0,-8.557525635E0
1.002951138E1,-4.602050781E-2,9.655380249E0,-8.568450928E0
1.003454678E1,-8.647155762E-2,9.630477905E0,-8.553039551E0
1.003958218E1,-5.949401855E-2,9.613616943E0,-8.540512085E0
1.004461758E1,-4.847717285E-2,9.626998901E0,-8.530883789E0
1.004965298E1,-5.996704102E-2,9.670120239E0,-8.564926147E0
1.005468838E1,-6.637573242E-2,9.653823853E0,-8.507537842E0
1.005972378E1,-5.084228516E-2,9.655532837E0,-8.540557861E0
1.006475918E1,-7.913208008E-2,9.642074585E0,-8.546157837E0
1.006979458E1,-6.694030762E-2,9.614685059E0,-8.539535522E0
1.007482998E1,-6.259155273E-2,9.649734497E0,-8.585617065E0
1.007986538E1,-4.937744141E-2,9.621780396E0,-8.530548096E0
1.008490078E1,-6.120300293E-2,9.607543945E0,-8.561660767E0
1.008993618E1,-6.900024414E-2,9.650985718E0,-8.522720337E0
1.009497158E1,-6.272888184E-2,9.629455566E0,-8.629852295E0
1.010000698E1,-8.056640625E-2,9.609786987E0,-8.577072144E0
1.010504238E1,-5.139160156E-2,9.652816772E0,-8.560562134E0
1.011007778E1,-5.043029785E-2,9.642517090E0,-8.578826904E0
1.011511318E1,-7.409667969E-2,9.618637085E0,-8.517654419E0
1.012014858E1,-5.281066895E-2,9.585174561E0,-8.576797485E0
1.012518398E1,-5.056762695E-2,9.651428223E0,-8.539352417E0
1.013021938E1,-5.705261230E-2,9.630691528E0,-8.575057983E0
1.013525478E1,-3.720092773E-2,9.642822266E0,-8.599716187E0
1.014029019E1,-6.332397461E-2,9.655532837E0,-8.575271606E0
1.014532558E1,-3.732299805E-2,9.635299683E0,-8.548614502E0
1.015036098E1,-5.502319336E-2,9.638244629E0,-8.588607788E0
1.015539639E1,-5.586242676E-2,9.644882202E0,-8.562530518E0
1.016043179E1,-8.778381348E-2,9.623718262E0,-8.605682373E0
1.016546719E1,-9.597778320E-2,9.625915527E0,-8.564620972E0
1.017050259E1,-4.295349121E-2,9.609268188E0,-8.566894531E0
1.017553799E1,-5.532836914E-2,9.617462158E0,-8.592758179E0
1.018057339E1,-3.880310059E-2,9.651992798E0,-8.559860229E0
1.018560879E1,-2.899169922E-2,9.630722046E0,-8.578689575E0
1.019064419E1,-4.173278809E-2,9.652496338E0,-8.602676392E0
1.019567959E1,-4.962158203E-2,9.627517700E0,-8.573760986E0
1.020071499E1,-7.177734375E-2,9.610290527E0,-8.635711670E0
1.020575039E1,-7.650756836E-2,9.644088745E0,-8.558349609E0
1.021078579E1,-2.923583984E-2,9.664337158E0,-8.565444946E0
1.021582119E1,-5.575561523E-2,9.622772217E0,-8.555603027E0
1.022085659E1,-4.940795898E-2,9.639419556E0,-8.589553833E0
1.022589199E1,-3.038024902E-2,9.629379272E0,-8.623809814E0
1.023092739E1,-3.981018066E-2,9.638809204E0,-8.574249268E0
1.023596279E1,-2.557373047E-2,9.627822876E0,-8.584350586E0
1.024099819E1,-4.875183105E-2,9.654052734E0,-8.577651978E0
1.024603359E1,-3.810119629E-2,9.628509521E0,-8.627624512E0
1.025106899E1,-1.971435547E-2,9.606063843E0,-8.634582520E0
1.025610439E1,-3.540039062E-2,9.616165161E0,-8.625885010E0
1.026113979E1,-2.833557129E-2,9.597885132E0,-8.666717529E0
1.026617519E1,-4.377746582E-2,9.613845825E0,-8.678817749E0
1.027121060E1,-5.757141113E-2,9.632034302E0,-8.665237427E0
1.027624600E1,-4.219055176E-2,9.625732422E0,-8.660446167E0
1.028128140E1,-1.432800293E-2,9.629180908E0,-8.636062622E0
1.028631680E1,-2.041625977E-2,9.619903564E0,-8.618591309E0
