"Time (s)","Gyroscope x (rad/s)","Gyroscope y (rad/s)","Gyroscope z (rad/s)"
4.068510920E-1,1.539611816E-2,3.904113770E-1,-2.081298828E-2
4.118864930E-1,1.525878906E-2,4.012298584E-1,-2.110290527E-2
4.169218930E-1,1.525878906E-2,4.082336426E-1,-2.110290527E-2
4.219572940E-1,1.428222656E-2,4.147186279E-1,-2.110290527E-2
4.269926940E-1,1.515197754E-2,4.212036133E-1,-2.304077148E-2
4.320280940E-1,1.525878906E-2,4.267120361E-1,-2.323913574E-2
4.370634950E-1,1.625061035E-2,4.311065674E-1,-2.323913574E-2
4.420988950E-1,1.632690430E-2,4.344177246E-1,-2.221679688E-2
4.471342960E-1,1.528930664E-2,4.366302490E-1,-2.319335938E-2
4.521696960E-1,1.525878906E-2,4.387969971E-1,-2.427673340E-2
4.572050960E-1,1.631164551E-2,4.399108887E-1,-2.430725098E-2
4.622404970E-1,1.419067383E-2,4.388580322E-1,-2.430725098E-2
4.672758970E-1,1.632690430E-2,4.377746582E-1,-2.429199219E-2
4.723112980E-1,1.632690430E-2,4.355926514E-1,-2.325439453E-2
4.773466980E-1,1.632690430E-2,4.334106445E-1,-2.430725098E-2
4.823820980E-1,1.622009277E-2,4.300384521E-1,-2.430725098E-2
4.874174990E-1,1.423645020E-2,4.246673584E-1,-2.430725098E-2
4.924528990E-1,1.525878906E-2,4.191131592E-1,-2.423095703E-2
4.974882990E-1,1.525878906E-2,4.115447998E-1,-2.314758301E-2
5.025237000E-1,1.525878906E-2,4.041748047E-1,-2.217102051E-2
5.075591000E-1,1.536560059E-2,3.984375000E-1,-2.204895020E-2
5.125945010E-1,1.632690430E-2,3.896179199E-1,-2.096557617E-2
5.176299010E-1,1.632690430E-2,3.798065186E-1,-2.003479004E-2
5.226653010E-1,1.617431641E-2,3.689575195E-1,-2.017211914E-2
5.277007020E-1,1.541137695E-2,3.569335938E-1,-2.093505859E-2
5.327361020E-1,1.632690430E-2,3.448638916E-1,-2.003479004E-2
5.377715030E-1,1.632690430E-2,3.318939209E-1,-1.983642578E-2
5.428069030E-1,1.632690430E-2,3.189239502E-1,-1.875305176E-2
5.478423030E-1,1.654052734E-2,3.055114746E-1,-1.789855957E-2
5.528777040E-1,1.739501953E-2,2.903747559E-1,-1.765441895E-2
5.579131040E-1,1.715087891E-2,2.752380371E-1,-1.658630371E-2
5.629485050E-1,1.657104492E-2,2.595977783E-1,-1.600646973E-2
5.679839050E-1,1.739501953E-2,2.428283691E-1,-1.683044434E-2
5.730193050E-1,1.766967773E-2,2.274169922E-1,-1.683044434E-2
5.780547060E-1,1.815795898E-2,2.108917236E-1,-1.623535156E-2
5.830901060E-1,1.707458496E-2,1.929779053E-1,-1.469421387E-2
5.881255060E-1,1.632690430E-2,1.738433838E-1,-1.403808594E-2
5.931609070E-1,1.632690430E-2,1.551208496E-1,-1.222229004E-2
5.981963070E-1,1.597595215E-2,1.356658936E-1,-1.148986816E-2
6.032317080E-1,1.525878906E-2,1.165618896E-1,-1.112365723E-2
6.082671080E-1,1.487731934E-2,9.780883789E-2,-1.004028320E-2
6.133025080E-1,1.419067383E-2,7.838439941E-2,-9.353637695E-3
6.183379090E-1,1.419067383E-2,5.860900879E-2,-8.956909180E-3
6.233733090E-1,1.458740234E-2,3.807067871E-2,-7.873535156E-3
6.284087100E-1,1.483154297E-2,1.747131348E-2,-6.790161133E-3
6.334441100E-1,1.461791992E-2,-2.700805664E-3,-5.264282227E-3
6.384795100E-1,1.525878906E-2,-2.262878418E-2,-3.555297852E-3
6.435149110E-1,1.478576660E-2,-4.264831543E-2,-2.944946289E-3
6.485503110E-1,1.370239258E-2,-6.114196777E-2,-2.456665039E-3
6.535857120E-1,1.312255859E-2,-7.992553711E-2,-8.850097656E-4
6.586211120E-1,1.312255859E-2,-9.996032715E-2,2.593994141E-4
6.636565120E-1,1.362609863E-2,-1.194152832E-1,2.593994141E-4
6.686919130E-1,1.419067383E-2,-1.383056641E-1,7.934570312E-4
6.737273130E-1,1.419067383E-2,-1.577606201E-1,2.593994141E-4
6.787627140E-1,1.307678223E-2,-1.772003174E-1,3.051757812E-4
6.837981140E-1,1.205444336E-2,-1.955718994E-1,2.456665039E-3
6.888335140E-1,1.205444336E-2,-2.122802734E-1,2.883911133E-3
6.938689150E-1,1.145935059E-2,-2.285919189E-1,3.585815430E-3
6.989043150E-1,1.158142090E-2,-2.452392578E-1,4.531860352E-3
7.039397150E-1,1.205444336E-2,-2.626953125E-1,3.921508789E-3
7.089751160E-1,1.141357422E-2,-2.791900635E-1,4.730224609E-3
7.140105160E-1,9.689331055E-3,-2.936859131E-1,6.896972656E-3
7.190459170E-1,8.850097656E-3,-3.084411621E-1,7.736206055E-3
7.240813170E-1,8.178710938E-3,-3.228912354E-1,9.078979492E-3
7.291167170E-1,7.095336914E-3,-3.362274170E-1,9.872436523E-3
7.341521180E-1,6.713867188E-3,-3.485107422E-1,9.185791016E-3
7.391875180E-1,7.415771484E-3,-3.604125977E-1,9.521484375E-3
7.442229190E-1,7.781982422E-3,-3.715820312E-1,1.060485840E-2
7.492583190E-1,7.034301758E-3,-3.831787109E-1,1.094055176E-2
7.542937190E-1,6.713867188E-3,-3.927917480E-1,1.094055176E-2
7.593291200E-1,6.713867188E-3,-4.014282227E-1,1.094055176E-2
7.643645200E-1,5.157470703E-3,-4.093017578E-1,1.171875000E-2
7.693999210E-1,3.784179688E-3,-4.160919189E-1,1.200866699E-2
7.744353210E-1,4.302978516E-3,-4.225769043E-1,1.361083984E-2
7.794707210E-1,2.944946289E-3,-4.282531738E-1,1.252746582E-2
7.845061220E-1,3.265380859E-3,-4.328308105E-1,1.118469238E-2
7.895415220E-1,3.509521484E-3,-4.371490479E-1,1.261901855E-2
7.945769230E-1,3.509521484E-3,-4.406280518E-1,1.307678223E-2
7.996123230E-1,2.639770508E-3,-4.412689209E-1,1.307678223E-2
8.046477230E-1,6.713867188E-4,-4.421539307E-1,1.396179199E-2
8.096831240E-1,-5.950927734E-4,-4.432373047E-1,1.325988770E-2
8.147185240E-1,1.373291016E-4,-4.425048828E-1,1.307678223E-2
8.197539240E-1,3.051757812E-4,-4.414215088E-1,1.124572754E-2
8.247893250E-1,3.051757812E-4,-4.394531250E-1,1.094055176E-2
8.298247250E-1,3.051757812E-4,-4.353942871E-1,1.281738281E-2
8.348601260E-1,-6.561279297E-4,-4.310607910E-1,1.307678223E-2
8.398955260E-1,-7.629394531E-4,-4.247741699E-1,1.113891602E-2
8.449309260E-1,-1.754760742E-3,-4.192962646E-1,1.193237305E-2
8.499663270E-1,-1.831054688E-3,-4.129028320E-1,1.103210449E-2
8.550017270E-1,-1.831054688E-3,-4.054260254E-1,1.094055176E-2
8.600371280E-1,-2.853393555E-3,-3.978576660E-1,8.911132812E-3
8.650725280E-1,-4.959106445E-3,-3.882293701E-1,7.781982422E-3
8.701079280E-1,-5.035400391E-3,-3.784942627E-1,6.698608398E-3
8.751433290E-1,-3.982543945E-3,-3.677062988E-1,6.668090820E-3
8.801787290E-1,-6.103515625E-3,-3.558197021E-1,5.599975586E-3
8.852141300E-1,-7.156372070E-3,-3.428497314E-1,7.736206055E-3
8.902495300E-1,-5.065917969E-3,-3.298797607E-1,7.720947266E-3
8.952849300E-1,-6.103515625E-3,-3.168640137E-1,6.637573242E-3
9.003203310E-1,-6.103515625E-3,-3.028106689E-1,5.554199219E-3
9.053557310E-1,-6.179809570E-3,-2.886810303E-1,4.608154297E-3
9.103911310E-1,-7.095336914E-3,-2.735595703E-1,5.599975586E-3
9.154265320E-1,-6.195068359E-3,-2.583312988E-1,5.523681641E-3
9.204619320E-1,-7.171630859E-3,-2.411346436E-1,4.440307617E-3
9.254973330E-1,-7.171630859E-3,-2.246856689E-1,3.356933594E-3
9.305327330E-1,-7.308959961E-3,-2.063446045E-1,2.395629883E-3
9.355681330E-1,-8.392333984E-3,-1.891326904E-1,2.395629883E-3
9.406035340E-1,-9.307861328E-3,-1.718292236E-1,2.105712891E-3
9.456389340E-1,-9.307861328E-3,-1.543731689E-1,2.593994141E-4
9.506743350E-1,-9.490966797E-3,-1.358184814E-1,9.155273438E-5
9.557097350E-1,-1.037597656E-2,-1.163482666E-1,-1.174926758E-3
9.607451350E-1,-1.037597656E-2,-9.648132324E-2,-3.143310547E-3
9.657805360E-1,-1.037597656E-2,-7.551574707E-2,-4.013061523E-3
9.708159360E-1,-1.084899902E-2,-5.667114258E-2,-4.470825195E-3
9.758513370E-1,-1.228332520E-2,-3.660583496E-2,-6.149291992E-3
9.808867370E-1,-1.094055176E-2,-1.771545410E-2,-6.652832031E-3
9.859221370E-1,-9.857177734E-3,2.548217773E-3,-8.285522461E-3
9.909575380E-1,-1.144409180E-2,2.201843262E-2,-7.995605469E-3
9.959929380E-1,-1.144409180E-2,4.118347168E-2,-7.217407227E-3
1.001028339E0,-1.176452637E-2,6.048583984E-2,-7.827758789E-3
1.006063739E0,-1.251220703E-2,8.114624023E-2,-9.674072266E-3
1.011099139E0,-1.284790039E-2,9.982299805E-2,-1.042175293E-2
1.016134540E0,-1.358032227E-2,1.188964844E-1,-1.109313965E-2
1.021169940E0,-1.322937012E-2,1.369628906E-1,-1.290893555E-2
1.026205340E0,-1.251220703E-2,1.549224854E-1,-1.472473145E-2
1.031240741E0,-1.289367676E-2,1.736297607E-1,-1.683044434E-2
1.036276141E0,-1.358032227E-2,1.917114258E-1,-1.683044434E-2
1.041311542E0,-1.277160645E-2,2.103576660E-1,-1.683044434E-2
1.046346942E0,-1.271057129E-2,2.268676758E-1,-1.724243164E-2
1.051382342E0,-1.422119141E-2,2.428894043E-1,-1.789855957E-2
1.056417743E0,-1.358032227E-2,2.596893311E-1,-1.834106445E-2
1.061453143E0,-1.312255859E-2,2.749786377E-1,-1.896667480E-2
1.066488544E0,-1.298522949E-2,2.895050049E-1,-1.942443848E-2
1.071523944E0,-1.310729980E-2,3.041687012E-1,-2.003479004E-2
1.076559344E0,-1.202392578E-2,3.182220459E-1,-1.953125000E-2
1.081594745E0,-1.144409180E-2,3.322753906E-1,-1.947021484E-2
1.086630145E0,-1.144409180E-2,3.452758789E-1,-2.003479004E-2
1.091665546E0,-1.091003418E-2,3.566436768E-1,-2.003479004E-2
1.096700946E0,-9.826660156E-3,3.668975830E-1,-2.058410645E-2
1.101736346E0,-9.307861328E-3,3.766326904E-1,-2.165222168E-2
1.106771747E0,-9.307861328E-3,3.857879639E-1,-2.273559570E-2
1.111807147E0,-9.307861328E-3,3.950195312E-1,-2.323913574E-2
1.116842548E0,-9.918212891E-3,4.035491943E-1,-2.383422852E-2
1.121877948E0,-9.765625000E-3,4.110870361E-1,-2.368164062E-2
1.126913348E0,-9.933471680E-3,4.167480469E-1,-2.384948730E-2
1.131948749E0,-1.037597656E-2,4.217071533E-1,-2.493286133E-2
1.136984149E0,-1.103210449E-2,4.252014160E-1,-2.537536621E-2
1.142019549E0,-1.078796387E-2,4.286956787E-1,-2.470397949E-2
1.147054950E0,-1.037597656E-2,4.323272705E-1,-2.430725098E-2
1.152090350E0,-1.107788086E-2,4.342041016E-1,-2.430725098E-2
1.157125751E0,-1.144409180E-2,4.352722168E-1,-2.430725098E-2
1.162161151E0,-1.002502441E-2,4.349365234E-1,-2.500915527E-2
1.167196551E0,-8.590698242E-3,4.345855713E-1,-2.464294434E-2
1.172231952E0,-8.987426758E-3,4.330902100E-1,-2.355957031E-2
1.177267352E0,-9.307861328E-3,4.301757812E-1,-2.398681641E-2
1.182302753E0,-1.084899902E-2,4.269409180E-1,-2.352905273E-2
1.187338153E0,-1.144409180E-2,4.221343994E-1,-2.244567871E-2
1.192373553E0,-1.144409180E-2,4.159393311E-1,-2.294921875E-2
1.197408954E0,-1.065063477E-2,4.102478027E-1,-2.403259277E-2
1.202444354E0,-1.119995117E-2,4.040222168E-1,-2.348327637E-2
1.207479755E0,-1.144409180E-2,3.958740234E-1,-2.239990234E-2
1.212515155E0,-1.229858398E-2,3.872222900E-1,-2.217102051E-2
1.217550555E0,-1.251220703E-2,3.777160645E-1,-2.130126953E-2
1.222585956E0,-1.165771484E-2,3.671722412E-1,-2.110290527E-2
1.227621356E0,-1.232910156E-2,3.563079834E-1,-1.933288574E-2
1.232656756E0,-1.341247559E-2,3.437652588E-1,-1.896667480E-2
1.237692157E0,-1.358032227E-2,3.317108154E-1,-1.805114746E-2
1.242727557E0,-1.358032227E-2,3.198089600E-1,-1.789855957E-2
1.247762958E0,-1.358032227E-2,3.060607910E-1,-1.789855957E-2
1.252798358E0,-1.358032227E-2,2.920074463E-1,-1.882934570E-2
1.257833758E0,-1.358032227E-2,2.759399414E-1,-1.799011230E-2
1.262869159E0,-1.358032227E-2,2.598114014E-1,-1.498413086E-2
1.267904559E0,-1.554870605E-2,2.445831299E-1,-1.370239258E-2
1.272939960E0,-1.672363281E-2,2.294464111E-1,-1.362609863E-2
1.277975360E0,-1.477050781E-2,2.122802734E-1,-1.463317871E-2
1.283010760E0,-1.261901855E-2,1.929473877E-1,-1.367187500E-2
1.288046161E0,-1.354980469E-2,1.765899658E-1,-1.258850098E-2
1.293081561E0,-1.568603516E-2,1.582641602E-1,-1.150512695E-2
1.298116962E0,-1.466369629E-2,1.420135498E-1,-8.300781250E-3
1.303152362E0,-1.464843750E-2,1.225585938E-1,-9.338378906E-3
1.308187762E0,-1.464843750E-2,1.020355225E-1,-8.255004883E-3
1.313223163E0,-1.464843750E-2,8.271789551E-2,-7.156372070E-3
1.318258563E0,-1.469421387E-2,6.414794922E-2,-5.081176758E-3
1.323293964E0,-1.567077637E-2,4.371643066E-2,-4.974365234E-3
1.328329364E0,-1.464843750E-2,2.331542969E-2,-2.807617188E-3
1.333364764E0,-1.457214355E-2,5.004882812E-3,-8.087158203E-4
1.338400165E0,-1.358032227E-2,-1.266479492E-2,-7.019042969E-4
1.343435565E0,-1.368713379E-2,-3.428649902E-2,3.662109375E-4
1.348470965E0,-1.429748535E-2,-5.555725098E-2,1.327514648E-3
1.353506366E0,-1.158142090E-2,-7.394409180E-2,1.464843750E-3
1.358541766E0,-1.237487793E-2,-9.246826172E-2,2.685546875E-3
1.363577167E0,-1.144409180E-2,-1.117706299E-1,4.699707031E-3
1.368612567E0,-1.162719727E-2,-1.303100586E-1,5.783081055E-3
1.373647967E0,-1.232910156E-2,-1.495971680E-1,6.668090820E-3
1.378683368E0,-1.164245605E-2,-1.679840088E-1,6.668090820E-3
1.383718768E0,-1.251220703E-2,-1.859436035E-1,6.668090820E-3
1.388754169E0,-1.206970215E-2,-2.021636963E-1,6.896972656E-3
1.393789569E0,-1.014709473E-2,-2.186126709E-1,7.736206055E-3
1.398824969E0,-9.567260742E-3,-2.353973389E-1,8.239746094E-3
1.403860370E0,-1.037597656E-2,-2.509918213E-1,9.872436523E-3
1.408895770E0,-1.037597656E-2,-2.677917480E-1,9.872436523E-3
1.413931171E0,-1.010131836E-2,-2.831420898E-1,1.043701172E-2
1.418966571E0,-9.307861328E-3,-2.981872559E-1,1.231384277E-2
1.424001971E0,-9.002685547E-3,-3.106994629E-1,1.277160645E-2
1.429037372E0,-8.239746094E-3,-3.247070312E-1,1.232910156E-2
1.434072772E0,-7.919311523E-3,-3.377227783E-1,1.341247559E-2
1.439108173E0,-7.171630859E-3,-3.489685059E-1,1.449584961E-2
1.444143573E0,-6.454467773E-3,-3.601379395E-1,1.521301270E-2
1.449178973E0,-5.783081055E-3,-3.702392578E-1,1.559448242E-2
1.454214374E0,-6.790161133E-3,-3.806762695E-1,1.705932617E-2
1.459249774E0,-6.103515625E-3,-3.896026611E-1,1.802062988E-2
1.464285174E0,-6.530761719E-3,-3.967590332E-1,1.693725586E-2
1.469320575E0,-5.905151367E-3,-4.036560059E-1,1.628112793E-2
1.474355975E0,-4.409790039E-3,-4.111938477E-1,1.672363281E-2
1.479391376E0,-4.592895508E-3,-4.178771973E-1,1.824951172E-2
1.484426776E0,-5.355834961E-3,-4.223632812E-1,1.902770996E-2
1.489462176E0,-6.240844727E-3,-4.265441895E-1,1.841735840E-2
1.494497577E0,-4.074096680E-3,-4.304962158E-1,1.890563965E-2
1.499532977E0,-3.402709961E-3,-4.321594238E-1,1.948547363E-2
1.504568378E0,-3.463745117E-3,-4.332427979E-1,2.000427246E-2
1.509603778E0,-3.433227539E-3,-4.343261719E-1,2.055358887E-2
1.514639178E0,-2.899169922E-3,-4.343261719E-1,1.948547363E-2
1.519674579E0,-2.395629883E-3,-4.326934814E-1,1.786804199E-2
1.524709979E0,-2.349853516E-3,-4.299774170E-1,1.734924316E-2
1.529745380E0,-1.266479492E-3,-4.278869629E-1,1.792907715E-2
1.534780780E0,-7.629394531E-4,-4.244537354E-1,1.841735840E-2
1.539816180E0,-1.678466797E-4,-4.190521240E-1,1.902770996E-2
1.544851581E0,3.051757812E-4,-4.130096436E-1,1.887512207E-2
1.549886981E0,-3.356933594E-4,-4.071502686E-1,1.779174805E-2
1.554922381E0,-7.629394531E-4,-4.004669189E-1,1.606750488E-2
1.559957782E0,-7.629394531E-4,-3.922729492E-1,1.652526855E-2
1.564993182E0,-1.068115234E-4,-3.836517334E-1,1.734924316E-2
1.570028583E0,3.051757812E-4,-3.743133545E-1,1.734924316E-2
1.575063983E0,9.918212891E-4,-3.632049561E-1,1.666259766E-2
1.580099383E0,1.373291016E-3,-3.520202637E-1,1.489257812E-2
1.585134784E0,2.090454102E-3,-3.390045166E-1,1.342773438E-2
1.590170184E0,2.441406250E-3,-3.242492676E-1,1.235961914E-2
1.595205585E0,3.173828125E-3,-3.113708496E-1,1.127624512E-2
1.600240985E0,2.746582031E-3,-2.987213135E-1,1.170349121E-2
1.605276385E0,3.204345703E-3,-2.834472656E-1,1.200866699E-2
1.610311786E0,2.716064453E-3,-2.672271729E-1,1.045227051E-2
1.615347186E0,4.013061523E-3,-2.525939941E-1,9.872436523E-3
1.620382587E0,3.768920898E-3,-2.353210449E-1,9.078979492E-3
1.625417987E0,4.318237305E-3,-2.185668945E-1,8.804321289E-3
1.630453387E0,6.240844727E-3,-2.023468018E-1,7.141113281E-3
1.635488788E0,7.553100586E-3,-1.852874756E-1,5.828857422E-3
1.640524188E0,8.636474609E-3,-1.671295166E-1,4.745483398E-3
1.645559589E0,9.719848633E-3,-1.478729248E-1,3.662109375E-3
1.650594989E0,9.918212891E-3,-1.293945312E-1,2.593994141E-3
1.655630389E0,9.918212891E-3,-1.100463867E-1,2.395629883E-3
1.660665790E0,9.918212891E-3,-9.066772461E-2,2.395629883E-3
1.665701190E0,1.174926758E-2,-7.121276855E-2,5.645751953E-4
1.670736590E0,1.112365723E-2,-5.268859863E-2,-6.561279297E-4
1.675771991E0,1.098632812E-2,-3.335571289E-2,-8.087158203E-4
1.680807391E0,1.289367676E-2,-1.199340820E-2,-8.087158203E-4
1.685842792E0,1.408386230E-2,6.729125977E-3,-8.087158203E-4
1.690878192E0,1.319885254E-2,2.706909180E-2,-2.761840820E-3
1.695913592E0,1.312255859E-2,4.463195801E-2,-2.944946289E-3
1.700948993E0,1.412963867E-2,6.596374512E-2,-4.959106445E-3
1.705984393E0,1.419067383E-2,8.656311035E-2,-6.088256836E-3
1.711019794E0,1.521301270E-2,1.050415039E-1,-7.171630859E-3
1.716055194E0,1.420593262E-2,1.244659424E-1,-7.217407227E-3
1.721090594E0,1.419067383E-2,1.428680420E-1,-7.217407227E-3
1.726125995E0,1.632690430E-2,1.612396240E-1,-9.353637695E-3
1.731161395E0,1.632690430E-2,1.785278320E-1,-1.150512695E-2
1.736196796E0,1.634216309E-2,1.945953369E-1,-1.257324219E-2
1.741232196E0,1.733398438E-2,2.132415771E-1,-1.356506348E-2
1.746267596E0,1.620483398E-2,2.325134277E-1,-1.255798340E-2
1.751302997E0,1.432800293E-2,2.485961914E-1,-1.255798340E-2
1.756338397E0,1.632690430E-2,2.627258301E-1,-1.272583008E-2
1.761373798E0,1.632690430E-2,2.776031494E-1,-1.478576660E-2
1.766409198E0,1.632690430E-2,2.907562256E-1,-1.586914062E-2
1.771444598E0,1.632690430E-2,3.048553467E-1,-1.683044434E-2
1.776479999E0,1.632690430E-2,3.197326660E-1,-1.683044434E-2
1.781515399E0,1.646423340E-2,3.324127197E-1,-1.696777344E-2
1.786550799E0,1.722717285E-2,3.433837891E-1,-1.805114746E-2
1.791586200E0,1.649475098E-2,3.551025391E-1,-1.896667480E-2
1.796621600E0,1.701354980E-2,3.659210205E-1,-1.896667480E-2
1.801657001E0,1.544189453E-2,3.765258789E-1,-1.954650879E-2
1.806692401E0,1.632690430E-2,3.860473633E-1,-2.217102051E-2
1.811727801E0,1.632690430E-2,3.940429688E-1,-2.217102051E-2
1.816763202E0,1.632690430E-2,3.996734619E-1,-2.217102051E-2
1.821798602E0,1.606750488E-2,4.059143066E-1,-2.265930176E-2
1.826834003E0,1.525878906E-2,4.115905762E-1,-2.430725098E-2
1.831869403E0,1.553344727E-2,4.172515869E-1,-2.430725098E-2
1.836904803E0,1.632690430E-2,4.207763672E-1,-2.430725098E-2
1.841940204E0,1.632690430E-2,4.248046875E-1,-2.430725098E-2
1.846975604E0,1.600646973E-2,4.271087646E-1,-2.461242676E-2
1.852011005E0,1.557922363E-2,4.274291992E-1,-2.471923828E-2
1.857046405E0,1.597595215E-2,4.281768799E-1,-2.357482910E-2
1.862081805E0,1.525878906E-2,4.274749756E-1,-2.430725098E-2
1.867117206E0,1.525878906E-2,4.256744385E-1,-2.394104004E-2
1.872152606E0,1.525878906E-2,4.238433838E-1,-2.285766602E-2
1.877188006E0,1.486206055E-2,4.209899902E-1,-2.255249023E-2
1.882223407E0,1.458740234E-2,4.176330566E-1,-2.363586426E-2
1.887258807E0,1.567077637E-2,4.122161865E-1,-2.346801758E-2
1.892294208E0,1.547241211E-2,4.068145752E-1,-2.217102051E-2
1.897329608E0,1.419067383E-2,4.005279541E-1,-2.259826660E-2
1.902365008E0,1.419067383E-2,3.934173584E-1,-2.323913574E-2
1.907400409E0,1.510620117E-2,3.855285645E-1,-2.230834961E-2
1.912435809E0,1.632690430E-2,3.757934570E-1,-2.110290527E-2
1.917471210E0,1.632690430E-2,3.655700684E-1,-2.110290527E-2
1.922506610E0,1.632690430E-2,3.547668457E-1,-2.058410645E-2
1.927542010E0,1.683044434E-2,3.439788818E-1,-2.003479004E-2
1.932577411E0,1.686096191E-2,3.321228027E-1,-2.055358887E-2
1.937612811E0,1.686096191E-2,3.186035156E-1,-2.110290527E-2
1.942648212E0,1.739501953E-2,3.045501709E-1,-2.053833008E-2
1.947683612E0,1.739501953E-2,2.910614014E-1,-1.945495605E-2
1.952719012E0,1.739501953E-2,2.775421143E-1,-1.780700684E-2
1.957754413E0,1.797485352E-2,2.617187500E-1,-1.741027832E-2
1.962789813E0,1.724243164E-2,2.456207275E-1,-1.728820801E-2
1.967825214E0,1.693725586E-2,2.298736572E-1,-1.744079590E-2
1.972860614E0,1.802062988E-2,2.129669189E-1,-1.725769043E-2
1.977896014E0,1.846313477E-2,1.963348389E-1,-1.553344727E-2
1.982931415E0,1.846313477E-2,1.781768799E-1,-1.403808594E-2
1.987966815E0,1.911926270E-2,1.593933105E-1,-1.362609863E-2
1.993002215E0,1.953125000E-2,1.410064697E-1,-1.293945312E-2
1.998037616E0,2.021789551E-2,1.226348877E-1,-1.115417480E-2
2.003073016E0,1.988220215E-2,1.042480469E-1,-1.042175293E-2
2.008108417E0,1.879882812E-2,8.586120605E-2,-8.972167969E-3
2.013143817E0,1.918029785E-2,6.683349609E-2,-8.285522461E-3
2.018179217E0,1.953125000E-2,4.815673828E-2,-9.017944336E-3
2.023214618E0,1.953125000E-2,2.825927734E-2,-8.590698242E-3
2.028250018E0,1.875305176E-2,9.246826172E-3,-6.744384766E-3
2.033285419E0,1.766967773E-2,-9.216308594E-3,-5.355834961E-3
2.038320819E0,1.817321777E-2,-2.816772461E-2,-4.287719727E-3
2.043356219E0,1.925659180E-2,-4.850769043E-2,-3.204345703E-3
2.048391620E0,1.953125000E-2,-6.829833984E-2,-2.944946289E-3
2.053427020E0,1.702880859E-2,-8.859252930E-2,-2.944946289E-3
2.058462421E0,1.716613770E-2,-1.065979004E-1,-3.784179688E-3
2.063497821E0,1.739501953E-2,-1.257019043E-1,-3.143310547E-3
2.068533221E0,1.826477051E-2,-1.442260742E-1,-1.190185547E-3
2.073568622E0,1.669311523E-2,-1.625823975E-1,-8.087158203E-4
2.078604022E0,1.452636719E-2,-1.809692383E-1,9.155273438E-5
2.083639423E0,1.419067383E-2,-1.984405518E-1,2.593994141E-4
2.088674823E0,1.419067383E-2,-2.138824463E-1,3.036499023E-3
2.093710223E0,1.512145996E-2,-2.290191650E-1,5.340576172E-3
2.098745624E0,1.429748535E-2,-2.460632324E-1,5.599975586E-3
2.103781024E0,1.419067383E-2,-2.623901367E-1,5.599975586E-3
2.108816424E0,1.321411133E-2,-2.776336670E-1,5.599975586E-3
2.113851825E0,1.409912109E-2,-2.927703857E-1,3.631591797E-3
2.118887225E0,1.217651367E-2,-3.079071045E-1,6.484985352E-3
2.123922626E0,1.103210449E-2,-3.200073242E-1,6.668090820E-3
2.128958026E0,1.098632812E-2,-3.308105469E-1,7.705688477E-3
2.133993426E0,9.933471680E-3,-3.437652588E-1,8.789062500E-3
2.139028827E0,9.918212891E-3,-3.545684814E-1,8.804321289E-3
2.144064227E0,8.850097656E-3,-3.653717041E-1,9.872436523E-3
2.149099628E0,8.850097656E-3,-3.751220703E-1,1.200866699E-2
2.154135028E0,8.789062500E-3,-3.859100342E-1,1.200866699E-2
2.159170428E0,6.713867188E-3,-3.934478760E-1,1.200866699E-2
2.164205829E0,6.652832031E-3,-4.010162354E-1,1.200866699E-2
2.169241229E0,5.645751953E-3,-4.085235596E-1,1.200866699E-2
2.174276630E0,5.645751953E-3,-4.147949219E-1,1.200866699E-2
2.179312030E0,5.554199219E-3,-4.181213379E-1,1.193237305E-2
2.184347430E0,4.669189453E-3,-4.224395752E-1,1.104736328E-2
2.189382831E0,5.523681641E-3,-4.265441895E-1,1.200866699E-2
2.194418231E0,4.577636719E-3,-4.287109375E-1,1.176452637E-2
2.199453631E0,4.287719727E-3,-4.303131104E-1,1.016235352E-2
2.204489032E0,2.441406250E-3,-4.286041260E-1,1.200866699E-2
2.209524432E0,2.441406250E-3,-4.293670654E-1,1.200866699E-2
2.214559833E0,2.258300781E-3,-4.282836914E-1,1.184082031E-2
2.219595233E0,1.174926758E-3,-4.266357422E-1,1.075744629E-2
2.224630633E0,5.035400391E-4,-4.225158691E-1,1.008605957E-2
2.229666034E0,1.373291016E-3,-4.188385010E-1,1.094055176E-2
2.234701434E0,1.129150391E-3,-4.138793945E-1,1.071166992E-2
2.239736835E0,6.103515625E-5,-4.099121094E-1,1.011657715E-2
2.244772235E0,-5.187988281E-4,-4.036865234E-1,1.094055176E-2
2.249807635E0,5.645751953E-4,-3.977508545E-1,1.068115234E-2
2.254843036E0,1.083374023E-3,-3.899383545E-1,1.016235352E-2
2.259878436E0,3.051757812E-4,-3.809967041E-1,1.037597656E-2
2.264913837E0,-3.051757812E-4,-3.712768555E-1,9.109497070E-3
2.269949237E0,-1.831054688E-3,-3.615264893E-1,8.926391602E-3
2.274984637E0,-2.166748047E-3,-3.511047363E-1,7.003784180E-3
2.280020038E0,-2.899169922E-3,-3.392639160E-1,7.736206055E-3
2.285055438E0,-2.899169922E-3,-3.273620605E-1,7.385253906E-3
2.290090839E0,-2.899169922E-3,-3.151092529E-1,6.668090820E-3
2.295126239E0,-3.280639648E-3,-3.013763428E-1,6.668090820E-3
2.300161639E0,-4.364013672E-3,-2.866363525E-1,6.668090820E-3
2.305197040E0,-4.638671875E-3,-2.721710205E-1,5.859375000E-3
2.310232440E0,-4.394531250E-3,-2.566070557E-1,4.531860352E-3
2.315267840E0,-5.477905273E-3,-2.403869629E-1,4.531860352E-3
2.320303241E0,-6.561279297E-3,-2.241668701E-1,3.646850586E-3
2.325338641E0,-7.171630859E-3,-2.079620361E-1,2.395629883E-3
2.330374042E0,-6.713867188E-3,-1.917419434E-1,1.464843750E-3
2.335409442E0,-6.103515625E-3,-1.750335693E-1,7.476806641E-4
2.340444842E0,-6.607055664E-3,-1.573944092E-1,1.831054688E-3
2.345480243E0,-7.171630859E-3,-1.390838623E-1,1.907348633E-3
2.350515643E0,-8.209228516E-3,-1.200714111E-1,3.051757812E-4
2.355551044E0,-9.307861328E-3,-1.011352539E-1,-8.087158203E-4
2.360586444E0,-8.773803711E-3,-8.270263672E-2,-1.892089844E-3
2.365621844E0,-7.690429688E-3,-6.320190430E-2,-2.380371094E-3
2.370657245E0,-7.751464844E-3,-4.443359375E-2,-2.441406250E-3
2.375692645E0,-8.239746094E-3,-2.597045898E-2,-4.104614258E-3
2.380728046E0,-8.239746094E-3,-7.690429688E-3,-4.470825195E-3
2.385763446E0,-9.460449219E-3,1.020812988E-2,-5.828857422E-3
2.390798846E0,-9.140014648E-3,3.045654297E-2,-7.217407227E-3
2.395834247E0,-1.014709473E-2,5.081176758E-2,-7.843017578E-3
2.400869647E0,-1.144409180E-2,6.962585449E-2,-8.285522461E-3
2.405905048E0,-1.078796387E-2,8.866882324E-2,-8.941650391E-3
2.410940448E0,-1.106262207E-2,1.067810059E-1,-9.353637695E-3
2.415975848E0,-1.144409180E-2,1.240844727E-1,-9.353637695E-3
2.421011249E0,-1.075744629E-2,1.427917480E-1,-1.144409180E-2
2.426046649E0,-1.037597656E-2,1.607513428E-1,-1.325988770E-2
2.431082049E0,-9.658813477E-3,1.780090332E-1,-1.362609863E-2
2.436117450E0,-1.005554199E-2,1.945800781E-1,-1.509094238E-2
2.441152850E0,-1.112365723E-2,2.115478516E-1,-1.576232910E-2
2.446188251E0,-1.220703125E-2,2.280883789E-1,-1.651000977E-2
2.451223651E0,-1.097106934E-2,2.435913086E-1,-1.759338379E-2
2.456259051E0,-1.116943359E-2,2.586975098E-1,-1.789855957E-2
2.461294452E0,-1.065063477E-2,2.722015381E-1,-1.789855957E-2
2.466329852E0,-1.119995117E-2,2.868041992E-1,-1.707458496E-2
2.471365253E0,-1.144409180E-2,3.011169434E-1,-1.765441895E-2
2.476400653E0,-1.144409180E-2,3.151702881E-1,-1.956176758E-2
2.481436053E0,-1.060485840E-2,3.266754150E-1,-2.003479004E-2
2.486471454E0,-1.124572754E-2,3.374786377E-1,-2.003479004E-2
2.491506854E0,-1.057434082E-2,3.491821289E-1,-2.090454102E-2
2.496542255E0,-1.127624512E-2,3.592376709E-1,-2.198791504E-2
2.501577655E0,-1.324462891E-2,3.680572510E-1,-2.305603027E-2
2.506613055E0,-1.084899902E-2,3.767089844E-1,-2.232360840E-2
2.511648456E0,-1.037597656E-2,3.844757080E-1,-2.030944824E-2
2.516683856E0,-1.132202148E-2,3.910675049E-1,-2.096557617E-2
2.521719256E0,-1.240539551E-2,3.984985352E-1,-2.204895020E-2
2.526754657E0,-1.348876953E-2,4.031829834E-1,-2.313232422E-2
2.531790057E0,-1.261901855E-2,4.075012207E-1,-2.323913574E-2
2.536825458E0,-1.153564453E-2,4.098510742E-1,-2.224731445E-2
2.541860858E0,-1.144409180E-2,4.140167236E-1,-2.116394043E-2
2.546896258E0,-1.144409180E-2,4.173278809E-1,-2.210998535E-2
2.551931659E0,-1.042175293E-2,4.185180664E-1,-2.319335938E-2
2.556967059E0,-1.142883301E-2,4.185638428E-1,-2.218627930E-2
2.562002460E0,-1.251220703E-2,4.196166992E-1,-2.427673340E-2
2.567037860E0,-1.251220703E-2,4.174957275E-1,-2.323913574E-2
2.572073260E0,-1.251220703E-2,4.153289795E-1,-2.218627930E-2
2.577108661E0,-1.251220703E-2,4.130859375E-1,-2.427673340E-2
2.582144061E0,-1.243591309E-2,4.077606201E-1,-2.323913574E-2
2.587179462E0,-1.043701172E-2,4.043579102E-1,-2.313232422E-2
2.592214862E0,-1.144409180E-2,3.979034424E-1,-2.104187012E-2
2.597250262E0,-1.153564453E-2,3.913879395E-1,-1.994323730E-2
2.602285663E0,-1.261901855E-2,3.847045898E-1,-1.885986328E-2
2.607321063E0,-1.348876953E-2,3.761749268E-1,-1.799011230E-2
2.612356464E0,-1.240539551E-2,3.684234619E-1,-1.884460449E-2
2.617391864E0,-1.144409180E-2,3.588104248E-1,-1.789855957E-2
2.622427264E0,-1.159667969E-2,3.497467041E-1,-1.774597168E-2
2.627462665E0,-1.266479492E-2,3.379974365E-1,-1.667785645E-2
2.632498065E0,-1.358032227E-2,3.269653320E-1,-1.593017578E-2
2.637533465E0,-1.358032227E-2,3.149566650E-1,-1.699829102E-2
2.642568866E0,-1.377868652E-2,3.020172119E-1,-1.789855957E-2
2.647604266E0,-1.484680176E-2,2.889556885E-1,-1.750183105E-2
2.652639667E0,-1.550292969E-2,2.745361328E-1,-1.576232910E-2
2.657675067E0,-1.464843750E-2,2.593841553E-1,-1.576232910E-2
2.662710467E0,-1.464843750E-2,2.439422607E-1,-1.525878906E-2
2.667745868E0,-1.490783691E-2,2.275543213E-1,-1.362609863E-2
2.672781268E0,-1.571655273E-2,2.105102539E-1,-1.362609863E-2
2.677816669E0,-1.544189453E-2,1.943054199E-1,-1.306152344E-2
2.682852069E0,-1.495361328E-2,1.780853271E-1,-1.089477539E-2
2.687887469E0,-1.541137695E-2,1.609344482E-1,-9.353637695E-3
2.692922870E0,-1.562500000E-2,1.417999268E-1,-9.353637695E-3
2.697958270E0,-1.753234863E-2,1.234130859E-1,-8.682250977E-3
2.702993671E0,-1.644897461E-2,1.050415039E-1,-7.217407227E-3
2.708029071E0,-1.571655273E-2,8.702087402E-2,-6.851196289E-3
2.713064471E0,-1.609802246E-2,6.933593750E-2,-5.401611328E-3
2.718099872E0,-1.678466797E-2,5.056762695E-2,-4.013061523E-3
2.723135272E0,-1.678466797E-2,3.155517578E-2,-4.013061523E-3
2.728170673E0,-1.638793945E-2,1.283264160E-2,-3.189086914E-3
2.733206073E0,-1.571655273E-2,-6.622314453E-3,-1.449584961E-3
2.738241473E0,-1.528930664E-2,-2.565002441E-2,-1.235961914E-3
2.743276874E0,-1.464843750E-2,-4.447937012E-2,-9.765625000E-4
2.748312274E0,-1.512145996E-2,-6.353759766E-2,2.593994141E-4
2.753347674E0,-1.524353027E-2,-8.288574219E-2,1.220703125E-3
2.758383075E0,-1.464843750E-2,-1.018981934E-1,2.395629883E-3
2.763418475E0,-1.515197754E-2,-1.186981201E-1,2.899169922E-3
2.768453876E0,-1.623535156E-2,-1.359405518E-1,3.982543945E-3
2.773489276E0,-1.626586914E-2,-1.532745361E-1,5.065917969E-3
2.778524676E0,-1.518249512E-2,-1.710968018E-1,6.149291992E-3
2.783560077E0,-1.464843750E-2,-1.894683838E-1,6.668090820E-3
2.788595477E0,-1.521301270E-2,-2.061920166E-1,7.232666016E-3
2.793630878E0,-1.457214355E-2,-2.229919434E-1,9.475708008E-3
2.798666278E0,-1.300048828E-2,-2.397003174E-1,1.094055176E-2
2.803701678E0,-1.251220703E-2,-2.547149658E-1,1.155090332E-2
2.808737079E0,-1.313781738E-2,-2.693939209E-1,1.139831543E-2
2.813772479E0,-1.232910156E-2,-2.838897705E-1,1.158142090E-2
2.818807880E0,-1.080322266E-2,-2.973175049E-1,1.200866699E-2
2.823843280E0,-1.037597656E-2,-3.102874756E-1,1.332092285E-2
2.828878680E0,-1.037597656E-2,-3.219299316E-1,1.348876953E-2
2.833914081E0,-1.037597656E-2,-3.334197998E-1,1.376342773E-2
2.838949481E0,-9.689331055E-3,-3.446197510E-1,1.345825195E-2
2.843984881E0,-9.307861328E-3,-3.561401367E-1,1.521301270E-2
2.849020282E0,-9.307861328E-3,-3.673095703E-1,1.628112793E-2
2.854055682E0,-1.078796387E-2,-3.759155273E-1,1.628112793E-2
2.859091083E0,-1.071166992E-2,-3.827362061E-1,1.554870605E-2
2.864126483E0,-9.628295898E-3,-3.892059326E-1,1.673889160E-2
2.869161883E0,-9.307861328E-3,-3.957061768E-1,1.812744141E-2
2.874197284E0,-9.307861328E-3,-4.013977051E-1,1.763916016E-2
2.879232684E0,-7.736206055E-3,-4.075775146E-1,1.814270020E-2
2.884268085E0,-8.789062500E-3,-4.116516113E-1,1.922607422E-2
2.889303485E0,-7.675170898E-3,-4.157104492E-1,1.948547363E-2
2.894338885E0,-6.347656250E-3,-4.183807373E-1,2.032470703E-2
2.899374286E0,-6.958007812E-3,-4.188385010E-1,1.971435547E-2
2.904409686E0,-6.317138672E-3,-4.188385010E-1,1.863098145E-2
2.909445087E0,-5.233764648E-3,-4.188385010E-1,1.930236816E-2
2.914480487E0,-5.920410156E-3,-4.188385010E-1,1.948547363E-2
2.919515887E0,-5.218505859E-3,-4.179534912E-1,1.860046387E-2
2.924551288E0,-3.219604492E-3,-4.150390625E-1,1.751708984E-2
2.929586688E0,-2.899169922E-3,-4.108581543E-1,1.734924316E-2
2.934622089E0,-1.968383789E-3,-4.074859619E-1,1.734924316E-2
2.939657489E0,-1.831054688E-3,-4.023437500E-1,1.734924316E-2
2.944692889E0,-8.697509766E-4,-3.969421387E-1,1.734924316E-2
2.949728290E0,-7.629394531E-4,-3.896636963E-1,1.542663574E-2
2.954763690E0,-1.754760742E-3,-3.810272217E-1,1.521301270E-2
2.959799090E0,-2.853393555E-3,-3.723297119E-1,1.623535156E-2
2.964834491E0,-1.892089844E-3,-3.627014160E-1,1.425170898E-2
2.969869891E0,-1.831054688E-3,-3.529815674E-1,1.518249512E-2
2.974905292E0,-7.934570312E-4,-3.432464600E-1,1.521301270E-2
2.979940692E0,2.899169922E-4,-3.335113525E-1,1.416015625E-2
2.984976092E0,-7.629394531E-4,-3.216400146E-1,1.307678223E-2
2.990011493E0,1.373291016E-3,-3.108062744E-1,1.307678223E-2
2.995046893E0,1.388549805E-3,-2.977752686E-1,1.200866699E-2
3.000082294E0,2.395629883E-3,-2.826843262E-1,1.193237305E-2
3.005117694E0,1.419067383E-3,-2.686309814E-1,9.826660156E-3
3.010153094E0,2.441406250E-3,-2.544403076E-1,8.880615234E-3
3.015188495E0,2.517700195E-3,-2.382965088E-1,9.796142578E-3
3.020223895E0,3.601074219E-3,-2.229766846E-1,8.712768555E-3
3.025259296E0,4.669189453E-3,-2.058868408E-1,7.537841797E-3
3.030294696E0,5.645751953E-3,-1.906433105E-1,5.722045898E-3
3.035330096E0,5.645751953E-3,-1.740264893E-1,6.546020508E-3
3.040365497E0,5.645751953E-3,-1.548461914E-1,5.462646484E-3
3.045400897E0,5.950927734E-3,-1.373901367E-1,4.379272461E-3
3.050436298E0,7.781982422E-3,-1.188507080E-1,3.463745117E-3
3.055471698E0,7.781982422E-3,-9.956359863E-2,3.097534180E-3
3.060507098E0,7.965087891E-3,-8.140563965E-2,1.327514648E-3
3.065542499E0,9.048461914E-3,-6.416320801E-2,9.307861328E-4
3.070577899E0,9.918212891E-3,-4.634094238E-2,-3.509521484E-4
3.075613299E0,9.674072266E-3,-2.687072754E-2,1.098632812E-3
3.080648700E0,9.094238281E-3,-7.446289062E-3,-2.288818359E-4
3.085684100E0,9.918212891E-3,1.116943359E-2,-2.380371094E-3
3.090719501E0,1.017761230E-2,2.795410156E-2,-4.547119141E-3
3.095754901E0,1.126098633E-2,4.612731934E-2,-6.423950195E-3
3.100790301E0,1.234436035E-2,6.430053711E-2,-7.217407227E-3
3.105825702E0,1.249694824E-2,8.416748047E-2,-7.827758789E-3
3.110861102E0,1.130676270E-2,1.025848389E-1,-9.017944336E-3
3.115896503E0,1.237487793E-2,1.202239990E-1,-8.605957031E-3
3.120931903E0,1.242065430E-2,1.371307373E-1,-9.689331055E-3
3.125967303E0,1.133728027E-2,1.551513672E-1,-1.042175293E-2
3.131002704E0,1.205444336E-2,1.724548340E-1,-1.042175293E-2
3.136038104E0,1.243591309E-2,1.894073486E-1,-1.158142090E-2
3.141073505E0,1.312255859E-2,2.052459717E-1,-1.321411133E-2
3.146108905E0,1.269531250E-2,2.203216553E-1,-1.296997070E-2
3.151144305E0,1.205444336E-2,2.358856201E-1,-1.446533203E-2
3.156179706E0,1.292419434E-2,2.516632080E-1,-1.531982422E-2
3.161215106E0,1.463317871E-2,2.658996582E-1,-1.513671875E-2
3.166250506E0,1.571655273E-2,2.789154053E-1,-1.528930664E-2
3.171285907E0,1.583862305E-2,2.919006348E-1,-1.565551758E-2
3.176321307E0,1.574707031E-2,3.043365479E-1,-1.731872559E-2
3.181356708E0,1.580810547E-2,3.162231445E-1,-1.840209961E-2
3.186392108E0,1.576232910E-2,3.281250000E-1,-1.896667480E-2
3.191427508E0,1.579284668E-2,3.378906250E-1,-1.948547363E-2
3.196462909E0,1.525878906E-2,3.470916748E-1,-2.056884766E-2
3.201498309E0,1.580810547E-2,3.567962646E-1,-2.053833008E-2
3.206533710E0,1.632690430E-2,3.654327393E-1,-2.116394043E-2
3.211569110E0,1.632690430E-2,3.735046387E-1,-2.157592773E-2
3.216604510E0,1.571655273E-2,3.810729980E-1,-2.110290527E-2
3.221639911E0,1.464843750E-2,3.874206543E-1,-2.169799805E-2
3.226675311E0,1.542663574E-2,3.928222656E-1,-2.278137207E-2
3.231710712E0,1.632690430E-2,3.969573975E-1,-2.259826660E-2
3.236746112E0,1.501464844E-2,4.002075195E-1,-2.217102051E-2
3.241781512E0,1.419067383E-2,4.027862549E-1,-2.149963379E-2
3.246816913E0,1.419067383E-2,4.049530029E-1,-2.244567871E-2
3.251852313E0,1.486206055E-2,4.064178467E-1,-2.391052246E-2
3.256887714E0,1.594543457E-2,4.075012207E-1,-2.360534668E-2
3.261923114E0,1.560974121E-2,4.064483643E-1,-2.323913574E-2
3.266958514E0,1.525878906E-2,4.050140381E-1,-2.323913574E-2
3.271993915E0,1.599121094E-2,4.031982422E-1,-2.397155762E-2
3.277029315E0,1.632690430E-2,3.995513916E-1,-2.430725098E-2
3.282064715E0,1.632690430E-2,3.944549561E-1,-2.354431152E-2
3.287100116E0,1.708984375E-2,3.898162842E-1,-2.168273926E-2
3.292135516E0,1.580810547E-2,3.847045898E-1,-2.188110352E-2
3.297170917E0,1.605224609E-2,3.793182373E-1,-2.296447754E-2
3.302206317E0,1.550292969E-2,3.714599609E-1,-2.323913574E-2
3.307241717E0,1.608276367E-2,3.636474609E-1,-2.157592773E-2
3.312277118E0,1.632690430E-2,3.544006348E-1,-2.110290527E-2
3.317312518E0,1.718139648E-2,3.437652588E-1,-2.023315430E-2
3.322347919E0,1.739501953E-2,3.347167969E-1,-2.003479004E-2
3.327383319E0,1.651000977E-2,3.269653320E-1,-1.914978027E-2
3.332418719E0,1.632690430E-2,3.149414062E-1,-1.806640625E-2
3.337454120E0,1.722717285E-2,3.028717041E-1,-1.789855957E-2
3.342489520E0,1.831054688E-2,2.891387939E-1,-1.881408691E-2
3.347524921E0,1.658630371E-2,2.759399414E-1,-1.896667480E-2
3.352560321E0,1.725769043E-2,2.630310059E-1,-1.707458496E-2
3.357595721E0,1.643371582E-2,2.481536865E-1,-1.683044434E-2
3.362631122E0,1.632690430E-2,2.320404053E-1,-1.585388184E-2
3.367666522E0,1.730346680E-2,2.168121338E-1,-1.477050781E-2
3.372701923E0,1.739501953E-2,2.006683350E-1,-1.469421387E-2
3.377737323E0,1.840209961E-2,1.834411621E-1,-1.266479492E-2
3.382772723E0,1.947021484E-2,1.661529541E-1,-1.356506348E-2
3.387808124E0,1.953125000E-2,1.509246826E-1,-1.258850098E-2
3.392843524E0,1.953125000E-2,1.347351074E-1,-1.150512695E-2
3.397878924E0,1.846313477E-2,1.185150146E-1,-1.148986816E-2
3.402914325E0,1.739501953E-2,9.907531738E-2,-1.147460938E-2
3.407949725E0,1.847839355E-2,7.963562012E-2,-1.037597656E-2
3.412985126E0,1.956176758E-2,6.127929688E-2,-8.285522461E-3
3.418020526E0,2.053833008E-2,4.397583008E-2,-8.224487305E-3
3.423055926E0,1.947021484E-2,2.656555176E-2,-7.217407227E-3
3.428091327E0,1.831054688E-2,7.186889648E-3,-7.278442383E-3
3.433126727E0,1.640319824E-2,-1.110839844E-2,-8.117675781E-3
3.438162128E0,1.757812500E-2,-2.957153320E-2,-5.950927734E-3
3.443197528E0,1.942443848E-2,-4.786682129E-2,-3.906250000E-3
3.448232928E0,1.846313477E-2,-6.632995605E-2,-2.807617188E-3
3.453268329E0,1.846313477E-2,-8.436584473E-2,-1.876831055E-3
3.458303729E0,1.831054688E-2,-1.009521484E-1,-1.724243164E-3
3.463339130E0,1.739501953E-2,-1.192626953E-1,-8.087158203E-4
3.468374530E0,1.721191406E-2,-1.377105713E-1,-6.256103516E-4
3.473409930E0,1.632690430E-2,-1.556396484E-1,4.577636719E-4
3.478445331E0,1.593017578E-2,-1.718597412E-1,1.327514648E-3
3.483480731E0,1.460266113E-2,-1.882781982E-1,1.541137695E-3
3.488516131E0,1.609802246E-2,-2.051391602E-1,1.953125000E-3
3.493551532E0,1.525878906E-2,-2.202911377E-1,9.765625000E-4
3.498586932E0,1.550292969E-2,-2.352294922E-1,3.723144531E-3
3.503622333E0,1.579284668E-2,-2.497406006E-1,4.806518555E-3
3.508657733E0,1.390075684E-2,-2.654113770E-1,5.325317383E-3
3.513693133E0,1.312255859E-2,-2.794647217E-1,4.531860352E-3
3.518728534E0,1.251220703E-2,-2.932281494E-1,4.837036133E-3
3.523763934E0,1.066589355E-2,-3.058776855E-1,5.920410156E-3
3.528799335E0,9.918212891E-3,-3.174438477E-1,7.003784180E-3
3.533834735E0,1.058959961E-2,-3.279113770E-1,7.400512695E-3
3.538870135E0,1.168823242E-2,-3.383636475E-1,7.034301758E-3
3.543905536E0,1.023864746E-2,-3.491516113E-1,7.736206055E-3
3.548940936E0,8.850097656E-3,-3.578033447E-1,7.736206055E-3
3.553976337E0,9.231567383E-3,-3.660278320E-1,7.736206055E-3
3.559011737E0,9.109497070E-3,-3.739624023E-1,8.148193359E-3
3.564047137E0,7.781982422E-3,-3.814239502E-1,9.231567383E-3
3.569082538E0,7.339477539E-3,-3.868255615E-1,1.031494141E-2
3.574117938E0,6.256103516E-3,-3.922424316E-1,1.094055176E-2
3.579153339E0,5.172729492E-3,-3.976440430E-1,1.141357422E-2
3.584188739E0,5.035400391E-3,-4.016265869E-1,1.200866699E-2
3.589224139E0,5.645751953E-3,-4.042816162E-1,1.200866699E-2
3.594259540E0,5.142211914E-3,-4.065246582E-1,1.251220703E-2
3.599294940E0,3.555297852E-3,-4.081115723E-1,1.307678223E-2
3.604330340E0,1.388549805E-3,-4.092254639E-1,1.307678223E-2
3.609365741E0,8.392333984E-4,-4.092254639E-1,1.254272461E-2
3.614401141E0,1.373291016E-3,-4.081268311E-1,1.145935059E-2
3.619436542E0,1.373291016E-3,-4.054107666E-1,1.150512695E-2
3.624471942E0,1.937866211E-3,-4.027404785E-1,1.086425781E-2
3.629507342E0,2.441406250E-3,-4.005737305E-1,1.046752930E-2
3.634542743E0,2.441406250E-3,-3.954010010E-1,1.034545898E-2
3.639578143E0,1.815795898E-3,-3.890838623E-1,9.872436523E-3
3.644613544E0,7.324218750E-4,-3.830413818E-1,9.246826172E-3
3.649648944E0,9.307861328E-4,-3.765716553E-1,8.178710938E-3
3.654684344E0,7.171630859E-4,-3.694458008E-1,7.736206055E-3
3.659719745E0,-3.662109375E-4,-3.612213135E-1,9.063720703E-3
3.664755145E0,-7.629394531E-4,-3.525695801E-1,9.201049805E-3
3.669790546E0,-1.464843750E-3,-3.425445557E-1,8.804321289E-3
3.674825946E0,-1.831054688E-3,-3.323822021E-1,8.804321289E-3
3.679861346E0,-1.831054688E-3,-3.212432861E-1,8.804321289E-3
3.684896747E0,-1.831054688E-3,-3.079223633E-1,7.354736328E-3
3.689932147E0,-2.578735352E-3,-2.953491211E-1,6.668090820E-3
3.694967548E0,-2.151489258E-3,-2.826995850E-1,6.668090820E-3
3.700002948E0,-1.831054688E-3,-2.697296143E-1,5.905151367E-3
3.705038348E0,-3.402709961E-3,-2.559661865E-1,4.821777344E-3
3.710073749E0,-3.189086914E-3,-2.419128418E-1,4.531860352E-3
3.715109149E0,-2.899169922E-3,-2.262420654E-1,5.340576172E-3
3.720144549E0,-3.723144531E-3,-2.108459473E-1,3.967285156E-3
3.725179950E0,-3.143310547E-3,-1.948699951E-1,2.639770508E-3
3.730215350E0,-2.059936523E-3,-1.778106689E-1,2.395629883E-3
3.735250751E0,-1.831054688E-3,-1.613769531E-1,1.541137695E-3
3.740286151E0,-3.585815430E-3,-1.451568604E-1,4.577636719E-4
3.745321551E0,-3.967285156E-3,-1.272583008E-1,-6.103515625E-4
3.750356952E0,-4.867553711E-3,-1.089019775E-1,-1.693725586E-3
3.755392352E0,-4.135131836E-3,-9.233093262E-2,-9.613037109E-4
3.760427753E0,-3.967285156E-3,-7.334899902E-2,-8.087158203E-4
3.765463153E0,-5.844116211E-3,-5.566406250E-2,-3.616333008E-3
3.770498553E0,-6.103515625E-3,-3.654479980E-2,-4.013061523E-3
3.775533954E0,-8.026123047E-3,-1.806640625E-2,-4.013061523E-3
3.780569354E0,-7.278442383E-3,-1.617431641E-3,-4.013061523E-3
3.785604755E0,-6.195068359E-3,1.657104492E-2,-5.966186523E-3
3.790640155E0,-7.110595703E-3,3.494262695E-2,-5.142211914E-3
3.795675555E0,-6.164550781E-3,5.433654785E-2,-6.088256836E-3
3.800710956E0,-8.148193359E-3,7.072448730E-2,-6.149291992E-3
3.805746356E0,-7.217407227E-3,8.901977539E-2,-9.246826172E-3
3.810781756E0,-8.224487305E-3,1.074066162E-1,-1.039123535E-2
3.815817157E0,-9.307861328E-3,1.247253418E-1,-9.353637695E-3
3.820852557E0,-9.307861328E-3,1.419982910E-1,-1.148986816E-2
3.825887958E0,-9.307861328E-3,1.561126709E-1,-1.255798340E-2
3.830923358E0,-9.277343750E-3,1.733856201E-1,-1.261901855E-2
3.835958758E0,-8.239746094E-3,1.896362305E-1,-1.464843750E-2
3.840994159E0,-8.300781250E-3,2.067871094E-1,-1.367187500E-2
3.846029559E0,-9.384155273E-3,2.228698730E-1,-1.475524902E-2
3.851064960E0,-1.029968262E-2,2.370147705E-1,-1.583862305E-2
3.856100360E0,-9.414672852E-3,2.521209717E-1,-1.683044434E-2
3.861145897E0,-1.037597656E-2,2.658691406E-1,-1.692199707E-2
3.866181298E0,-1.049804688E-2,2.788696289E-1,-1.777648926E-2
3.871216698E0,-1.144409180E-2,2.908935547E-1,-1.683044434E-2
3.876252099E0,-1.144409180E-2,3.037109375E-1,-1.696777344E-2
3.881287499E0,-1.129150391E-2,3.154602051E-1,-1.820373535E-2
3.886322899E0,-1.037597656E-2,3.260955811E-1,-2.003479004E-2
3.891358300E0,-1.057434082E-2,3.360137939E-1,-2.021789551E-2
3.896393700E0,-1.144409180E-2,3.462371826E-1,-2.090454102E-2
3.901429101E0,-1.103210449E-2,3.540039062E-1,-2.003479004E-2
3.906464501E0,-9.536743164E-3,3.624420166E-1,-1.980590820E-2
3.911499901E0,-1.014709473E-2,3.697662354E-1,-1.919555664E-2
3.916535302E0,-9.307861328E-3,3.757629395E-1,-2.027893066E-2
3.921570702E0,-9.582519531E-3,3.800811768E-1,-2.136230469E-2
3.926606102E0,-1.037597656E-2,3.849639893E-1,-2.188110352E-2
3.931641503E0,-1.037597656E-2,3.908691406E-1,-2.110290527E-2
3.936676903E0,-1.068115234E-2,3.948974609E-1,-2.139282227E-2
3.941712304E0,-1.176452637E-2,3.975067139E-1,-2.185058594E-2
3.946747704E0,-1.251220703E-2,3.982696533E-1,-2.142333984E-2
3.951783104E0,-1.217651367E-2,3.982696533E-1,-2.217102051E-2
3.956818505E0,-1.109313965E-2,3.979034424E-1,-2.180480957E-2
3.961853905E0,-1.075744629E-2,3.972015381E-1,-2.072143555E-2
3.966889306E0,-1.107788086E-2,3.964385986E-1,-2.040100098E-2
3.971924706E0,-1.037597656E-2,3.942718506E-1,-2.110290527E-2
3.976960106E0,-1.037597656E-2,3.912963867E-1,-2.110290527E-2
3.981995507E0,-1.080322266E-2,3.865509033E-1,-2.110290527E-2
3.987030907E0,-1.144409180E-2,3.815765381E-1,-2.153015137E-2
3.992066308E0,-1.144409180E-2,3.768005371E-1,-2.127075195E-2
3.997101708E0,-1.098632812E-2,3.704833984E-1,-1.956176758E-2
4.002137108E0,-1.132202148E-2,3.629150391E-1,-1.896667480E-2
4.007172509E0,-1.203918457E-2,3.543701172E-1,-1.847839355E-2
4.012207909E0,-1.144409180E-2,3.456573486E-1,-1.739501953E-2
4.017243310E0,-1.196289062E-2,3.371124268E-1,-1.683044434E-2
4.022278710E0,-1.200866699E-2,3.278961182E-1,-1.733398438E-2
4.027314110E0,-1.092529297E-2,3.176574707E-1,-1.789855957E-2
4.032349511E0,-1.147460938E-2,3.057250977E-1,-1.734924316E-2
4.037384911E0,-1.307678223E-2,2.938385010E-1,-1.683044434E-2
4.042420311E0,-1.358032227E-2,2.819824219E-1,-1.625061035E-2
4.047455712E0,-1.358032227E-2,2.689208984E-1,-1.576232910E-2
4.052491112E0,-1.358032227E-2,2.548522949E-1,-1.515197754E-2
4.057526513E0,-1.358032227E-2,2.407989502E-1,-1.408386230E-2
4.062561913E0,-1.295471191E-2,2.260742188E-1,-1.235961914E-2
4.067597313E0,-1.315307617E-2,2.109527588E-1,-1.084899902E-2
4.072632714E0,-1.423645020E-2,1.958465576E-1,-1.042175293E-2
4.077668114E0,-1.531982422E-2,1.793975830E-1,-1.042175293E-2
4.082703515E0,-1.571655273E-2,1.627655029E-1,-9.735107422E-3
4.087738915E0,-1.641845703E-2,1.465454102E-1,-8.651733398E-3
4.092774315E0,-1.678466797E-2,1.303253174E-1,-6.881713867E-3
4.097809716E0,-1.750183105E-2,1.112518311E-1,-5.432128906E-3
4.102845116E0,-1.640319824E-2,9.361267090E-2,-5.798339844E-3
4.107880517E0,-1.498413086E-2,7.740783691E-2,-5.401611328E-3
4.112915917E0,-1.541137695E-2,6.042480469E-2,-4.318237305E-3
4.117951317E0,-1.495361328E-2,4.159545898E-2,-3.234863281E-3
4.122986718E0,-1.464843750E-2,2.291870117E-2,-2.151489258E-3
4.128022118E0,-1.464843750E-2,6.195068359E-3,-1.083374023E-3
4.133057518E0,-1.545715332E-2,-1.168823242E-2,-8.087158203E-4
4.138092919E0,-1.490783691E-2,-3.009033203E-2,1.525878906E-5
4.143128319E0,-1.464843750E-2,-4.756164551E-2,2.746582031E-3
4.148163720E0,-1.464843750E-2,-6.567382812E-2,3.463745117E-3
4.153199120E0,-1.464843750E-2,-8.242797852E-2,3.463745117E-3
4.158234520E0,-1.551818848E-2,-1.011810303E-1,3.463745117E-3
4.163269921E0,-1.658630371E-2,-1.195678711E-1,3.463745117E-3
4.168305321E0,-1.678466797E-2,-1.363067627E-1,4.364013672E-3
4.173340722E0,-1.770019531E-2,-1.525573730E-1,4.531860352E-3
4.178376122E0,-1.693725586E-2,-1.678619385E-1,6.378173828E-3
4.183411522E0,-1.585388184E-2,-1.849517822E-1,8.544921875E-3
4.188446923E0,-1.478576660E-2,-2.002868652E-1,8.804321289E-3
4.193482323E0,-1.370239258E-2,-2.144622803E-1,9.765625000E-3
4.198517724E0,-1.358032227E-2,-2.304534912E-1,9.872436523E-3
4.203553124E0,-1.358032227E-2,-2.447052002E-1,1.184082031E-2
4.208588524E0,-1.258850098E-2,-2.587585449E-1,1.101684570E-2
4.213623925E0,-1.251220703E-2,-2.708587646E-1,1.196289062E-2
4.218659325E0,-1.354980469E-2,-2.837219238E-1,1.406860352E-2
4.223694726E0,-1.358032227E-2,-2.966918945E-1,1.312255859E-2
4.228730126E0,-1.254272461E-2,-3.075714111E-1,1.203918457E-2
4.233765526E0,-1.145935059E-2,-3.194427490E-1,1.414489746E-2
4.238800927E0,-1.039123535E-2,-3.291931152E-1,1.521301270E-2
4.243836327E0,-1.142883301E-2,-3.400115967E-1,1.521301270E-2
4.248871727E0,-1.034545898E-2,-3.486175537E-1,1.525878906E-2
4.253907128E0,-9.307861328E-3,-3.572235107E-1,1.634216309E-2
4.258942528E0,-9.368896484E-3,-3.646697998E-1,1.730346680E-2
4.263977929E0,-1.031494141E-2,-3.702239990E-1,1.628112793E-2
4.269013329E0,-9.307861328E-3,-3.776245117E-1,1.637268066E-2
4.274048729E0,-9.109497070E-3,-3.829498291E-1,1.734924316E-2
4.279084130E0,-7.293701172E-3,-3.872528076E-1,1.747131348E-2
4.284119530E0,-8.117675781E-3,-3.914489746E-1,1.841735840E-2
4.289154931E0,-7.171630859E-3,-3.945617676E-1,1.814270020E-2
4.294190331E0,-7.034301758E-3,-3.965606689E-1,1.628112793E-2
4.299225731E0,-5.950927734E-3,-3.974761963E-1,1.644897461E-2
4.304261132E0,-5.218505859E-3,-3.974761963E-1,1.718139648E-2
4.309296532E0,-6.103515625E-3,-3.976745605E-1,1.647949219E-2
4.314331933E0,-5.706787109E-3,-3.979492188E-1,1.756286621E-2
4.319367333E0,-4.196166992E-3,-3.949127197E-1,1.820373535E-2
4.324402733E0,-4.577636719E-3,-3.922882080E-1,1.712036133E-2
4.329438134E0,-3.143310547E-3,-3.879699707E-1,1.605224609E-2
4.334473534E0,-3.463745117E-3,-3.833923340E-1,1.521301270E-2
4.339508935E0,-1.571655273E-3,-3.777160645E-1,1.576232910E-2
4.344544335E0,-7.629394531E-4,-3.715057373E-1,1.679992676E-2
4.349579735E0,-7.629394531E-4,-3.658142090E-1,1.521301270E-2
4.354615136E0,-4.577636719E-4,-3.587188721E-1,1.521301270E-2
4.359650536E0,-1.525878906E-5,-3.497772217E-1,1.490783691E-2
4.364685936E0,-7.629394531E-4,-3.403320312E-1,1.448059082E-2
4.369721337E0,-4.272460938E-4,-3.310089111E-1,1.487731934E-2
4.374756737E0,3.051757812E-4,-3.198852539E-1,1.309204102E-2
4.379792138E0,6.713867188E-4,-3.090972900E-1,1.132202148E-2
4.384827538E0,1.373291016E-3,-2.993164062E-1,1.200866699E-2
4.389862938E0,9.765625000E-4,-2.873840332E-1,1.123046875E-2
4.394898339E0,7.019042969E-4,-2.750701904E-1,9.872436523E-3
4.399933739E0,2.197265625E-3,-2.617187500E-1,9.872436523E-3
4.404969140E0,3.509521484E-3,-2.472381592E-1,9.445190430E-3
4.410004540E0,3.051757812E-3,-2.321014404E-1,8.361816406E-3
4.415039940E0,3.356933594E-3,-2.169647217E-1,7.736206055E-3
4.420075341E0,4.577636719E-3,-2.013092041E-1,7.263183594E-3
4.425110741E0,5.065917969E-3,-1.860504150E-1,5.691528320E-3
4.430146142E0,5.142211914E-3,-1.720428467E-1,4.531860352E-3
4.435181542E0,5.584716797E-3,-1.559448242E-1,5.554199219E-3
4.440216942E0,6.713867188E-3,-1.380920410E-1,5.630493164E-3
4.445252343E0,6.713867188E-3,-1.213226318E-1,3.463745117E-3
4.450287743E0,6.713867188E-3,-1.051025391E-1,2.960205078E-3
4.455323143E0,7.263183594E-3,-8.944702148E-2,2.349853516E-3
4.460358544E0,7.202148438E-3,-7.316589355E-2,1.327514648E-3
4.465393944E0,6.713867188E-3,-5.598449707E-2,1.678466797E-4
4.470429345E0,6.713867188E-3,-3.805541992E-2,-1.403808594E-3
4.475464745E0,6.713867188E-3,-1.896667480E-2,-1.876831055E-3
4.480500145E0,6.713867188E-3,-7.629394531E-4,-2.502441406E-3
4.485535546E0,7.995605469E-3,1.782226562E-2,-3.585815430E-3
4.490570946E0,8.850097656E-3,3.532409668E-2,-3.356933594E-3
4.495606347E0,8.850097656E-3,5.287170410E-2,-4.272460938E-3
4.500641747E0,8.850097656E-3,6.988525391E-2,-6.439208984E-3
4.505677147E0,8.850097656E-3,8.743286133E-2,-7.217407227E-3
4.510712548E0,1.025390625E-2,1.037292480E-1,-7.217407227E-3
4.515747948E0,1.026916504E-2,1.202697754E-1,-7.919311523E-3
4.520783349E0,9.918212891E-3,1.360778809E-1,-9.735107422E-3
4.525818749E0,1.065063477E-2,1.519470215E-1,-1.115417480E-2
4.530854149E0,1.022338867E-2,1.689300537E-1,-1.298522949E-2
4.535889550E0,1.068115234E-2,1.846923828E-1,-1.362609863E-2
4.540924950E0,1.254272461E-2,2.006835938E-1,-1.362609863E-2
4.545960351E0,1.231384277E-2,2.160644531E-1,-1.441955566E-2
4.550995751E0,1.205444336E-2,2.295532227E-1,-1.548767090E-2
4.556031151E0,1.123046875E-2,2.425384521E-1,-1.576232910E-2
4.561066552E0,1.264953613E-2,2.546691895E-1,-1.492309570E-2
4.566101952E0,1.312255859E-2,2.691040039E-1,-1.637268066E-2
4.571137352E0,1.312255859E-2,2.816619873E-1,-1.683044434E-2
4.576172753E0,1.312255859E-2,2.935638428E-1,-1.856994629E-2
4.581208153E0,1.312255859E-2,3.036804199E-1,-1.983642578E-2
4.586243554E0,1.580810547E-2,3.125152588E-1,-1.913452148E-2
4.591278954E0,1.449584961E-2,3.220825195E-1,-1.986694336E-2
4.596314354E0,1.419067383E-2,3.308868408E-1,-2.095031738E-2
4.601349755E0,1.512145996E-2,3.395385742E-1,-2.015686035E-2
4.606385155E0,1.618957520E-2,3.481445312E-1,-2.003479004E-2
4.611420556E0,1.535034180E-2,3.549041748E-1,-2.003479004E-2
4.616455956E0,1.622009277E-2,3.603820801E-1,-2.099609375E-2
4.621491356E0,1.533508301E-2,3.657989502E-1,-2.110290527E-2
4.626526757E0,1.625061035E-2,3.712005615E-1,-2.110290527E-2
4.631562157E0,1.530456543E-2,3.756256104E-1,-2.210998535E-2
4.636597558E0,1.628112793E-2,3.778839111E-1,-2.319335938E-2
4.641632958E0,1.425170898E-2,3.789978027E-1,-2.220153809E-2
4.646668358E0,1.628112793E-2,3.800811768E-1,-2.320861816E-2
4.651703759E0,1.844787598E-2,3.801116943E-1,-2.323913574E-2
4.656739159E0,1.631164551E-2,3.822326660E-1,-2.322387695E-2
4.661774560E0,1.525878906E-2,3.801116943E-1,-2.217102051E-2
4.666809960E0,1.528930664E-2,3.800048828E-1,-2.217102051E-2
4.671845360E0,1.632690430E-2,3.767547607E-1,-2.221679688E-2
4.676880761E0,1.632690430E-2,3.734588623E-1,-2.311706543E-2
4.681916161E0,1.632690430E-2,3.689880371E-1,-2.110290527E-2
4.686951561E0,1.632690430E-2,3.625946045E-1,-2.101135254E-2
4.691986962E0,1.632690430E-2,3.571777344E-1,-2.021789551E-2
4.697022362E0,1.643371582E-2,3.516693115E-1,-2.204895020E-2
4.702057763E0,1.725769043E-2,3.451843262E-1,-2.134704590E-2
4.707093163E0,1.632690430E-2,3.382873535E-1,-2.296447754E-2
4.712128563E0,1.632690430E-2,3.287506104E-1,-2.110290527E-2
4.717163964E0,1.632690430E-2,3.197784424E-1,-2.093505859E-2
4.722199364E0,1.649475098E-2,3.092651367E-1,-2.003479004E-2
4.727234765E0,1.719665527E-2,3.002929688E-1,-2.003479004E-2
4.732270165E0,1.632690430E-2,2.892913818E-1,-1.983642578E-2
4.737305565E0,1.632690430E-2,2.771911621E-1,-1.875305176E-2
4.742340966E0,1.632690430E-2,2.642059326E-1,-1.789855957E-2
4.747376366E0,1.632690430E-2,2.512207031E-1,-1.765441895E-2
4.752411767E0,1.683044434E-2,2.379455566E-1,-1.657104492E-2
4.757447167E0,1.818847656E-2,2.242126465E-1,-1.548767090E-2
4.762482567E0,1.710510254E-2,2.106933594E-1,-1.469421387E-2
4.767517968E0,1.660156250E-2,1.956024170E-1,-1.469421387E-2
4.772553368E0,1.708984375E-2,1.808471680E-1,-1.469421387E-2
4.777588768E0,1.632690430E-2,1.666717529E-1,-1.437377930E-2
4.782624169E0,1.632690430E-2,1.516265869E-1,-1.329040527E-2
4.787659569E0,1.597595215E-2,1.346740723E-1,-1.220703125E-2
4.792694970E0,1.596069336E-2,1.180877686E-1,-1.112365723E-2
4.797730370E0,1.701354980E-2,1.007995605E-1,-1.042175293E-2
4.802765770E0,1.594543457E-2,8.425903320E-2,-1.042175293E-2
4.807801171E0,1.564025879E-2,6.832885742E-2,-1.042175293E-2
4.812836571E0,1.672363281E-2,5.062866211E-2,-9.597778320E-3
4.817871972E0,1.739501953E-2,3.350830078E-2,-8.285522461E-3
4.822907372E0,1.739501953E-2,1.663208008E-2,-6.973266602E-3
4.827942772E0,1.783752441E-2,-1.937866211E-3,-5.081176758E-3
4.832978173E0,1.754760742E-2,-1.828002930E-2,-5.081176758E-3
4.838013573E0,1.632690430E-2,-3.433227539E-2,-5.081176758E-3
4.843048974E0,1.632690430E-2,-5.218505859E-2,-4.104614258E-3
4.848084374E0,1.681518555E-2,-6.906127930E-2,-3.433227539E-3
4.853119774E0,1.687622070E-2,-8.471679688E-2,-3.494262695E-3
4.858155175E0,1.632690430E-2,-1.019287109E-1,-2.410888672E-3
4.863190575E0,1.632690430E-2,-1.192321777E-1,-1.876831055E-3
4.868225976E0,1.687622070E-2,-1.349639893E-1,-7.629394531E-4
4.873261376E0,1.683044434E-2,-1.506500244E-1,8.239746094E-4
4.878296776E0,1.574707031E-2,-1.673889160E-1,1.907348633E-3
4.883332177E0,1.466369629E-2,-1.828918457E-1,2.990722656E-3
4.888367577E0,1.358032227E-2,-1.975555420E-1,3.463745117E-3
4.893402977E0,1.432800293E-2,-2.126922607E-1,2.868652344E-3
4.898438378E0,1.461791992E-2,-2.266235352E-1,3.662109375E-3
4.903473778E0,1.354980469E-2,-2.395782471E-1,4.531860352E-3
4.908509179E0,1.376342773E-2,-2.525329590E-1,5.187988281E-3
4.913544579E0,1.351928711E-2,-2.648468018E-1,6.271362305E-3
4.918579979E0,1.243591309E-2,-2.760620117E-1,5.996704102E-3
4.923615380E0,1.205444336E-2,-2.889404297E-1,6.988525391E-3
4.928650780E0,1.063537598E-2,-3.016357422E-1,7.034301758E-3
4.933686181E0,9.201049805E-3,-3.120727539E-1,8.102416992E-3
4.938721581E0,9.567260742E-3,-3.203277588E-1,9.536743164E-3
4.943756981E0,9.918212891E-3,-3.293762207E-1,9.140014648E-3
4.948792382E0,9.155273438E-3,-3.368530273E-1,7.308959961E-3
4.953827782E0,8.850097656E-3,-3.448638916E-1,8.209228516E-3
4.958863183E0,8.056640625E-3,-3.519592285E-1,9.597778320E-3
4.963898583E0,6.988525391E-3,-3.576507568E-1,9.872436523E-3
4.968933983E0,7.507324219E-3,-3.638610840E-1,1.148986816E-2
4.973969384E0,7.781982422E-3,-3.679046631E-1,1.119995117E-2
4.979004784E0,5.279541016E-3,-3.719787598E-1,1.011657715E-2
4.984040185E0,6.256103516E-3,-3.754577637E-1,9.872436523E-3
4.989075585E0,5.844116211E-3,-3.778533936E-1,1.074218750E-2
4.994110985E0,5.645751953E-3,-3.800048828E-1,1.007080078E-2
4.999146386E0,5.645751953E-3,-3.812713623E-1,9.872436523E-3
5.004181786E0,3.845214844E-3,-3.805694580E-1,9.872436523E-3
5.009217186E0,1.678466797E-3,-3.794860840E-1,9.872436523E-3
5.014252587E0,1.373291016E-3,-3.774719238E-1,1.080322266E-2
5.019287987E0,4.180908203E-3,-3.762512207E-1,1.094055176E-2
5.024323388E0,1.724243164E-3,-3.742218018E-1,1.094055176E-2
5.029358788E0,1.373291016E-3,-3.701324463E-1,9.979248047E-3
5.034394188E0,1.373291016E-3,-3.658142090E-1,8.911132812E-3
5.039429589E0,-6.103515625E-4,-3.604888916E-1,8.804321289E-3
5.044464989E0,-7.629394531E-4,-3.540802002E-1,8.804321289E-3
5.049500390E0,2.441406250E-4,-3.475952148E-1,8.804321289E-3
5.054535790E0,1.327514648E-3,-3.380279541E-1,9.841918945E-3
5.059571190E0,-1.754760742E-3,-3.314208984E-1,8.834838867E-3
5.064606591E0,-1.831054688E-3,-3.228149414E-1,8.804321289E-3
5.069641991E0,-1.831054688E-3,-3.152313232E-1,5.599975586E-3
5.074677392E0,-1.831054688E-3,-3.046264648E-1,6.668090820E-3
5.079712792E0,-2.853393555E-3,-2.935638428E-1,6.668090820E-3
5.084748192E0,-7.629394531E-4,-2.806701660E-1,6.637573242E-3
5.089783593E0,-8.697509766E-4,-2.698211670E-1,5.599975586E-3
5.094818993E0,-2.960205078E-3,-2.568511963E-1,5.432128906E-3
5.099854393E0,-3.906250000E-3,-2.438812256E-1,2.395629883E-3
5.104889794E0,-2.899169922E-3,-2.308959961E-1,2.395629883E-3
5.109925194E0,-3.005981445E-3,-2.177581787E-1,2.502441406E-3
5.114960595E0,-3.860473633E-3,-2.036590576E-1,3.585815430E-3
5.119995995E0,-2.899169922E-3,-1.886444092E-1,4.409790039E-3
5.125031395E0,-3.051757812E-3,-1.744537354E-1,3.326416016E-3
5.130066796E0,-3.967285156E-3,-1.593170166E-1,2.258300781E-3
5.135102196E0,-4.135131836E-3,-1.438446045E-1,1.174926758E-3
5.140137597E0,-4.867553711E-3,-1.266479492E-1,2.593994141E-4
5.145172997E0,-3.967285156E-3,-1.107025146E-1,7.629394531E-5
5.150208397E0,-3.967285156E-3,-9.516906738E-2,-1.007080078E-3
5.155243798E0,-3.967285156E-3,-7.786560059E-2,-1.876831055E-3
5.160279198E0,-4.211425781E-3,-6.101989746E-2,-2.334594727E-3
5.165314599E0,-5.279541016E-3,-4.537963867E-2,-4.013061523E-3
5.170349999E0,-6.103515625E-3,-2.775573730E-2,-4.013061523E-3
5.175385399E0,-5.844116211E-3,-9.735107422E-3,-4.272460938E-3
5.180420800E0,-5.035400391E-3,7.003784180E-3,-5.081176758E-3
5.185456200E0,-5.035400391E-3,2.273559570E-2,-5.371093750E-3
5.190491601E0,-5.035400391E-3,3.971862793E-2,-6.149291992E-3
5.195527001E0,-5.371093750E-3,5.628967285E-2,-6.469726562E-3
5.200562401E0,-6.103515625E-3,7.328796387E-2,-7.553100586E-3
5.205597802E0,-5.767822266E-3,8.944702148E-2,-8.285522461E-3
5.210633202E0,-5.401611328E-3,1.056671143E-1,-8.285522461E-3
5.215668602E0,-6.103515625E-3,1.218872070E-1,-9.017944336E-3
5.220704003E0,-5.722045898E-3,1.381072998E-1,-1.080322266E-2
5.225739403E0,-5.447387695E-3,1.531219482E-1,-1.107788086E-2
5.230774804E0,-6.103515625E-3,1.669158936E-1,-1.165771484E-2
5.235810204E0,-6.530761719E-3,1.811981201E-1,-1.362609863E-2
5.240845604E0,-6.744384766E-3,1.950531006E-1,-1.274108887E-2
5.245881005E0,-6.103515625E-3,2.092895508E-1,-1.239013672E-2
5.250916405E0,-7.034301758E-3,2.222595215E-1,-1.408386230E-2
5.255951806E0,-7.766723633E-3,2.352447510E-1,-1.469421387E-2
5.260987206E0,-7.675170898E-3,2.481842041E-1,-1.518249512E-2
5.266022606E0,-7.751464844E-3,2.611083984E-1,-1.576232910E-2
5.271058007E0,-7.690429688E-3,2.730560303E-1,-1.676940918E-2
5.276093407E0,-8.773803711E-3,2.838745117E-1,-1.736450195E-2
5.281128808E0,-8.239746094E-3,2.941436768E-1,-1.628112793E-2
5.286164208E0,-7.736206055E-3,3.038787842E-1,-1.631164551E-2
5.291199608E0,-8.804321289E-3,3.130493164E-1,-1.737976074E-2
5.296235009E0,-9.307861328E-3,3.211212158E-1,-1.789855957E-2
5.301270409E0,-8.728027344E-3,3.286895752E-1,-1.789855957E-2
5.306305810E0,-8.239746094E-3,3.362579346E-1,-1.849365234E-2
5.311341210E0,-8.865356445E-3,3.425903320E-1,-1.896667480E-2
5.316376610E0,-8.682250977E-3,3.473663330E-1,-1.896667480E-2
5.321412011E0,-8.895874023E-3,3.523406982E-1,-1.896667480E-2
5.326447411E0,-9.963989258E-3,3.570861816E-1,-1.896667480E-2
5.331482811E0,-9.719848633E-3,3.600769043E-1,-2.029418945E-2
5.336518212E0,-9.307861328E-3,3.628997803E-1,-1.907348633E-2
5.341553612E0,-1.000976562E-2,3.647766113E-1,-1.927185059E-2
5.346589013E0,-1.037597656E-2,3.658599854E-1,-1.931762695E-2
5.351624413E0,-1.037597656E-2,3.669281006E-1,-1.824951172E-2
5.356659813E0,-9.658813477E-3,3.680114746E-1,-1.861572266E-2
5.361695214E0,-1.005554199E-2,3.668670654E-1,-1.896667480E-2
5.366730614E0,-1.037597656E-2,3.647155762E-1,-1.896667480E-2
5.371766015E0,-1.115417480E-2,3.625488281E-1,-1.818847656E-2
5.376801415E0,-1.068115234E-2,3.596343994E-1,-1.789855957E-2
5.381836815E0,-8.804321289E-3,3.547973633E-1,-1.867675781E-2
5.386872216E0,-9.857177734E-3,3.501739502E-1,-1.896667480E-2
5.391907616E0,-9.567260742E-3,3.450317383E-1,-1.649475098E-2
5.396943017E0,-1.014709473E-2,3.396301270E-1,-1.576232910E-2
5.401978417E0,-1.037597656E-2,3.333740234E-1,-1.576232910E-2
5.407013817E0,-1.295471191E-2,3.260345459E-1,-1.661682129E-2
5.412049218E0,-1.011657715E-2,3.193664551E-1,-1.596069336E-2
5.417084618E0,-1.019287109E-2,3.102569580E-1,-1.487731934E-2
5.422120018E0,-1.037597656E-2,3.005218506E-1,-1.379394531E-2
5.427155419E0,-9.475708008E-3,2.898864746E-1,-1.362609863E-2
5.432190819E0,-9.307861328E-3,2.781524658E-1,-1.545715332E-2
5.437226220E0,-9.307861328E-3,2.690124512E-1,-1.388549805E-2
5.442261620E0,-1.119995117E-2,2.575683594E-1,-1.362609863E-2
5.447297020E0,-1.336669922E-2,2.466430664E-1,-1.457214355E-2
5.452332421E0,-1.261901855E-2,2.358245850E-1,-1.274108887E-2
5.457367821E0,-1.251220703E-2,2.210845947E-1,-1.156616211E-2
5.462403222E0,-1.152038574E-2,2.069396973E-1,-9.490966797E-3
5.467438622E0,-1.144409180E-2,1.928863525E-1,-1.036071777E-2
5.472474022E0,-1.144409180E-2,1.788330078E-1,-1.042175293E-2
5.477509423E0,-1.351928711E-2,1.637420654E-1,-8.346557617E-3
5.482544823E0,-1.358032227E-2,1.496429443E-1,-6.179809570E-3
5.487580224E0,-1.252746582E-2,1.335601807E-1,-5.081176758E-3
5.492615624E0,-1.251220703E-2,1.184234619E-1,-5.081176758E-3
5.497651024E0,-1.254272461E-2,1.021270752E-1,-6.118774414E-3
5.502686425E0,-1.358032227E-2,8.705139160E-2,-5.050659180E-3
5.507721825E0,-1.358032227E-2,7.078552246E-2,-3.967285156E-3
5.512757226E0,-1.358032227E-2,5.358886719E-2,-2.883911133E-3
5.517792626E0,-1.365661621E-2,3.833007812E-2,-1.876831055E-3
5.522828026E0,-1.464843750E-2,2.110290527E-2,-1.785278320E-3
5.527863427E0,-1.455688477E-2,4.791259766E-3,-7.019042969E-4
5.532898827E0,-1.358032227E-2,-1.249694824E-2,2.593994141E-4
5.537934227E0,-1.358032227E-2,-2.967834473E-2,2.593994141E-4
5.542969628E0,-1.371765137E-2,-4.589843750E-2,5.340576172E-4
5.548005028E0,-1.480102539E-2,-6.211853027E-2,2.258300781E-3
5.553040429E0,-1.541137695E-2,-7.833862305E-2,1.647949219E-3
5.558075829E0,-1.358032227E-2,-9.439086914E-2,3.463745117E-3
5.563111229E0,-1.358032227E-2,-1.097106934E-1,3.845214844E-3
5.568146630E0,-1.377868652E-2,-1.259307861E-1,5.798339844E-3
5.573182030E0,-1.445007324E-2,-1.419372559E-1,6.881713867E-3
5.578217431E0,-1.336669922E-2,-1.570739746E-1,7.736206055E-3
5.583252831E0,-1.251220703E-2,-1.719665527E-1,7.980346680E-3
5.588288231E0,-1.277160645E-2,-1.860351562E-1,8.804321289E-3
5.593323632E0,-1.385498047E-2,-1.998291016E-1,9.078979492E-3
5.598359032E0,-1.411437988E-2,-2.130584717E-1,9.872436523E-3
5.603394433E0,-1.280212402E-2,-2.267608643E-1,9.872436523E-3
5.608429833E0,-1.300048828E-2,-2.397308350E-1,1.046752930E-2
5.613465233E0,-1.113891602E-2,-2.521209717E-1,1.200866699E-2
5.618500634E0,-1.037597656E-2,-2.629547119E-1,1.168823242E-2
5.623536034E0,-1.037597656E-2,-2.733917236E-1,1.127624512E-2
5.628571435E0,-1.037597656E-2,-2.838134766E-1,1.235961914E-2
5.633606835E0,-1.002502441E-2,-2.946166992E-1,1.380920410E-2
5.638642235E0,-8.941650391E-3,-3.040161133E-1,1.484680176E-2
5.643677636E0,-7.858276367E-3,-3.132934570E-1,1.376342773E-2
5.648713036E0,-7.980346680E-3,-3.205718994E-1,1.348876953E-2
5.653748436E0,-9.307861328E-3,-3.288116455E-1,1.457214355E-2
5.658783837E0,-8.468627930E-3,-3.355255127E-1,1.564025879E-2
5.663819237E0,-6.744384766E-3,-3.404998779E-1,1.628112793E-2
5.668854638E0,-6.561279297E-3,-3.452606201E-1,1.628112793E-2
5.673890038E0,-6.713867188E-3,-3.501892090E-1,1.628112793E-2
5.678925438E0,-5.645751953E-3,-3.545074463E-1,1.582336426E-2
5.683960839E0,-5.523681641E-3,-3.583221436E-1,1.521301270E-2
5.688996239E0,-6.103515625E-3,-3.615875244E-1,1.622009277E-2
5.694031640E0,-5.599975586E-3,-3.632965088E-1,1.734924316E-2
5.699067040E0,-3.997802734E-3,-3.632965088E-1,1.683044434E-2
5.704102440E0,-1.831054688E-3,-3.638458252E-1,1.574707031E-2
5.709137841E0,-1.327514648E-3,-3.643646240E-1,1.577758789E-2
5.714173241E0,-1.281738281E-3,-3.638153076E-1,1.684570312E-2
5.719208642E0,-7.629394531E-4,-3.609924316E-1,1.678466797E-2
5.724244042E0,-7.629394531E-4,-3.572692871E-1,1.570129395E-2
5.729279442E0,-1.678466797E-4,-3.540191650E-1,1.521301270E-2
5.734314843E0,9.155273438E-4,-3.501586914E-1,1.521301270E-2
5.739350243E0,1.373291016E-3,-3.451995850E-1,1.458740234E-2
5.744385643E0,9.155273438E-5,-3.398132324E-1,1.542663574E-2
5.749421044E0,-7.629394531E-4,-3.337707520E-1,1.564025879E-2
5.754456444E0,-1.068115234E-4,-3.272857666E-1,1.521301270E-2
5.759491845E0,9.765625000E-4,-3.201293945E-1,1.454162598E-2
5.764527245E0,1.373291016E-3,-3.118438721E-1,1.345825195E-2
5.769562645E0,6.561279297E-4,-3.025054932E-1,1.307678223E-2
5.774598046E0,1.007080078E-3,-2.935028076E-1,1.237487793E-2
5.779633446E0,2.090454102E-3,-2.826690674E-1,1.274108887E-2
5.784668847E0,3.173828125E-3,-2.707824707E-1,1.086425781E-2
5.789704247E0,2.746582031E-3,-2.596435547E-1,9.872436523E-3
5.794739647E0,3.204345703E-3,-2.488250732E-1,1.065063477E-2
5.799775048E0,3.509521484E-3,-2.364501953E-1,1.094055176E-2
5.804810448E0,3.509521484E-3,-2.234802246E-1,9.368896484E-3
5.809845849E0,2.700805664E-3,-2.105102539E-1,8.804321289E-3
5.814881249E0,1.617431641E-3,-1.959686279E-1,7.995605469E-3
5.819916649E0,5.340576172E-4,-1.833190918E-1,6.088256836E-3
5.824952050E0,1.983642578E-3,-1.696777344E-1,7.293701172E-3
5.829987450E0,4.135131836E-3,-1.539764404E-1,6.042480469E-3
5.835022851E0,4.577636719E-3,-1.395111084E-1,6.469726562E-3
5.840058251E0,3.692626953E-3,-1.236877441E-1,4.913330078E-3
5.845093651E0,1.724243164E-3,-1.083679199E-1,3.646850586E-3
5.850129052E0,2.273559570E-3,-9.233093262E-2,2.563476562E-3
5.855164452E0,3.356933594E-3,-7.611083984E-2,5.645751953E-4
5.860199852E0,2.578735352E-3,-5.989074707E-2,-1.586914062E-3
5.865235253E0,3.372192383E-3,-4.367065430E-2,1.525878906E-5
5.870270653E0,3.509521484E-3,-2.648925781E-2,-1.647949219E-3
5.875306054E0,4.470825195E-3,-1.217651367E-2,-3.799438477E-3
5.880341454E0,5.538940430E-3,4.791259766E-3,-3.036499023E-3
5.885376854E0,4.638671875E-3,2.218627930E-2,-4.928588867E-3
5.890412255E0,5.569458008E-3,3.739929199E-2,-5.081176758E-3
5.895447655E0,4.623413086E-3,5.354309082E-2,-6.088256836E-3
5.900483056E0,4.577636719E-3,7.078552246E-2,-7.171630859E-3
5.905518456E0,4.577636719E-3,8.496093750E-2,-7.217407227E-3
5.910553856E0,5.630493164E-3,9.901428223E-2,-8.270263672E-3
5.915589257E0,4.577636719E-3,1.152191162E-1,-9.353637695E-3
5.920624657E0,5.645751953E-3,1.303558350E-1,-9.338378906E-3
5.925660058E0,6.713867188E-3,1.454925537E-1,-8.300781250E-3
5.930695458E0,6.744384766E-3,1.605834961E-1,-9.353637695E-3
5.935730858E0,7.827758789E-3,1.746368408E-1,-9.399414062E-3
5.940766259E0,8.712768555E-3,1.887664795E-1,-1.060485840E-2
5.945801659E0,6.713867188E-3,2.037353516E-1,-1.377868652E-2
5.950837060E0,6.881713867E-3,2.164611816E-1,-1.567077637E-2
5.955872460E0,8.850097656E-3,2.273712158E-1,-1.469421387E-2
5.960907860E0,8.728027344E-3,2.393798828E-1,-1.480102539E-2
5.965943261E0,7.904052734E-3,2.522277832E-1,-1.600646973E-2
5.970978661E0,8.850097656E-3,2.638549805E-1,-1.803588867E-2
5.976014061E0,8.987426758E-3,2.737274170E-1,-1.896667480E-2
5.981049462E0,9.750366211E-3,2.841949463E-1,-1.896667480E-2
5.986084862E0,8.682250977E-3,2.927703857E-1,-1.911926270E-2
5.991120263E0,8.529663086E-3,3.017120361E-1,-1.983642578E-2
5.996155663E0,1.184082031E-2,3.112335205E-1,-1.855468750E-2
6.001191063E0,1.075744629E-2,3.192291260E-1,-1.704406738E-2
6.006226464E0,1.014709473E-2,3.248748779E-1,-1.812744141E-2
6.011261864E0,1.074218750E-2,3.311157227E-1,-1.919555664E-2
6.016297265E0,1.042175293E-2,3.362579346E-1,-2.053833008E-2
6.021332665E0,1.231384277E-2,3.405609131E-1,-2.189636230E-2
6.026368065E0,1.312255859E-2,3.448944092E-1,-2.081298828E-2
6.031403466E0,1.312255859E-2,3.486328125E-1,-2.059936523E-2
6.036438866E0,1.281738281E-2,3.507995605E-1,-2.217102051E-2
6.041474267E0,1.173400879E-2,3.529663086E-1,-2.185058594E-2
6.046509667E0,1.130676270E-2,3.547973633E-1,-2.076721191E-2
6.051545067E0,1.205444336E-2,3.548583984E-1,-2.070617676E-2
6.056580468E0,1.240539551E-2,3.537597656E-1,-2.217102051E-2
6.061615868E0,1.385498047E-2,3.537292480E-1,-2.178955078E-2
6.066651268E0,1.449584961E-2,3.515777588E-1,-2.110290527E-2
6.071686669E0,1.312255859E-2,3.490142822E-1,-2.110290527E-2
6.076722069E0,1.271057129E-2,3.453826904E-1,-2.110290527E-2
6.081757470E0,1.246643066E-2,3.414764404E-1,-2.110290527E-2
6.086792870E0,1.396179199E-2,3.373870850E-1,-2.110290527E-2
6.091828270E0,1.525878906E-2,3.319702148E-1,-2.153015137E-2
6.096863671E0,1.480102539E-2,3.265533447E-1,-2.171325684E-2
6.101899071E0,1.371765137E-2,3.202362061E-1,-2.062988281E-2
6.106934472E0,1.312255859E-2,3.126678467E-1,-2.003479004E-2
6.111969872E0,1.261901855E-2,3.046112061E-1,-2.003479004E-2
6.117005272E0,1.255798340E-2,2.959594727E-1,-1.901245117E-2
6.122040673E0,1.362609863E-2,2.867889404E-1,-1.892089844E-2
6.127076073E0,1.365661621E-2,2.781219482E-1,-2.003479004E-2
6.132111474E0,1.365661621E-2,2.683715820E-1,-1.893615723E-2
6.137146874E0,1.362609863E-2,2.564849854E-1,-1.676940918E-2
6.142182274E0,1.254272461E-2,2.451629639E-1,-1.632690430E-2
6.147217675E0,1.205444336E-2,2.337646484E-1,-1.683044434E-2
6.152253075E0,1.205444336E-2,2.212829590E-1,-1.742553711E-2
6.157288476E0,1.325988770E-2,2.082977295E-1,-1.728820801E-2
6.162323876E0,1.356506348E-2,1.953735352E-1,-1.557922363E-2
6.167359276E0,1.248168945E-2,1.811676025E-1,-1.405334473E-2
6.172394677E0,1.205444336E-2,1.679687500E-1,-1.490783691E-2
6.177430077E0,1.205444336E-2,1.540985107E-1,-1.445007324E-2
6.182465477E0,1.205444336E-2,1.382293701E-1,-1.362609863E-2
6.187500878E0,1.272583008E-2,1.234130859E-1,-1.362609863E-2
6.192536278E0,1.380920410E-2,1.080017090E-1,-1.292419434E-2
6.197571679E0,1.419067383E-2,9.178161621E-2,-1.184082031E-2
6.202607079E0,1.419067383E-2,7.699584961E-2,-1.004028320E-2
6.207642479E0,1.419067383E-2,6.221008301E-2,-8.605957031E-3
6.212677880E0,1.269531250E-2,4.557800293E-2,-9.017944336E-3
6.217713280E0,1.205444336E-2,2.911376953E-2,-7.827758789E-3
6.222748681E0,1.127624512E-2,1.445007324E-2,-6.439208984E-3
6.227784081E0,1.176452637E-2,-1.937866211E-3,-6.149291992E-3
6.232819481E0,1.283264160E-2,-1.924133301E-2,-6.149291992E-3
6.237854882E0,1.231384277E-2,-3.573608398E-2,-5.340576172E-3
6.242890282E0,1.205444336E-2,-5.195617676E-2,-4.257202148E-3
6.247925683E0,1.205444336E-2,-6.733703613E-2,-3.173828125E-3
6.252961083E0,1.205444336E-2,-8.331298828E-2,-2.944946289E-3
6.257996483E0,1.205444336E-2,-9.867858887E-2,-2.944946289E-3
6.263031884E0,1.205444336E-2,-1.138153076E-1,-2.944946289E-3
6.268067284E0,1.292419434E-2,-1.280670166E-1,-2.944946289E-3
6.273102685E0,1.222229004E-2,-1.430206299E-1,-2.441406250E-4
6.278138085E0,1.113891602E-2,-1.572570801E-1,1.174926758E-3
6.283173485E0,1.005554199E-2,-1.730651855E-1,1.327514648E-3
6.288208886E0,9.918212891E-3,-1.863403320E-1,1.327514648E-3
6.293244286E0,1.084899902E-2,-2.013244629E-1,1.327514648E-3
6.298279686E0,1.098632812E-2,-2.145690918E-1,2.288818359E-3
6.303315087E0,1.000976562E-2,-2.265777588E-1,3.372192383E-3
6.308350487E0,8.926391602E-3,-2.384643555E-1,4.455566406E-3
6.313385888E0,8.850097656E-3,-2.513580322E-1,5.538940430E-3
6.318421288E0,8.850097656E-3,-2.613067627E-1,5.599975586E-3
6.323456688E0,9.857177734E-3,-2.720489502E-1,5.599975586E-3
6.328492089E0,8.880615234E-3,-2.839050293E-1,5.599975586E-3
6.333527489E0,7.797241211E-3,-2.937011719E-1,5.599975586E-3
6.338562890E0,6.713867188E-3,-3.013000488E-1,7.736206055E-3
6.343598290E0,8.850097656E-3,-3.120727539E-1,6.683349609E-3
6.348633690E0,8.804321289E-3,-3.185729980E-1,7.766723633E-3
6.353669091E0,6.729125977E-3,-3.261108398E-1,8.834838867E-3
6.358704491E0,7.659912109E-3,-3.335571289E-1,9.796142578E-3
6.363739892E0,4.623413086E-3,-3.380279541E-1,7.690429688E-3
6.368775292E0,5.706787109E-3,-3.442687988E-1,6.805419922E-3
6.373810692E0,6.622314453E-3,-3.475189209E-1,8.804321289E-3
6.378846093E0,5.538940430E-3,-3.506774902E-1,8.804321289E-3
6.383881493E0,4.669189453E-3,-3.530426025E-1,8.804321289E-3
6.388916893E0,5.523681641E-3,-3.571319580E-1,8.804321289E-3
6.393952294E0,4.577636719E-3,-3.589019775E-1,8.941650391E-3
6.398987694E0,4.287719727E-3,-3.582458496E-1,9.872436523E-3
6.404023095E0,2.441406250E-3,-3.597869873E-1,1.004028320E-2
6.409058495E0,2.258300781E-3,-3.579559326E-1,1.077270508E-2
6.414093895E0,1.373291016E-3,-3.576049805E-1,9.872436523E-3
6.419129296E0,1.373291016E-3,-3.552551270E-1,9.689331055E-3
6.424164696E0,1.373291016E-3,-3.517913818E-1,9.017944336E-3
6.429200097E0,1.373291016E-3,-3.476867676E-1,9.658813477E-3
6.434235497E0,9.002685547E-4,-3.442230225E-1,8.804321289E-3
6.439270897E0,-1.007080078E-3,-3.394165039E-1,8.804321289E-3
6.444306298E0,-2.349853516E-3,-3.334503174E-1,8.804321289E-3
6.449341698E0,-3.707885742E-3,-3.285675049E-1,8.804321289E-3
6.454377099E0,-2.624511719E-3,-3.217773438E-1,8.804321289E-3
6.459412499E0,-1.541137695E-3,-3.136596680E-1,8.804321289E-3
6.464447899E0,-1.693725586E-3,-3.045349121E-1,8.193969727E-3
6.469483300E0,-3.646850586E-3,-2.972869873E-1,6.668090820E-3
6.474518700E0,-3.234863281E-3,-2.894592285E-1,6.347656250E-3
6.479554101E0,-3.631591797E-3,-2.783050537E-1,5.264282227E-3
6.484589501E0,-3.631591797E-3,-2.671356201E-1,5.264282227E-3
6.489624901E0,-5.035400391E-3,-2.562866211E-1,6.301879883E-3
6.494660302E0,-5.035400391E-3,-2.440795898E-1,5.218505859E-3
6.499695702E0,-4.638671875E-3,-2.328643799E-1,4.943847656E-3
6.504731102E0,-3.555297852E-3,-2.213897705E-1,5.187988281E-3
6.509766503E0,-4.180908203E-3,-2.097320557E-1,4.119873047E-3
6.514801903E0,-6.103515625E-3,-1.959075928E-1,3.036499023E-3
6.519837304E0,-5.661010742E-3,-1.812744141E-1,2.395629883E-3
6.524872704E0,-4.119873047E-3,-1.672210693E-1,2.868652344E-3
6.529908104E0,-3.845214844E-3,-1.526947021E-1,2.059936523E-3
6.534943505E0,-5.035400391E-3,-1.385192871E-1,2.593994141E-4
6.539978905E0,-5.035400391E-3,-1.235046387E-1,2.593994141E-4
6.545014306E0,-5.554199219E-3,-1.062011719E-1,2.593994141E-4
6.550049706E0,-4.531860352E-3,-9.053039551E-2,-7.781982422E-4
6.555085106E0,-2.899169922E-3,-7.647705078E-2,-1.327514648E-3
6.560120507E0,-2.899169922E-3,-6.185913086E-2,-8.087158203E-4
6.565155907E0,-2.899169922E-3,-4.672241211E-2,-1.358032227E-3
6.570191308E0,-3.479003906E-3,-2.986145020E-2,-2.441406250E-3
6.575226708E0,-3.967285156E-3,-1.324462891E-2,-3.524780273E-3
6.580262108E0,-3.372192383E-3,2.487182617E-3,-4.013061523E-3
6.585297509E0,-3.524780273E-3,1.742553711E-2,-5.233764648E-3
6.590332909E0,-3.967285156E-3,3.318786621E-2,-7.369995117E-3
6.595368310E0,-4.608154297E-3,4.927062988E-2,-7.019042969E-3
6.600403710E0,-4.394531250E-3,6.518554688E-2,-6.149291992E-3
6.605439110E0,-3.967285156E-3,8.071899414E-2,-6.149291992E-3
6.610474511E0,-3.967285156E-3,9.582519531E-2,-6.149291992E-3
6.615509911E0,-3.280639648E-3,1.116485596E-1,-6.835937500E-3
6.620545311E0,-2.899169922E-3,1.271667480E-1,-8.605957031E-3
6.625580712E0,-3.616333008E-3,1.415863037E-1,-1.005554199E-2
6.630616112E0,-4.699707031E-3,1.564331055E-1,-1.113891602E-2
6.635651513E0,-4.302978516E-3,1.707916260E-1,-1.222229004E-2
6.640686913E0,-3.967285156E-3,1.833190918E-1,-1.179504395E-2
6.645722313E0,-3.204345703E-3,1.959686279E-1,-1.148986816E-2
6.650757714E0,-3.692626953E-3,2.105102539E-1,-1.226806641E-2
6.655793114E0,-3.189086914E-3,2.232666016E-1,-1.412963867E-2
6.660828515E0,-2.899169922E-3,2.343597412E-1,-1.388549805E-2
6.665863915E0,-4.547119141E-3,2.459869385E-1,-1.362609863E-2
6.670899315E0,-5.035400391E-3,2.562103271E-1,-1.445007324E-2
6.675934716E0,-5.035400391E-3,2.667846680E-1,-1.469421387E-2
6.680970116E0,-5.035400391E-3,2.776031494E-1,-1.554870605E-2
6.686005517E0,-3.295898438E-3,2.866668701E-1,-1.576232910E-2
6.691040917E0,-3.784179688E-3,2.962036133E-1,-1.487731934E-2
6.696076317E0,-4.867553711E-3,3.041381836E-1,-1.469421387E-2
6.701111718E0,-4.135131836E-3,3.108062744E-1,-1.559448242E-2
6.706147118E0,-6.729125977E-3,3.190917969E-1,-1.667785645E-2
6.711182518E0,-6.256103516E-3,3.249359131E-1,-1.683044434E-2
6.716217919E0,-5.172729492E-3,3.294067383E-1,-1.683044434E-2
6.721253319E0,-6.973266602E-3,3.337554932E-1,-1.683044434E-2
6.726288720E0,-9.124755859E-3,3.380584717E-1,-1.779174805E-2
6.731324120E0,-8.331298828E-3,3.414001465E-1,-1.789855957E-2
6.736359520E0,-8.239746094E-3,3.426513672E-1,-1.889038086E-2
6.741394921E0,-7.232666016E-3,3.447418213E-1,-1.794433594E-2
6.746430321E0,-8.193969727E-3,3.468933105E-1,-1.789855957E-2
6.751465722E0,-8.239746094E-3,3.470001221E-1,-1.686096191E-2
6.756501122E0,-8.239746094E-3,3.470001221E-1,-1.786804199E-2
6.761536522E0,-7.186889648E-3,3.470001221E-1,-1.683044434E-2
6.766571923E0,-8.239746094E-3,3.459014893E-1,-1.681518555E-2
6.771607323E0,-8.270263672E-3,3.426361084E-1,-1.577758789E-2
6.776642724E0,-9.277343750E-3,3.383483887E-1,-1.686096191E-2
6.781678124E0,-8.300781250E-3,3.350982666E-1,-1.783752441E-2
6.786713524E0,-9.262084961E-3,3.318023682E-1,-1.676940918E-2
6.791748925E0,-8.392333984E-3,3.274078369E-1,-1.582336426E-2
6.796784325E0,-1.037597656E-2,3.219146729E-1,-1.683044434E-2
6.801819726E0,-1.019287109E-2,3.153686523E-1,-1.683044434E-2
6.806855126E0,-8.239746094E-3,3.079071045E-1,-1.672363281E-2
6.811890526E0,-8.499145508E-3,3.011474609E-1,-1.576232910E-2
6.816925927E0,-1.037597656E-2,2.925415039E-1,-1.588439941E-2
6.821961327E0,-1.023864746E-2,2.837371826E-1,-1.654052734E-2
6.826996727E0,-9.307861328E-3,2.741699219E-1,-1.437377930E-2
6.832032128E0,-9.490966797E-3,2.651824951E-1,-1.289367676E-2
6.837067528E0,-1.075744629E-2,2.541656494E-1,-1.449584961E-2
6.842102929E0,-1.251220703E-2,2.424316406E-1,-1.362609863E-2
6.847138329E0,-1.231384277E-2,2.314605713E-1,-1.298522949E-2
6.852173729E0,-1.100158691E-2,2.193450928E-1,-1.042175293E-2
6.857209130E0,-9.552001953E-3,2.063751221E-1,-9.704589844E-3
6.862244530E0,-1.013183594E-2,1.934051514E-1,-7.217407227E-3
6.867279931E0,-9.582519531E-3,1.801605225E-1,-7.476806641E-3
6.872315331E0,-1.094055176E-2,1.663818359E-1,-7.995605469E-3
6.877350731E0,-1.194763184E-2,1.531219482E-1,-7.217407227E-3
6.882386132E0,-1.037597656E-2,1.387634277E-1,-6.912231445E-3
6.887421532E0,-1.037597656E-2,1.239471436E-1,-6.149291992E-3
6.892456933E0,-1.037597656E-2,1.096191406E-1,-5.813598633E-3
6.897492333E0,-1.071166992E-2,9.454345703E-2,-4.745483398E-3
6.902527733E0,-1.074218750E-2,7.931518555E-2,-4.013061523E-3
6.907563134E0,-9.307861328E-3,6.352233887E-2,-2.929687500E-3
6.912598534E0,-9.307861328E-3,4.771423340E-2,-8.087158203E-4
6.917633935E0,-9.307861328E-3,3.356933594E-2,-8.087158203E-4
6.922669335E0,-8.911132812E-3,1.736450195E-2,-1.205444336E-3
6.927704735E0,-8.239746094E-3,1.510620117E-3,-1.876831055E-3
6.932740136E0,-8.239746094E-3,-1.406860352E-2,-1.007080078E-3
6.937775536E0,-9.124755859E-3,-2.978515625E-2,2.593994141E-4
6.942810936E0,-1.037597656E-2,-4.537963867E-2,1.174926758E-3
6.947846337E0,-9.918212891E-3,-6.066894531E-2,1.937866211E-3
6.952881737E0,-9.307861328E-3,-7.568359375E-2,1.815795898E-3
6.957917138E0,-9.811401367E-3,-9.144592285E-2,2.899169922E-3
6.962952538E0,-1.037597656E-2,-1.065979004E-1,3.463745117E-3
6.967987938E0,-9.353637695E-3,-1.206512451E-1,3.982543945E-3
6.973023339E0,-7.720947266E-3,-1.346740723E-1,5.065917969E-3
6.978058739E0,-7.720947266E-3,-1.487274170E-1,5.599975586E-3
6.983094140E0,-8.804321289E-3,-1.617126465E-1,6.164550781E-3
6.988129540E0,-1.045227051E-2,-1.746826172E-1,6.668090820E-3
6.993164940E0,-1.086425781E-2,-1.888275146E-1,6.088256836E-3
6.998200341E0,-9.185791016E-3,-2.027587891E-1,7.400512695E-3
7.003235741E0,-8.850097656E-3,-2.157440186E-1,8.804321289E-3
7.008271142E0,-8.697509766E-3,-2.268524170E-1,8.804321289E-3
7.013306542E0,-7.614135742E-3,-2.378540039E-1,9.445190430E-3
7.018341942E0,-7.171630859E-3,-2.490997314E-1,9.872436523E-3
7.023377343E0,-7.171630859E-3,-2.599029541E-1,1.119995117E-2
7.028412743E0,-7.171630859E-3,-2.693634033E-1,1.200866699E-2
7.033448143E0,-8.560180664E-3,-2.787017822E-1,1.271057129E-2
7.038483544E0,-1.000976562E-2,-2.877349854E-1,1.307678223E-2
7.043518944E0,-8.956909180E-3,-2.963562012E-1,1.451110840E-2
7.048554345E0,-7.522583008E-3,-3.035736084E-1,1.449584961E-2
7.053589745E0,-6.439208984E-3,-3.100433350E-1,1.489257812E-2
7.058625145E0,-7.598876953E-3,-3.172607422E-1,1.521301270E-2
7.063660546E0,-7.492065430E-3,-3.217926025E-1,1.521301270E-2
7.068695946E0,-5.630493164E-3,-3.258056641E-1,1.445007324E-2
7.073731347E0,-5.828857422E-3,-3.301391602E-1,1.493835449E-2
7.078766747E0,-6.912231445E-3,-3.336791992E-1,1.441955566E-2
7.083802147E0,-7.171630859E-3,-3.369140625E-1,1.577758789E-2
7.088837548E0,-5.523681641E-3,-3.401489258E-1,1.545715332E-2
7.093872948E0,-5.035400391E-3,-3.417053223E-1,1.605224609E-2
7.098908349E0,-4.196166992E-3,-3.427886963E-1,1.544189453E-2
7.103943749E0,-3.967285156E-3,-3.430023193E-1,1.435852051E-2
7.108979149E0,-3.097534180E-3,-3.412475586E-1,1.327514648E-2
7.114014550E0,-3.799438477E-3,-3.399810791E-1,1.307678223E-2
7.119049950E0,-3.067016602E-3,-3.388977051E-1,1.399230957E-2
7.124085351E0,-2.899169922E-3,-3.368988037E-1,1.322937012E-2
7.129120751E0,-1.983642578E-3,-3.328857422E-1,1.307678223E-2
7.134156151E0,-9.002685547E-4,-3.304443359E-1,1.307678223E-2
7.139191552E0,1.831054688E-4,-3.244476318E-1,1.213073730E-2
7.144226952E0,3.051757812E-4,-3.208770752E-1,1.200866699E-2
7.149262352E0,-6.866455078E-4,-3.156585693E-1,1.200866699E-2
7.154297753E0,1.220703125E-3,-3.062744141E-1,1.200866699E-2
7.159333153E0,-6.561279297E-4,-2.995758057E-1,1.200866699E-2
7.164368554E0,2.441406250E-4,-2.931213379E-1,1.100158691E-2
7.169403954E0,3.051757812E-4,-2.855682373E-1,1.094055176E-2
7.174439354E0,1.342773438E-3,-2.759552002E-1,9.902954102E-3
7.179474755E0,2.426147461E-3,-2.651672363E-1,9.872436523E-3
7.184510155E0,2.441406250E-3,-2.543487549E-1,9.872436523E-3
7.189545556E0,2.441406250E-3,-2.446136475E-1,9.857177734E-3
7.194580956E0,3.524780273E-3,-2.337799072E-1,7.736206055E-3
7.199616356E0,4.608154297E-3,-2.219848633E-1,7.781982422E-3
7.204651757E0,5.584716797E-3,-2.109527588E-1,8.651733398E-3
7.209687157E0,4.638671875E-3,-1.970977783E-1,5.599975586E-3
7.214722558E0,5.554199219E-3,-1.860504150E-1,5.447387695E-3
7.219757958E0,4.653930664E-3,-1.721496582E-1,3.387451172E-3
7.224793358E0,5.844116211E-3,-1.589965820E-1,2.609252930E-3
7.229828759E0,7.781982422E-3,-1.449890137E-1,4.409790039E-3
7.234864159E0,7.644653320E-3,-1.318206787E-1,3.341674805E-3
7.239899560E0,6.713867188E-3,-1.165466309E-1,2.548217773E-3
7.244934960E0,6.866455078E-3,-1.006469727E-1,3.158569336E-3
7.249970360E0,7.598876953E-3,-8.657836914E-2,1.159667969E-3
7.255005761E0,6.515502930E-3,-7.215881348E-2,-1.068115234E-4
7.260041161E0,5.645751953E-3,-5.613708496E-2,-1.876831055E-3
7.265076561E0,5.645751953E-3,-4.100036621E-2,-2.288818359E-3
7.270111962E0,5.645751953E-3,-2.586364746E-2,-4.013061523E-3
7.275147362E0,5.874633789E-3,-1.074218750E-2,-3.768920898E-3
7.280182763E0,6.942749023E-3,4.577636719E-3,-3.173828125E-3
7.285218163E0,7.507324219E-3,2.061462402E-2,-4.272460938E-3
7.290253563E0,6.713867188E-3,3.602600098E-2,-5.355834961E-3
7.295288964E0,6.713867188E-3,5.195617676E-2,-6.423950195E-3
7.300324364E0,6.713867188E-3,6.706237793E-2,-7.507324219E-3
7.305359765E0,6.393432617E-3,8.152770996E-2,-8.285522461E-3
7.310395165E0,5.310058594E-3,9.481811523E-2,-8.926391602E-3
7.315430565E0,5.249023438E-3,1.092376709E-1,-9.735107422E-3
7.320465966E0,6.713867188E-3,1.244049072E-1,-8.636474609E-3
7.325501366E0,6.347656250E-3,1.394805908E-1,-9.704589844E-3
7.330536767E0,6.011962891E-3,1.538696289E-1,-1.115417480E-2
7.335572167E0,6.713867188E-3,1.672363281E-1,-1.255798340E-2
7.340607567E0,6.713867188E-3,1.804962158E-1,-1.255798340E-2
7.345642968E0,7.125854492E-3,1.928253174E-1,-1.296997070E-2
7.350678368E0,7.781982422E-3,2.049560547E-1,-1.362609863E-2
7.355713768E0,7.339477539E-3,2.161712646E-1,-1.449584961E-2
7.360749169E0,6.256103516E-3,2.280578613E-1,-1.666259766E-2
7.365784569E0,5.172729492E-3,2.390289307E-1,-1.789855957E-2
7.370819970E0,5.050659180E-3,2.492370605E-1,-1.741027832E-2
7.375855370E0,6.134033203E-3,2.590637207E-1,-1.731872559E-2
7.380890770E0,6.713867188E-3,2.682189941E-1,-1.840209961E-2
7.385926171E0,6.713867188E-3,2.774353027E-1,-1.896667480E-2
7.390961571E0,6.713867188E-3,2.866210938E-1,-1.789855957E-2
7.395996972E0,6.713867188E-3,2.936248779E-1,-1.736450195E-2
7.401032372E0,8.377075195E-3,2.996215820E-1,-1.789855957E-2
7.406067772E0,8.773803711E-3,3.060455322E-1,-1.789855957E-2
7.411103173E0,7.781982422E-3,3.114624023E-1,-1.905822754E-2
7.416138573E0,8.377075195E-3,3.168640137E-1,-2.003479004E-2
7.421173974E0,8.239746094E-3,3.222656250E-1,-2.124023438E-2
7.426209374E0,8.392333984E-3,3.264160156E-1,-2.217102051E-2
7.431244774E0,1.010131836E-2,3.296508789E-1,-2.217102051E-2
7.436280175E0,1.098632812E-2,3.329162598E-1,-2.151489258E-2
7.441315575E0,9.658813477E-3,3.335113525E-1,-2.110290527E-2
7.446350976E0,9.506225586E-3,3.344421387E-1,-2.110290527E-2
7.451386376E0,9.918212891E-3,3.352508545E-1,-2.110290527E-2
7.456421776E0,1.060485840E-2,3.352508545E-1,-2.178955078E-2
7.461457177E0,1.168823242E-2,3.338317871E-1,-2.145385742E-2
7.466492577E0,1.205444336E-2,3.309326172E-1,-2.182006836E-2
7.471527977E0,1.278686523E-2,3.291625977E-1,-2.217102051E-2
7.476563378E0,1.162719727E-2,3.273468018E-1,-2.290344238E-2
7.481598778E0,1.173400879E-2,3.228912354E-1,-2.171325684E-2
7.486634179E0,1.281738281E-2,3.182678223E-1,-2.110290527E-2
7.491669579E0,1.153564453E-2,3.131561279E-1,-2.188110352E-2
7.496704979E0,1.177978516E-2,3.085479736E-1,-2.136230469E-2
7.501740380E0,1.284790039E-2,3.026580811E-1,-2.029418945E-2
7.506775780E0,1.312255859E-2,2.961273193E-1,-2.003479004E-2
7.511811181E0,1.394653320E-2,2.887878418E-1,-2.003479004E-2
7.516846581E0,1.333618164E-2,2.795104980E-1,-1.918029785E-2
7.521881981E0,1.225280762E-2,2.697753906E-1,-1.896667480E-2
7.526917382E0,1.292419434E-2,2.609252930E-1,-1.983642578E-2
7.531952782E0,1.400756836E-2,2.522735596E-1,-1.824951172E-2
7.536988183E0,1.419067383E-2,2.418212891E-1,-1.789855957E-2
7.542023583E0,1.510620117E-2,2.300872803E-1,-1.789855957E-2
7.547058983E0,1.525878906E-2,2.191314697E-1,-1.789855957E-2
7.552094384E0,1.431274414E-2,2.073669434E-1,-1.600646973E-2
7.557129784E0,1.226806641E-2,1.954803467E-1,-1.576232910E-2
7.562165185E0,1.301574707E-2,1.826171875E-1,-1.576232910E-2
7.567200585E0,1.312255859E-2,1.706237793E-1,-1.477050781E-2
7.572235985E0,1.411437988E-2,1.577301025E-1,-1.368713379E-2
7.577271386E0,1.419067383E-2,1.428222656E-1,-1.362609863E-2
7.582306786E0,1.214599609E-2,1.306762695E-1,-1.158142090E-2
7.587342186E0,1.101684570E-2,1.156768799E-1,-1.251220703E-2
7.592377587E0,1.098632812E-2,1.016693115E-1,-1.463317871E-2
7.597412987E0,9.918212891E-3,8.549499512E-2,-1.257324219E-2
7.602448388E0,1.098632812E-2,7.035827637E-2,-1.042175293E-2
7.607483788E0,1.203918457E-2,5.627441406E-2,-1.039123535E-2
7.612519188E0,1.098632812E-2,4.006958008E-2,-8.285522461E-3
7.617554589E0,1.094055176E-2,2.481079102E-2,-8.239746094E-3
7.622589989E0,9.918212891E-3,8.834838867E-3,-7.217407227E-3
7.627625390E0,9.918212891E-3,-4.272460938E-3,-7.278442383E-3
7.632660790E0,9.918212891E-3,-1.948547363E-2,-8.117675781E-3
7.637696190E0,9.811401367E-3,-3.561401367E-2,-6.042480469E-3
7.642731591E0,8.941650391E-3,-5.064392090E-2,-4.974365234E-3
7.647766991E0,1.002502441E-2,-6.481933594E-2,-3.890991211E-3
7.652802392E0,1.098632812E-2,-7.995605469E-2,-2.807617188E-3
7.657837792E0,1.083374023E-2,-9.494018555E-2,-1.724243164E-3
7.662873192E0,9.750366211E-3,-1.091613770E-1,-8.087158203E-4
7.667908593E0,8.850097656E-3,-1.241302490E-1,-9.765625000E-4
7.672943993E0,8.850097656E-3,-1.381835938E-1,-1.678466797E-3
7.677979393E0,8.850097656E-3,-1.522216797E-1,-8.087158203E-4
7.683014794E0,8.850097656E-3,-1.660156250E-1,-3.967285156E-4
7.688050194E0,8.621215820E-3,-1.790618896E-1,1.556396484E-3
7.693085595E0,7.537841797E-3,-1.920318604E-1,2.395629883E-3
7.698120995E0,6.958007812E-3,-2.044982910E-1,2.899169922E-3
7.703156395E0,7.522583008E-3,-2.157897949E-1,4.531860352E-3
7.708191796E0,6.973266602E-3,-2.285308838E-1,4.531860352E-3
7.713227196E0,7.492065430E-3,-2.395172119E-1,4.531860352E-3
7.718262597E0,7.003784180E-3,-2.484588623E-1,4.837036133E-3
7.723297997E0,7.156372070E-3,-2.584991455E-1,4.989624023E-3
7.728333397E0,6.286621094E-3,-2.689971924E-1,4.119873047E-3
7.733368798E0,7.431030273E-3,-2.780761719E-1,5.599975586E-3
7.738404198E0,6.347656250E-3,-2.856597900E-1,5.966186523E-3
7.743439599E0,5.645751953E-3,-2.935485840E-1,6.668090820E-3
7.748474999E0,5.645751953E-3,-3.018341064E-1,6.668090820E-3
7.753510399E0,6.027221680E-3,-3.082427979E-1,7.064819336E-3
7.758545800E0,6.713867188E-3,-3.125610352E-1,7.339477539E-3
7.763581200E0,6.713867188E-3,-3.173065186E-1,7.095336914E-3
7.768616601E0,6.713867188E-3,-3.218536377E-1,7.736206055E-3
7.773652001E0,6.271362305E-3,-3.259735107E-1,7.736206055E-3
7.778687401E0,4.287719727E-3,-3.304748535E-1,7.293701172E-3
7.783722802E0,2.441406250E-3,-3.337249756E-1,8.071899414E-3
7.788758202E0,2.914428711E-3,-3.364868164E-1,1.036071777E-2
7.793793602E0,3.997802734E-3,-3.386535645E-1,1.094055176E-2
7.798829003E0,3.555297852E-3,-3.397979736E-1,1.043701172E-2
7.803864403E0,2.944946289E-3,-3.392944336E-1,9.368896484E-3
7.808899804E0,2.975463867E-3,-3.382110596E-1,8.804321289E-3
7.813935204E0,1.892089844E-3,-3.371276855E-1,9.353637695E-3
7.818970604E0,8.087158203E-4,-3.343658447E-1,9.872436523E-3
7.824006005E0,1.434326172E-3,-3.311920166E-1,1.045227051E-2
7.829041405E0,2.441406250E-3,-3.278808594E-1,1.037597656E-2
7.834076806E0,1.846313477E-3,-3.241577148E-1,9.292602539E-3
7.839112206E0,1.525878906E-4,-3.197021484E-1,9.414672852E-3
7.844147606E0,-1.525878906E-4,-3.143005371E-1,8.651733398E-3
7.849183007E0,-3.356933594E-4,-3.088836670E-1,7.736206055E-3
7.854218407E0,-7.629394531E-4,-3.028106689E-1,8.392333984E-3
7.859253808E0,-1.068115234E-4,-2.956848145E-1,8.148193359E-3
7.864289208E0,3.051757812E-4,-2.867889404E-1,9.078979492E-3
7.869324608E0,-3.814697266E-4,-2.784271240E-1,8.514404297E-3
7.874360009E0,-1.464843750E-3,-2.694702148E-1,6.347656250E-3
7.879395409E0,-1.831054688E-3,-2.590332031E-1,5.599975586E-3
7.884430810E0,-1.113891602E-3,-2.496643066E-1,7.049560547E-3
7.889466210E0,-2.243041992E-3,-2.388000488E-1,6.271362305E-3
7.894501610E0,-2.166748047E-3,-2.269134521E-1,5.599975586E-3
7.899537011E0,-3.204345703E-4,-2.157745361E-1,4.089355469E-3
7.904572411E0,-1.251220703E-3,-2.041931152E-1,4.241943359E-3
7.909607811E0,-2.624511719E-3,-1.930847168E-1,4.531860352E-3
7.914643212E0,-2.899169922E-3,-1.798706055E-1,3.738403320E-3
7.919678612E0,-2.899169922E-3,-1.658172607E-1,3.463745117E-3
7.924714013E0,-4.562377930E-3,-1.525878906E-1,3.463745117E-3
7.929749413E0,-4.211425781E-3,-1.405181885E-1,2.639770508E-3
7.934784813E0,-3.128051758E-3,-1.243286133E-1,7.019042969E-4
7.939820214E0,-2.899169922E-3,-1.096649170E-1,2.593994141E-4
7.944855614E0,-2.899169922E-3,-9.643554688E-2,2.593994141E-4
7.949891015E0,-3.799438477E-3,-8.262634277E-2,-6.256103516E-4
7.954926415E0,-2.182006836E-3,-6.768798828E-2,-1.693725586E-3
7.959961815E0,-2.746582031E-3,-5.255126953E-2,-9.613037109E-4
7.964997216E0,-3.829956055E-3,-3.741455078E-2,-2.655029297E-3
7.970032616E0,-3.036499023E-3,-2.133178711E-2,-3.875732422E-3
7.975068017E0,-2.899169922E-3,-6.072998047E-3,-4.013061523E-3
7.980103417E0,-3.875732422E-3,1.002502441E-2,-4.013061523E-3
7.985138817E0,-3.967285156E-3,2.526855469E-2,-3.036499023E-3
7.990174218E0,-3.967285156E-3,3.942871094E-2,-4.913330078E-3
7.995209618E0,-3.967285156E-3,5.447387695E-2,-5.081176758E-3
8.000245018E0,-3.967285156E-3,6.860351562E-2,-6.088256836E-3
8.005280419E0,-5.004882812E-3,8.367919922E-2,-7.171630859E-3
8.010315819E0,-2.960205078E-3,9.777832031E-2,-6.164550781E-3
8.015351220E0,-1.846313477E-3,1.118316650E-1,-8.255004883E-3
8.020386620E0,-2.899169922E-3,1.259002686E-1,-8.285522461E-3
8.025422020E0,-1.831054688E-3,1.389007568E-1,-9.353637695E-3
8.030457421E0,-1.861572266E-3,1.540069580E-1,-1.042175293E-2
8.035492821E0,-2.944946289E-3,1.679840088E-1,-1.045227051E-2
8.040528222E0,-3.921508789E-3,1.798706055E-1,-1.148986816E-2
8.045563622E0,-2.899169922E-3,1.917724609E-1,-1.148986816E-2
8.050599022E0,-2.899169922E-3,2.036590576E-1,-1.148986816E-2
8.055634423E0,-2.822875977E-3,2.155609131E-1,-1.148986816E-2
8.060669823E0,-1.831054688E-3,2.282562256E-1,-1.148986816E-2
8.065705224E0,-1.602172852E-3,2.379150391E-1,-1.159667969E-2
8.070740624E0,4.577636719E-5,2.467651367E-1,-1.268005371E-2
8.075776024E0,-1.983642578E-3,2.577209473E-1,-1.376342773E-2
8.080811425E0,-2.899169922E-3,2.691650391E-1,-1.454162598E-2
8.085846825E0,-2.899169922E-3,2.773132324E-1,-1.377868652E-2
8.090882226E0,-3.082275391E-3,2.830810547E-1,-1.504516602E-2
8.095917626E0,-3.967285156E-3,2.908325195E-1,-1.644897461E-2
8.100953026E0,-3.967285156E-3,2.990722656E-1,-1.509094238E-2
8.105988427E0,-3.768920898E-3,3.053283691E-1,-1.702880859E-2
8.111023827E0,-2.899169922E-3,3.109283447E-1,-1.745605469E-2
8.116059227E0,-2.899169922E-3,3.169860840E-1,-1.576232910E-2
8.121094628E0,-2.899169922E-3,3.208007812E-1,-1.600646973E-2
8.126130028E0,-3.173828125E-3,3.235015869E-1,-1.683044434E-2
8.131165429E0,-4.257202148E-3,3.269805908E-1,-1.683044434E-2
8.136200829E0,-4.745483398E-3,3.280639648E-1,-1.683044434E-2
8.141236229E0,-3.967285156E-3,3.294525146E-1,-1.683044434E-2
8.146271630E0,-4.623413086E-3,3.306427002E-1,-1.683044434E-2
8.151307030E0,-6.103515625E-3,3.299102783E-1,-1.683044434E-2
8.156342431E0,-6.103515625E-3,3.299102783E-1,-1.683044434E-2
8.161377831E0,-6.103515625E-3,3.291931152E-1,-1.718139648E-2
8.166413231E0,-6.103515625E-3,3.270263672E-1,-1.751708984E-2
8.171448632E0,-6.103515625E-3,3.248748779E-1,-1.683044434E-2
8.176484032E0,-6.500244141E-3,3.223114014E-1,-1.721191406E-2
8.181519433E0,-6.774902344E-3,3.182525635E-1,-1.789855957E-2
8.186554833E0,-6.958007812E-3,3.132629395E-1,-1.704406738E-2
8.191590233E0,-8.239746094E-3,3.089447021E-1,-1.531982422E-2
8.196625634E0,-7.797241211E-3,3.037261963E-1,-1.423645020E-2
8.201661034E0,-8.102416992E-3,2.967834473E-1,-1.315307617E-2
8.206696435E0,-9.307861328E-3,2.892150879E-1,-1.301574707E-2
8.211731835E0,-9.307861328E-3,2.816467285E-1,-1.313781738E-2
8.216767235E0,-8.819580078E-3,2.735748291E-1,-1.205444336E-2
8.221802636E0,-9.262084961E-3,2.649383545E-1,-1.199340820E-2
8.226838036E0,-1.037597656E-2,2.558135986E-1,-1.255798340E-2
8.231873436E0,-9.857177734E-3,2.461090088E-1,-1.255798340E-2
8.236908837E0,-9.307861328E-3,2.358093262E-1,-1.145935059E-2
8.241944237E0,-9.872436523E-3,2.243957520E-1,-1.042175293E-2
8.246979638E0,-1.037597656E-2,2.130889893E-1,-1.042175293E-2
8.252015038E0,-9.796142578E-3,2.023010254E-1,-9.826660156E-3
8.257050438E0,-9.307861328E-3,1.903076172E-1,-8.743286133E-3
8.262085839E0,-9.918212891E-3,1.779327393E-1,-8.285522461E-3
8.267121239E0,-9.140014648E-3,1.654205322E-1,-8.285522461E-3
8.272156640E0,-9.521484375E-3,1.518096924E-1,-8.285522461E-3
8.277192040E0,-1.103210449E-2,1.377563477E-1,-7.629394531E-3
8.282227440E0,-1.078796387E-2,1.243591309E-1,-6.546020508E-3
8.287262841E0,-1.037597656E-2,1.113891602E-1,-4.791259766E-3
8.292298241E0,-1.037597656E-2,9.771728516E-2,-4.013061523E-3
8.297333642E0,-1.107788086E-2,8.296203613E-2,-4.699707031E-3
8.302369042E0,-1.144409180E-2,6.710815430E-2,-4.364013672E-3
8.307404442E0,-1.072692871E-2,5.313110352E-2,-4.730224609E-3
8.312439843E0,-1.037597656E-2,3.871154785E-2,-2.868652344E-3
8.317475243E0,-1.037597656E-2,2.282714844E-2,-1.129150391E-3
8.322510643E0,-9.628295898E-3,8.132934570E-3,-8.087158203E-4
8.327546044E0,-8.544921875E-3,-5.920410156E-3,-8.087158203E-4
8.332581444E0,-9.033203125E-3,-2.082824707E-2,-8.087158203E-4
8.337616845E0,-9.307861328E-3,-3.672790527E-2,7.934570312E-4
8.342652245E0,-9.307861328E-3,-5.130004883E-2,1.327514648E-3
8.347687645E0,-8.483886719E-3,-6.535339355E-2,2.990722656E-3
8.352723046E0,-7.415771484E-3,-8.024597168E-2,2.639770508E-3
8.357758446E0,-6.332397461E-3,-9.452819824E-2,4.104614258E-3
8.362793847E0,-6.103515625E-3,-1.103210449E-1,4.531860352E-3
8.367829247E0,-6.988525391E-3,-1.239013672E-1,4.531860352E-3
8.372864647E0,-7.171630859E-3,-1.377716064E-1,5.432128906E-3
8.377900048E0,-7.171630859E-3,-1.509246826E-1,7.415771484E-3
8.382935448E0,-6.256103516E-3,-1.648101807E-1,7.736206055E-3
8.387970849E0,-7.965087891E-3,-1.770019531E-1,7.736206055E-3
8.393006249E0,-7.308959961E-3,-1.898498535E-1,8.682250977E-3
8.398041649E0,-7.171630859E-3,-1.998901367E-1,7.858276367E-3
8.403077050E0,-8.148193359E-3,-2.115478516E-1,9.674072266E-3
8.408112450E0,-6.301879883E-3,-2.244110107E-1,9.872436523E-3
8.413147851E0,-6.103515625E-3,-2.343139648E-1,8.895874023E-3
8.418183251E0,-7.110595703E-3,-2.451477051E-1,9.811401367E-3
8.423218651E0,-7.171630859E-3,-2.550048828E-1,8.865356445E-3
8.428254052E0,-7.171630859E-3,-2.646789551E-1,1.086425781E-2
8.433289452E0,-6.134033203E-3,-2.712860107E-1,1.199340820E-2
8.438324852E0,-7.171630859E-3,-2.798919678E-1,1.095581055E-2
8.443360253E0,-7.171630859E-3,-2.863922119E-1,1.200866699E-2
8.448395653E0,-3.982543945E-3,-2.960662842E-1,1.307678223E-2
8.453431054E0,-5.035400391E-3,-3.004455566E-1,1.307678223E-2
8.458466454E0,-5.004882812E-3,-3.068542480E-1,1.307678223E-2
8.463501854E0,-3.967285156E-3,-3.111724854E-1,1.313781738E-2
8.468537255E0,-3.906250000E-3,-3.154296875E-1,1.408386230E-2
8.473572655E0,-3.067016602E-3,-3.186798096E-1,1.307678223E-2
8.478608056E0,-5.035400391E-3,-3.219299316E-1,1.307678223E-2
8.483643456E0,-4.943847656E-3,-3.250579834E-1,1.307678223E-2
8.488678856E0,-4.089355469E-3,-3.271026611E-1,1.307678223E-2
8.493714257E0,-5.035400391E-3,-3.283233643E-1,1.321411133E-2
8.498749657E0,-5.035400391E-3,-3.297576904E-1,1.414489746E-2
8.503785058E0,-4.882812500E-3,-3.269805908E-1,1.399230957E-2
8.508820458E0,-3.814697266E-3,-3.268280029E-1,1.307678223E-2
8.513855858E0,-2.899169922E-3,-3.255615234E-1,1.307678223E-2
8.518891259E0,-2.899169922E-3,-3.234100342E-1,1.307678223E-2
8.523926659E0,-2.899169922E-3,-3.208312988E-1,1.329040527E-2
8.528962060E0,-2.899169922E-3,-3.167266846E-1,1.393127441E-2
8.533997460E0,-3.143310547E-3,-3.132476807E-1,1.261901855E-2
8.539032860E0,-3.967285156E-3,-3.086853027E-1,1.094055176E-2
8.544068261E0,-3.448486328E-3,-3.032531738E-1,1.094055176E-2
8.549103661E0,-2.105712891E-3,-2.970733643E-1,1.068115234E-2
8.554139061E0,-2.624511719E-3,-2.886962891E-1,9.872436523E-3
8.559174462E0,-1.541137695E-3,-2.814331055E-1,9.872436523E-3
8.564209862E0,-7.629394531E-4,-2.746276855E-1,9.567260742E-3
8.569245263E0,-4.425048828E-4,-2.667388916E-1,9.140014648E-3
8.574280663E0,-3.662109375E-4,-2.577514648E-1,9.552001953E-3
8.579316063E0,-1.495361328E-3,-2.480316162E-1,9.155273438E-3
8.584351464E0,-4.577636719E-5,-2.382965088E-1,9.155273438E-3
8.589386864E0,9.918212891E-4,-2.281951904E-1,7.369995117E-3
8.594422265E0,3.051757812E-4,-2.169952393E-1,6.286621094E-3
8.599457665E0,7.019042969E-4,-2.050933838E-1,5.599975586E-3
8.604493065E0,1.373291016E-3,-1.936187744E-1,5.599975586E-3
8.609528466E0,1.785278320E-3,-1.819610596E-1,4.760742188E-3
8.614563866E0,1.998901367E-3,-1.694488525E-1,3.463745117E-3
8.619599267E0,1.373291016E-3,-1.571502686E-1,3.463745117E-3
8.624634667E0,1.831054688E-3,-1.437225342E-1,3.463745117E-3
8.629670067E0,1.953125000E-3,-1.310424805E-1,2.990722656E-3
8.634705468E0,1.861572266E-3,-1.182708740E-1,1.907348633E-3
8.639740868E0,2.441406250E-3,-1.036834717E-1,1.831054688E-3
8.644776268E0,3.448486328E-3,-8.912658691E-2,1.892089844E-3
8.649811669E0,4.577636719E-3,-7.502746582E-2,8.087158203E-4
8.654847069E0,5.111694336E-3,-6.097412109E-2,2.593994141E-4
8.659882470E0,5.645751953E-3,-4.583740234E-2,2.593994141E-4
8.664917870E0,5.645751953E-3,-3.182983398E-2,-2.899169922E-4
8.669953270E0,5.645751953E-3,-1.770019531E-2,-1.953125000E-3
8.674988671E0,4.455566406E-3,-2.563476562E-3,-2.944946289E-3
8.680024071E0,4.104614258E-3,1.136779785E-2,-2.944946289E-3
8.685059472E0,4.577636719E-3,2.557373047E-2,-4.165649414E-3
8.690094872E0,5.203247070E-3,4.133605957E-2,-5.081176758E-3
8.695130272E0,6.286621094E-3,5.627441406E-2,-7.003784180E-3
8.700165673E0,6.057739258E-3,7.098388672E-2,-8.285522461E-3
8.705201073E0,5.645751953E-3,8.544921875E-2,-8.285522461E-3
8.710236474E0,7.003784180E-3,9.950256348E-2,-8.956909180E-3
8.715271874E0,7.095336914E-3,1.127166748E-1,-1.002502441E-2
8.720307274E0,6.011962891E-3,1.257629395E-1,-1.110839844E-2
8.725342675E0,5.645751953E-3,1.387634277E-1,-1.148986816E-2
8.730378075E0,5.645751953E-3,1.502532959E-1,-1.148986816E-2
8.735413476E0,7.125854492E-3,1.625518799E-1,-1.148986816E-2
8.740448876E0,7.019042969E-3,1.747741699E-1,-1.223754883E-2
8.745484276E0,6.713867188E-3,1.874237061E-1,-1.332092285E-2
8.750519677E0,7.492065430E-3,1.988525391E-1,-1.362609863E-2
8.755555077E0,7.781982422E-3,2.096557617E-1,-1.362609863E-2
8.760590477E0,6.973266602E-3,2.204742432E-1,-1.441955566E-2
8.765625878E0,7.522583008E-3,2.304687500E-1,-1.632690430E-2
8.770661278E0,6.942749023E-3,2.410278320E-1,-1.765441895E-2
8.775696679E0,5.859375000E-3,2.492980957E-1,-1.789855957E-2
8.780732079E0,6.500244141E-3,2.577362061E-1,-1.702880859E-2
8.785767479E0,5.828857422E-3,2.655029297E-1,-1.594543457E-2
8.790802880E0,5.645751953E-3,2.739562988E-1,-1.663208008E-2
8.795838280E0,6.530761719E-3,2.816772461E-1,-1.771545410E-2
8.800873681E0,7.614135742E-3,2.883300781E-1,-1.969909668E-2
8.805909081E0,6.851196289E-3,2.911529541E-1,-2.003479004E-2
8.810944481E0,7.644653320E-3,2.961273193E-1,-1.815795898E-2
8.815979882E0,7.781982422E-3,3.015136719E-1,-1.977539062E-2
8.821015282E0,6.820678711E-3,3.059539795E-1,-2.098083496E-2
8.826050683E0,7.675170898E-3,3.093109131E-1,-2.110290527E-2
8.831086083E0,7.781982422E-3,3.135375977E-1,-2.011108398E-2
8.836121483E0,7.781982422E-3,3.148803711E-1,-2.102661133E-2
8.841156884E0,7.781982422E-3,3.149566650E-1,-2.110290527E-2
8.846192284E0,7.781982422E-3,3.169860840E-1,-2.008056641E-2
8.851227685E0,8.804321289E-3,3.160552979E-1,-2.003479004E-2
8.856263085E0,8.850097656E-3,3.149719238E-1,-2.107238770E-2
8.861298485E0,8.850097656E-3,3.128356934E-1,-2.110290527E-2
8.866333886E0,9.918212891E-3,3.128204346E-1,-2.110290527E-2
8.871369286E0,9.933471680E-3,3.084564209E-1,-2.212524414E-2
8.876404686E0,1.098632812E-2,3.042449951E-1,-2.003479004E-2
8.881440087E0,1.098632812E-2,3.030090332E-1,-2.011108398E-2
8.886475487E0,1.098632812E-2,2.975921631E-1,-2.217102051E-2
8.891510888E0,1.091003418E-2,2.921905518E-1,-2.209472656E-2
8.896546288E0,9.994506836E-3,2.867126465E-1,-2.110290527E-2
8.901581688E0,1.107788086E-2,2.802124023E-1,-2.110290527E-2
8.906617089E0,1.205444336E-2,2.737274170E-1,-2.099609375E-2
8.911652489E0,1.193237305E-2,2.670135498E-1,-1.979064941E-2
8.916687890E0,1.110839844E-2,2.584838867E-1,-1.776123047E-2
8.921723290E0,1.205444336E-2,2.506256104E-1,-1.683044434E-2
8.926758690E0,1.188659668E-2,2.409057617E-1,-1.683044434E-2
8.931794091E0,1.115417480E-2,2.311706543E-1,-1.664733887E-2
8.936829491E0,1.223754883E-2,2.210693359E-1,-1.594543457E-2
8.941864892E0,1.292419434E-2,2.095794678E-1,-1.683044434E-2
8.946900292E0,1.205444336E-2,1.996459961E-1,-1.702880859E-2
8.951935692E0,1.205444336E-2,1.886749268E-1,-1.745605469E-2
8.956971093E0,1.181030273E-2,1.765289307E-1,-1.528930664E-2
8.962006493E0,1.147460938E-2,1.635131836E-1,-1.362609863E-2
8.967041893E0,1.286315918E-2,1.511077881E-1,-1.362609863E-2
8.972077294E0,1.231384277E-2,1.397552490E-1,-1.335144043E-2
8.977112694E0,1.312255859E-2,1.264953613E-1,-1.283264160E-2
8.982148095E0,1.252746582E-2,1.124420166E-1,-1.362609863E-2
8.987183495E0,1.129150391E-2,9.838867188E-2,-1.300048828E-2
8.992218895E0,1.205444336E-2,8.433532715E-2,-1.115417480E-2
8.997254296E0,1.205444336E-2,7.028198242E-2,-9.750366211E-3
9.002289696E0,1.239013672E-2,5.622863770E-2,-7.934570312E-3
9.007325097E0,1.203918457E-2,4.252624512E-2,-7.568359375E-3
9.012360497E0,1.028442383E-2,2.917480469E-2,-7.537841797E-3
9.017395897E0,1.136779785E-2,1.480102539E-2,-6.530761719E-3
9.022431298E0,1.127624512E-2,-2.441406250E-4,-6.820678711E-3
9.027466698E0,1.031494141E-2,-1.504516602E-2,-6.149291992E-3
9.032502099E0,1.139831543E-2,-2.909851074E-2,-5.722045898E-3
9.037537499E0,1.074218750E-2,-4.362487793E-2,-5.081176758E-3
9.042572899E0,8.392333984E-3,-5.831909180E-2,-4.623413086E-3
9.047608300E0,8.697509766E-3,-7.189941406E-2,-4.013061523E-3
9.052643700E0,1.039123535E-2,-8.488464355E-2,-3.051757812E-3
9.057679101E0,1.098632812E-2,-9.878540039E-2,-1.876831055E-3
9.062714501E0,9.979248047E-3,-1.129302979E-1,-1.373291016E-3
9.067749901E0,9.353637695E-3,-1.259002686E-1,-2.899169922E-4
9.072785302E0,9.918212891E-3,-1.383514404E-1,-2.593994141E-4
9.077820702E0,9.368896484E-3,-1.508331299E-1,2.746582031E-4
9.082856102E0,8.850097656E-3,-1.638031006E-1,1.327514648E-3
9.087891503E0,9.399414062E-3,-1.767425537E-1,1.892089844E-3
9.092926903E0,8.758544922E-3,-1.891326904E-1,2.975463867E-3
9.097962304E0,8.361816406E-3,-1.998443604E-1,4.058837891E-3
9.102997704E0,8.239746094E-3,-2.101898193E-1,4.531860352E-3
9.108033104E0,8.392333984E-3,-2.209930420E-1,4.531860352E-3
9.113068505E0,7.583618164E-3,-2.311859131E-1,4.531860352E-3
9.118103905E0,5.416870117E-3,-2.415466309E-1,4.531860352E-3
9.123139306E0,5.218505859E-3,-2.517089844E-1,4.531860352E-3
9.128174706E0,6.301879883E-3,-2.601013184E-1,5.874633789E-3
9.133210106E0,6.027221680E-3,-2.676696777E-1,6.668090820E-3
9.138245507E0,5.645751953E-3,-2.745513916E-1,6.668090820E-3
9.143280907E0,5.645751953E-3,-2.810363770E-1,7.385253906E-3
9.148316308E0,4.196166992E-3,-2.882385254E-1,7.019042969E-3
9.153351708E0,2.761840820E-3,-2.943420410E-1,8.148193359E-3
9.158387108E0,3.173828125E-3,-2.997436523E-1,8.071899414E-3
9.163422509E0,3.509521484E-3,-3.043975830E-1,8.499145508E-3
9.168457909E0,2.731323242E-3,-3.079528809E-1,8.804321289E-3
9.173493310E0,3.219604492E-3,-3.119812012E-1,8.026123047E-3
9.178528710E0,2.700805664E-3,-3.146972656E-1,8.544921875E-3
9.183564110E0,2.441406250E-3,-3.160400391E-1,9.613037109E-3
9.188599511E0,2.441406250E-3,-3.179473877E-1,8.239746094E-3
9.193634911E0,3.265380859E-3,-3.176116943E-1,8.575439453E-3
9.198670311E0,2.655029297E-3,-3.182220459E-1,8.804321289E-3
9.203705712E0,1.571655273E-3,-3.184356689E-1,9.674072266E-3
9.208741112E0,2.243041992E-3,-3.184356689E-1,9.872436523E-3
9.213776513E0,3.311157227E-3,-3.149108887E-1,9.002685547E-3
9.218811913E0,3.509521484E-3,-3.123779297E-1,8.804321289E-3
9.223847313E0,1.678466797E-3,-3.092956543E-1,8.804321289E-3
9.228882714E0,3.219604492E-3,-3.051147461E-1,8.804321289E-3
9.233918114E0,2.563476562E-3,-3.008117676E-1,8.804321289E-3
9.238953515E0,1.480102539E-3,-2.955322266E-1,8.804321289E-3
9.243988915E0,1.373291016E-3,-2.901306152E-1,8.804321289E-3
9.249024315E0,2.334594727E-3,-2.847290039E-1,7.843017578E-3
9.254059716E0,2.441406250E-3,-2.793121338E-1,5.767822266E-3
9.259095116E0,2.441406250E-3,-2.719116211E-1,6.607055664E-3
9.264130517E0,2.441406250E-3,-2.633209229E-1,7.690429688E-3
9.269165917E0,2.441406250E-3,-2.546691895E-1,6.713867188E-3
9.274201317E0,-6.866455078E-4,-2.460174561E-1,5.630493164E-3
9.279236718E0,2.899169922E-4,-2.363128662E-1,7.720947266E-3
9.284272118E0,-7.629394531E-4,-2.255096436E-1,7.736206055E-3
9.289307518E0,3.051757812E-4,-2.157745361E-1,5.599975586E-3
9.294342919E0,3.204345703E-4,-2.049560547E-1,4.486083984E-3
9.299378319E0,1.281738281E-3,-1.941070557E-1,2.441406250E-3
9.304413720E0,-7.629394531E-4,-1.821594238E-1,3.463745117E-3
9.309449120E0,-7.629394531E-4,-1.692657471E-1,3.463745117E-3
9.314484520E0,-8.392333984E-4,-1.574249268E-1,3.402709961E-3
9.319519921E0,-1.754760742E-3,-1.453094482E-1,2.395629883E-3
9.324555321E0,-7.629394531E-4,-1.317291260E-1,2.395629883E-3
9.329590722E0,-7.629394531E-4,-1.205749512E-1,2.395629883E-3
9.334626122E0,-7.629394531E-4,-1.074676514E-1,2.273559570E-3
9.339661522E0,-9.155273438E-4,-9.327697754E-2,9.155273438E-4
9.344696923E0,-1.693725586E-3,-7.844543457E-2,-1.876831055E-3
9.349732323E0,-6.103515625E-4,-6.530761719E-2,-1.541137695E-3
9.354767724E0,-6.103515625E-5,-5.107116699E-2,9.155273438E-5
9.359803124E0,-1.647949219E-3,-3.631591797E-2,-9.918212891E-4
9.364838524E0,-9.765625000E-4,-2.273559570E-2,-2.273559570E-3
9.369873925E0,-1.831054688E-3,-6.942749023E-3,-4.226684570E-3
9.374909325E0,-1.602172852E-3,6.881713867E-3,-5.081176758E-3
9.379944726E0,-1.007080078E-3,2.033996582E-2,-4.837036133E-3
9.384980126E0,-1.831054688E-3,3.547668457E-2,-4.013061523E-3
9.390015526E0,-1.831054688E-3,5.007934570E-2,-4.013061523E-3
9.395050927E0,-2.120971680E-3,6.333923340E-2,-4.852294922E-3
9.400086327E0,-2.899169922E-3,7.739257812E-2,-7.507324219E-3
9.405121727E0,-2.593994141E-3,9.144592285E-2,-7.965087891E-3
9.410157128E0,-2.166748047E-3,1.051788330E-1,-7.217407227E-3
9.415192528E0,-2.578735352E-3,1.181488037E-1,-7.217407227E-3
9.420227929E0,-1.495361328E-3,1.307830811E-1,-7.217407227E-3
9.425263329E0,-1.129150391E-3,1.430358887E-1,-7.568359375E-3
9.430298729E0,-2.212524414E-3,1.563568115E-1,-8.285522461E-3
9.435334130E0,-2.899169922E-3,1.688537598E-1,-8.666992188E-3
9.440369530E0,-2.502441406E-3,1.793975830E-1,-9.750366211E-3
9.445404931E0,-1.434326172E-3,1.912384033E-1,-1.042175293E-2
9.450440331E0,-1.190185547E-3,2.027130127E-1,-1.042175293E-2
9.455475731E0,-2.700805664E-3,2.131042480E-1,-1.127624512E-2
9.460511132E0,-3.967285156E-3,2.232818604E-1,-1.255798340E-2
9.465546532E0,-3.509521484E-3,2.336578369E-1,-1.255798340E-2
9.470581933E0,-2.899169922E-3,2.433929443E-1,-1.255798340E-2
9.475617333E0,-3.387451172E-3,2.526092529E-1,-1.303100586E-2
9.480652733E0,-3.479003906E-3,2.602539062E-1,-1.362609863E-2
9.485688134E0,-2.899169922E-3,2.667388916E-1,-1.362609863E-2
9.490723534E0,-2.899169922E-3,2.737579346E-1,-1.362609863E-2
9.495758935E0,-3.448486328E-3,2.813262939E-1,-1.362609863E-2
9.500794335E0,-3.967285156E-3,2.877960205E-1,-1.417541504E-2
9.505829735E0,-4.531860352E-3,2.937622070E-1,-1.524353027E-2
9.510865136E0,-4.470825195E-3,2.991027832E-1,-1.460266113E-2
9.515900536E0,-3.967285156E-3,3.028259277E-1,-1.480102539E-2
9.520935936E0,-3.967285156E-3,3.048706055E-1,-1.576232910E-2
9.525971337E0,-3.967285156E-3,3.078002930E-1,-1.513671875E-2
9.531006737E0,-5.233764648E-3,3.108673096E-1,-1.531982422E-2
9.536042138E0,-6.759643555E-3,3.123931885E-1,-1.576232910E-2
9.541077538E0,-5.874633789E-3,3.134613037E-1,-1.510620117E-2
9.546112938E0,-5.035400391E-3,3.132171631E-1,-1.535034180E-2
9.551148339E0,-5.035400391E-3,3.121337891E-1,-1.643371582E-2
9.556183739E0,-5.035400391E-3,3.110504150E-1,-1.612854004E-2
9.561219140E0,-5.752563477E-3,3.099670410E-1,-1.504516602E-2
9.566254540E0,-6.103515625E-3,3.088989258E-1,-1.397705078E-2
9.571289940E0,-7.568359375E-3,3.049011230E-1,-1.434326172E-2
9.576325341E0,-7.507324219E-3,3.009796143E-1,-1.394653320E-2
9.581360741E0,-7.171630859E-3,2.969818115E-1,-1.362609863E-2
9.586396142E0,-7.171630859E-3,2.926330566E-1,-1.362609863E-2
9.591431542E0,-5.615234375E-3,2.875366211E-1,-1.283264160E-2
9.596466942E0,-7.415771484E-3,2.813568115E-1,-1.255798340E-2
9.601502343E0,-8.239746094E-3,2.748718262E-1,-1.255798340E-2
9.606537743E0,-8.239746094E-3,2.675628662E-1,-1.255798340E-2
9.611573143E0,-9.918212891E-3,2.591552734E-1,-1.255798340E-2
9.616608544E0,-1.037597656E-2,2.513580322E-1,-1.086425781E-2
9.621643944E0,-9.521484375E-3,2.429199219E-1,-1.213073730E-2
9.626679345E0,-9.307861328E-3,2.335052490E-1,-1.255798340E-2
9.631714745E0,-1.019287109E-2,2.254638672E-1,-1.167297363E-2
9.636750145E0,-1.037597656E-2,2.160797119E-1,-1.148986816E-2
9.641785546E0,-1.037597656E-2,2.054443359E-1,-1.057434082E-2
9.646820946E0,-9.460449219E-3,1.936950684E-1,-1.042175293E-2
9.651856347E0,-9.307861328E-3,1.818084717E-1,-1.135253906E-2
9.656891747E0,-8.361816406E-3,1.708679199E-1,-8.636474609E-3
9.661927147E0,-9.216308594E-3,1.581268311E-1,-7.308959961E-3
9.666962548E0,-1.028442383E-2,1.432037354E-1,-7.217407227E-3
9.671997948E0,-1.037597656E-2,1.310272217E-1,-6.225585938E-3
9.677033349E0,-9.384155273E-3,1.201324463E-1,-7.141113281E-3
9.682068749E0,-1.033020020E-2,1.072998047E-1,-7.217407227E-3
9.687104149E0,-9.353637695E-3,9.226989746E-2,-4.119873047E-3
9.692139550E0,-9.307861328E-3,7.928466797E-2,-5.035400391E-3
9.697174950E0,-1.141357422E-2,6.526184082E-2,-2.975463867E-3
9.702210351E0,-1.144409180E-2,5.015563965E-2,-2.944946289E-3
9.707245751E0,-1.144409180E-2,3.599548340E-2,-1.861572266E-3
9.712281151E0,-1.142883301E-2,2.200317383E-2,-7.781982422E-4
9.717316552E0,-1.042175293E-2,6.942749023E-3,2.593994141E-4
9.722351952E0,-1.144409180E-2,-6.088256836E-3,2.593994141E-4
9.727387352E0,-1.144409180E-2,-2.020263672E-2,3.204345703E-4
9.732422753E0,-1.138305664E-2,-3.512573242E-2,1.480102539E-3
9.737458153E0,-1.037597656E-2,-4.743957520E-2,3.387451172E-3
9.742493554E0,-1.037597656E-2,-6.317138672E-2,2.395629883E-3
9.747528954E0,-1.037597656E-2,-7.540893555E-2,2.517700195E-3
9.752564354E0,-1.025390625E-2,-9.028625488E-2,3.601074219E-3
9.757599755E0,-9.460449219E-3,-1.032714844E-1,4.531860352E-3
9.762635155E0,-1.008605957E-2,-1.164093018E-1,4.531860352E-3
9.767670556E0,-8.422851562E-3,-1.303558350E-1,4.531860352E-3
9.772705956E0,-9.140014648E-3,-1.430816650E-1,4.714965820E-3
9.777741356E0,-8.239746094E-3,-1.551666260E-1,5.798339844E-3
9.782776757E0,-8.453369141E-3,-1.677398682E-1,6.881713867E-3
9.787812157E0,-9.094238281E-3,-1.785430908E-1,7.965087891E-3
9.792847558E0,-8.010864258E-3,-1.893615723E-1,8.804321289E-3
9.797882958E0,-7.415771484E-3,-2.004089355E-1,8.804321289E-3
9.802918358E0,-7.995605469E-3,-2.120513916E-1,8.560180664E-3
9.807953759E0,-7.171630859E-3,-2.223205566E-1,8.285522461E-3
9.812989159E0,-7.171630859E-3,-2.312622070E-1,9.597778320E-3
9.818024560E0,-6.881713867E-3,-2.409820557E-1,9.109497070E-3
9.823059960E0,-6.103515625E-3,-2.498016357E-1,9.567260742E-3
9.828095360E0,-6.103515625E-3,-2.569274902E-1,9.460449219E-3
9.833130761E0,-6.103515625E-3,-2.649078369E-1,1.094055176E-2
9.838166161E0,-5.767822266E-3,-2.720947266E-1,1.094055176E-2
9.843201561E0,-5.767822266E-3,-2.800140381E-1,1.094055176E-2
9.848236962E0,-6.805419922E-3,-2.857513428E-1,1.094055176E-2
9.853272362E0,-5.722045898E-3,-2.900848389E-1,1.094055176E-2
9.858307763E0,-4.241943359E-3,-2.944030762E-1,1.094055176E-2
9.863343163E0,-3.326416016E-3,-2.991485596E-1,1.094055176E-2
9.868378563E0,-4.394531250E-3,-3.036956787E-1,1.094055176E-2
9.873413964E0,-4.608154297E-3,-3.065032959E-1,1.138305664E-2
9.878449364E0,-3.524780273E-3,-3.082122803E-1,1.200866699E-2
9.883484765E0,-3.372192383E-3,-3.097534180E-1,1.248168945E-2
9.888520165E0,-3.021240234E-3,-3.109588623E-1,1.356506348E-2
9.893555565E0,-2.334594727E-3,-3.109588623E-1,1.365661621E-2
9.898590966E0,-3.417968750E-3,-3.109588623E-1,1.257324219E-2
9.903626366E0,-3.463745117E-3,-3.109588623E-1,1.200866699E-2
9.908661767E0,-1.846313477E-3,-3.099060059E-1,1.200866699E-2
9.913697167E0,-1.846313477E-3,-3.082885742E-1,1.200866699E-2
9.918732567E0,-3.463745117E-3,-3.055419922E-1,1.200866699E-2
9.923767968E0,-3.402709961E-3,-3.006591797E-1,1.144409180E-2
9.928803368E0,-2.899169922E-3,-2.969970703E-1,1.037597656E-2
9.933838768E0,-2.899169922E-3,-2.925109863E-1,9.872436523E-3
9.938874169E0,-1.693725586E-3,-2.865905762E-1,9.872436523E-3
9.943909569E0,-1.525878906E-4,-2.805480957E-1,1.049804688E-2
9.948944970E0,-3.356933594E-4,-2.746887207E-1,9.689331055E-3
9.953980370E0,-7.629394531E-4,-2.680206299E-1,9.460449219E-3
9.959015770E0,-1.419067383E-3,-2.611083984E-1,9.231567383E-3
9.964051171E0,-1.831054688E-3,-2.532806396E-1,8.804321289E-3
9.969086571E0,-1.159667969E-3,-2.439575195E-1,8.804321289E-3
9.974121972E0,-7.629394531E-4,-2.348785400E-1,8.117675781E-3
9.979157372E0,-7.629394531E-4,-2.269592285E-1,7.736206055E-3
9.984192772E0,-1.495361328E-3,-2.165222168E-1,7.019042969E-3
9.989228173E0,3.662109375E-4,-2.061004639E-1,5.935668945E-3
9.994263573E0,1.373291016E-3,-1.963653564E-1,5.599975586E-3
9.999298974E0,6.103515625E-4,-1.851196289E-1,4.852294922E-3
1.000433437E1,1.068115234E-3,-1.731719971E-1,3.768920898E-3
1.000936977E1,1.373291016E-3,-1.605224609E-1,3.463745117E-3
1.001440518E1,5.645751953E-4,-1.475677490E-1,4.272460938E-3
1.001944058E1,-5.187988281E-4,-1.362152100E-1,2.914428711E-3
1.002447598E1,6.103515625E-5,-1.245727539E-1,-7.629394531E-5
1.002951138E1,1.129150391E-3,-1.126861572E-1,8.697509766E-4
1.003454678E1,1.373291016E-3,-9.909057617E-2,4.882812500E-4
1.003958218E1,1.373291016E-3,-8.503723145E-2,-1.464843750E-3
1.004461758E1,2.243041992E-3,-7.185363770E-2,-9.918212891E-4
1.004965298E1,2.441406250E-3,-5.798339844E-2,9.155273438E-5
1.005468838E1,2.441406250E-3,-4.483032227E-2,-1.541137695E-3
1.005972378E1,2.441406250E-3,-3.102111816E-2,-1.876831055E-3
1.006475918E1,3.356933594E-3,-1.689147949E-2,-3.723144531E-3
1.006979458E1,3.509521484E-3,-1.892089844E-3,-4.013061523E-3
1.007482998E1,2.548217773E-3,1.133728027E-2,-5.920410156E-3
1.007986538E1,3.402709961E-3,2.624511719E-2,-6.149291992E-3
1.008490078E1,3.509521484E-3,3.942871094E-2,-7.125854492E-3
1.008993618E1,4.501342773E-3,5.140686035E-2,-7.217407227E-3
1.009497158E1,4.577636719E-3,6.530761719E-2,-7.217407227E-3
1.010000698E1,3.555297852E-3,8.038330078E-2,-7.217407227E-3
1.010504238E1,3.509521484E-3,9.449768066E-2,-9.277343750E-3
1.011007778E1,3.509521484E-3,1.064453125E-1,-9.353637695E-3
1.011511318E1,5.630493164E-3,1.183471680E-1,-1.040649414E-2
1.012014858E1,5.645751953E-3,1.280364990E-1,-1.255798340E-2
1.012518398E1,5.645751953E-3,1.442718506E-1,-1.252746582E-2
1.013021938E1,5.691528320E-3,1.560821533E-1,-1.148986816E-2
1.013525478E1,7.690429688E-3,1.679840088E-1,-1.156616211E-2
1.014029019E1,5.538940430E-3,1.797637939E-1,-1.362609863E-2
1.014532558E1,3.570556641E-3,1.894989014E-1,-1.374816895E-2
1.015036098E1,4.577636719E-3,1.993103027E-1,-1.576232910E-2
1.015539639E1,4.669189453E-3,2.100830078E-1,-1.565551758E-2
1.016043179E1,5.645751953E-3,2.197570801E-1,-1.489257812E-2
1.016546719E1,5.645751953E-3,2.293701172E-1,-1.693725586E-2
1.017050259E1,5.905151367E-3,2.381591797E-1,-1.776123047E-2
1.017553799E1,7.919311523E-3,2.474517822E-1,-1.710510254E-2
1.018057339E1,8.682250977E-3,2.539520264E-1,-1.879882812E-2
1.018560879E1,7.949829102E-3,2.606353760E-1,-1.806640625E-2
1.019064419E1,8.850097656E-3,2.679901123E-1,-1.876831055E-2
1.019567959E1,8.850097656E-3,2.742767334E-1,-1.808166504E-2
1.020071499E1,8.636474609E-3,2.794647217E-1,-1.896667480E-2
1.020575039E1,7.781982422E-3,2.840270996E-1,-1.918029785E-2
1.021078579E1,7.781982422E-3,2.889556885E-1,-2.003479004E-2
1.021582119E1,8.270263672E-3,2.921905518E-1,-2.003479004E-2
1.022085659E1,9.643554688E-3,2.951812744E-1,-1.976013184E-2
1.022589199E1,8.850097656E-3,2.973480225E-1,-1.896667480E-2
1.023092739E1,8.270263672E-3,2.994995117E-1,-1.867675781E-2
1.023596279E1,7.003784180E-3,3.010711670E-1,-1.818847656E-2
1.024099819E1,8.087158203E-3,3.010711670E-1,-1.927185059E-2
1.024603359E1,8.850097656E-3,3.013916016E-1,-2.035522461E-2
1.025106899E1,9.185791016E-3,3.017883301E-1,-2.110290527E-2
1.025610439E1,1.026916504E-2,3.007049561E-1,-2.073669434E-2
1.026113979E1,1.098632812E-2,2.992553711E-1,-1.965332031E-2
1.026617519E1,1.098632812E-2,2.967224121E-1,-1.933288574E-2
1.027121060E1,1.058959961E-2,2.934722900E-1,-2.041625977E-2
1.027624600E1,1.072692871E-2,2.898254395E-1,-2.110290527E-2
1.028128140E1,1.080322266E-2,2.846832275E-1,-2.026367188E-2
1.028631680E1,8.850097656E-3,2.790679932E-1,-1.853942871E-2
1.029135220E1,9.277343750E-3,2.743072510E-1,-1.832580566E-2
1.029638760E1,1.036071777E-2,2.688903809E-1,-1.940917969E-2
1.030142300E1,1.098632812E-2,2.625427246E-1,-1.956176758E-2
1.030645840E1,1.098632812E-2,2.559356689E-1,-1.896667480E-2
1.031149380E1,1.098632812E-2,2.490692139E-1,-1.846313477E-2
1.031652920E1,1.046752930E-2,2.404174805E-1,-1.789855957E-2
1.032156460E1,1.094055176E-2,2.317657471E-1,-1.686096191E-2
1.032660000E1,1.205444336E-2,2.225799561E-1,-1.628112793E-2
1.033163540E1,1.258850098E-2,2.128601074E-1,-1.683044434E-2
1.033667080E1,1.255798340E-2,2.025604248E-1,-1.683044434E-2
1.034170620E1,1.205444336E-2,1.923217773E-1,-1.625061035E-2
1.034674160E1,1.205444336E-2,1.820068359E-1,-1.516723633E-2
1.035177700E1,1.144409180E-2,1.712036133E-1,-1.469421387E-2
1.035681240E1,1.037597656E-2,1.591644287E-1,-1.408386230E-2
