"Time (s)","Acceleration x (m/s^2)","Acceleration y (m/s^2)","Acceleration z (m/s^2)"
4.423315600E-2,-7.062072754E-1,9.613388062E0,-8.660400391E0
4.926855600E-2,-6.821289062E-1,9.657211304E0,-8.666427612E0
5.430395700E-2,-7.466735840E-1,9.623840332E0,-8.646636963E0
5.933935700E-2,-7.647247314E-1,9.633117676E0,-8.583175659E0
6.437475700E-2,-7.701416016E-1,9.636215210E0,-8.552139282E0
6.941015800E-2,-8.063812256E-1,9.622909546E0,-8.654998779E0
7.444555800E-2,-7.933044434E-1,9.645339966E0,-8.671066284E0
7.948095900E-2,-7.721862793E-1,9.651321411E0,-8.616363525E0
8.451635900E-2,-7.759246826E-1,9.647323608E0,-8.622055054E0
8.955175900E-2,-7.740173340E-1,9.645370483E0,-8.560241699E0
9.458716000E-2,-7.910461426E-1,9.620407104E0,-8.533248901E0
9.962256000E-2,-7.887725830E-1,9.642089844E0,-8.575790405E0
1.046579610E-1,-7.621612549E-1,9.604080200E0,-8.577362061E0
1.096933610E-1,-7.644500732E-1,9.646957397E0,-8.612899780E0
1.147287610E-1,-7.853851318E-1,9.654083252E0,-8.560821533E0
1.197641620E-1,-8.258972168E-1,9.629974365E0,-8.539413452E0
1.247995620E-1,-8.008575439E-1,9.622985840E0,-8.538253784E0
1.298349620E-1,-7.372283936E-1,9.607543945E0,-8.573913574E0
1.348703630E-1,-7.000579834E-1,9.646545410E0,-8.588317871E0
1.399057630E-1,-7.375183105E-1,9.643341064E0,-8.555923462E0
1.449411640E-1,-7.183380127E-1,9.604888916E0,-8.499237061E0
1.499765640E-1,-7.947235107E-1,9.619873047E0,-8.447402954E0
1.550119640E-1,-7.980499268E-1,9.622848511E0,-8.447372437E0
1.600473650E-1,-7.907257080E-1,9.587646484E0,-8.505599976E0
1.650827650E-1,-7.709808350E-1,9.601959229E0,-8.578002930E0
1.701181660E-1,-6.990814209E-1,9.655487061E0,-8.595550537E0
1.751535660E-1,-6.853179932E-1,9.626922607E0,-8.582748413E0
1.801889660E-1,-7.432098389E-1,9.641082764E0,-8.513214111E0
1.852243670E-1,-7.482757568E-1,9.647338867E0,-8.542739868E0
1.902597670E-1,-7.837219238E-1,9.598892212E0,-8.512390137E0
1.952951680E-1,-7.567749023E-1,9.611877441E0,-8.532089233E0
2.003305680E-1,-7.321166992E-1,9.622955322E0,-8.558807373E0
2.053659680E-1,-7.488403320E-1,9.621231079E0,-8.606048584E0
2.104013690E-1,-7.875976562E-1,9.598632812E0,-8.630523682E0
2.154367690E-1,-7.763977051E-1,9.616287231E0,-8.640731812E0
2.204721690E-1,-7.619628906E-1,9.637237549E0,-8.569656372E0
2.255075700E-1,-7.526397705E-1,9.613082886E0,-8.522933960E0
2.305429700E-1,-7.474212646E-1,9.600784302E0,-8.507354736E0
2.355783710E-1,-7.517242432E-1,9.616699219E0,-8.550537109E0
2.406137710E-1,-7.566986084E-1,9.631118774E0,-8.567138672E0
2.456491710E-1,-7.214050293E-1,9.646423340E0,-8.490798950E0
2.506845720E-1,-7.392272949E-1,9.644241333E0,-8.467803955E0
2.557199720E-1,-7.592773438E-1,9.635360718E0,-8.497314453E0
2.607553730E-1,-7.131652832E-1,9.634536743E0,-8.547012329E0
2.657907730E-1,-6.775817871E-1,9.625930786E0,-8.518997192E0
2.708261730E-1,-6.513214111E-1,9.623626709E0,-8.500381470E0
2.758615740E-1,-6.526641846E-1,9.620635986E0,-8.497467041E0
2.808969740E-1,-6.462249756E-1,9.647064209E0,-8.465728760E0
2.859323750E-1,-6.493377686E-1,9.635009766E0,-8.427124023E0
2.909677750E-1,-6.431884766E-1,9.640991211E0,-8.459854126E0
2.960031750E-1,-6.137542725E-1,9.660308838E0,-8.461502075E0
3.010385760E-1,-6.166687012E-1,9.639160156E0,-8.501892090E0
3.060739760E-1,-6.501617432E-1,9.624420166E0,-8.541122437E0
3.111093770E-1,-6.355743408E-1,9.648498535E0,-8.507446289E0
3.161447770E-1,-6.002960205E-1,9.673385620E0,-8.513473511E0
3.211801770E-1,-5.928192139E-1,9.663024902E0,-8.509765625E0
3.262155780E-1,-5.796661377E-1,9.653244019E0,-8.491897583E0
3.312509780E-1,-5.599060059E-1,9.659164429E0,-8.497833252E0
3.362863780E-1,-5.544738770E-1,9.666564941E0,-8.496093750E0
3.413217790E-1,-5.678100586E-1,9.649597168E0,-8.498245239E0
3.463571790E-1,-5.713958740E-1,9.647720337E0,-8.545776367E0
3.513925800E-1,-5.735015869E-1,9.663101196E0,-8.526397705E0
3.564279800E-1,-5.989379883E-1,9.660491943E0,-8.455490112E0
3.614633800E-1,-5.861358643E-1,9.653732300E0,-8.492279053E0
3.664987810E-1,-5.626373291E-1,9.648925781E0,-8.491088867E0
3.715341810E-1,-5.275878906E-1,9.619201660E0,-8.469314575E0
3.765695820E-1,-4.882202148E-1,9.616638184E0,-8.489822388E0
3.816049820E-1,-5.094146729E-1,9.640579224E0,-8.454269409E0
3.866403820E-1,-5.516662598E-1,9.626663208E0,-8.432907104E0
3.916757830E-1,-5.630645752E-1,9.641418457E0,-8.428649902E0
3.967111830E-1,-5.450286865E-1,9.653457642E0,-8.438507080E0
4.017465840E-1,-5.297088623E-1,9.666061401E0,-8.464859009E0
4.067819840E-1,-5.105438232E-1,9.657272339E0,-8.439315796E0
4.118173840E-1,-5.448608398E-1,9.649444580E0,-8.439895630E0
4.168527850E-1,-5.464477539E-1,9.623031616E0,-8.380599976E0
4.218881850E-1,-5.701293945E-1,9.628036499E0,-8.323944092E0
4.269235860E-1,-5.314483643E-1,9.626739502E0,-8.430419922E0
4.319589860E-1,-4.963531494E-1,9.643508911E0,-8.462310791E0
4.369943860E-1,-5.200347900E-1,9.617431641E0,-8.458831787E0
4.420297870E-1,-5.663146973E-1,9.612976074E0,-8.458404541E0
4.470651870E-1,-5.186767578E-1,9.655075073E0,-8.466629028E0
4.521005870E-1,-5.122222900E-1,9.659561157E0,-8.426834106E0
4.571359880E-1,-5.043182373E-1,9.642089844E0,-8.428848267E0
4.621713880E-1,-5.807952881E-1,9.648513794E0,-8.390075684E0
4.672067890E-1,-5.735321045E-1,9.633270264E0,-8.386108398E0
4.722421890E-1,-5.739593506E-1,9.611160278E0,-8.424316406E0
4.772775890E-1,-4.929656982E-1,9.657852173E0,-8.452957153E0
4.823129900E-1,-4.851684570E-1,9.682357788E0,-8.379226685E0
4.873483900E-1,-5.175628662E-1,9.656005859E0,-8.408737183E0
4.923837910E-1,-5.065002441E-1,9.659240723E0,-8.427520752E0
4.974191910E-1,-5.342864990E-1,9.651473999E0,-8.421310425E0
5.024545910E-1,-6.048126221E-1,9.637435913E0,-8.445693970E0
5.074899920E-1,-5.783996582E-1,9.683868408E0,-8.474990845E0
5.125253920E-1,-5.901641846E-1,9.634979248E0,-8.456680298E0
5.175607930E-1,-5.601806641E-1,9.654495239E0,-8.366439819E0
5.225961930E-1,-5.571594238E-1,9.642349243E0,-8.388320923E0
5.276315930E-1,-5.826873779E-1,9.652526855E0,-8.382980347E0
5.326669940E-1,-5.796203613E-1,9.632873535E0,-8.396530151E0
5.377023940E-1,-5.509490967E-1,9.675506592E0,-8.458404541E0
5.427377940E-1,-5.717315674E-1,9.617660522E0,-8.419494629E0
5.477731950E-1,-5.719299316E-1,9.613540649E0,-8.430252075E0
5.528085950E-1,-6.205749512E-1,9.618164062E0,-8.429367065E0
5.578439960E-1,-6.285705566E-1,9.643081665E0,-8.435913086E0
5.628793960E-1,-5.883789062E-1,9.651428223E0,-8.420593262E0
5.679147960E-1,-5.609588623E-1,9.663208008E0,-8.408294678E0
5.729501970E-1,-5.919494629E-1,9.613265991E0,-8.416961670E0
5.779855970E-1,-6.024475098E-1,9.627609253E0,-8.382476807E0
5.830209980E-1,-5.793151855E-1,9.658386230E0,-8.358230591E0
5.880563980E-1,-6.214599609E-1,9.661331177E0,-8.407470703E0
5.930917980E-1,-6.098175049E-1,9.663726807E0,-8.436355591E0
5.981271990E-1,-6.313629150E-1,9.619094849E0,-8.356079102E0
6.031625990E-1,-6.398925781E-1,9.667861938E0,-8.410430908E0
6.081980000E-1,-5.924377441E-1,9.634796143E0,-8.423797607E0
6.132334000E-1,-5.700531006E-1,9.624130249E0,-8.402496338E0
6.182688000E-1,-5.907592773E-1,9.647262573E0,-8.388839722E0
6.233042010E-1,-6.423645020E-1,9.651428223E0,-8.396377563E0
6.283396010E-1,-6.245574951E-1,9.643402100E0,-8.478836060E0
6.333750020E-1,-5.713958740E-1,9.625289917E0,-8.380203247E0
6.384104020E-1,-6.515502930E-1,9.624664307E0,-8.451309204E0
6.434458020E-1,-5.890808105E-1,9.662170410E0,-8.432235718E0
6.484812030E-1,-6.424560547E-1,9.603424072E0,-8.432891846E0
6.535166030E-1,-6.284332275E-1,9.638610840E0,-8.395416260E0
6.585520030E-1,-5.669708252E-1,9.627731323E0,-8.513290405E0
6.635874040E-1,-5.722351074E-1,9.621246338E0,-8.405776978E0
6.686228040E-1,-6.047210693E-1,9.595993042E0,-8.378295898E0
6.736582050E-1,-5.697174072E-1,9.639862061E0,-8.411422729E0
6.786936050E-1,-5.541839600E-1,9.665573120E0,-8.455276489E0
6.837290050E-1,-5.417327881E-1,9.651336670E0,-8.416442871E0
6.887644060E-1,-5.729522705E-1,9.660125732E0,-8.421600342E0
6.937998060E-1,-5.759124756E-1,9.645309448E0,-8.407791138E0
6.988352070E-1,-5.680694580E-1,9.609603882E0,-8.421737671E0
7.038706070E-1,-5.852661133E-1,9.629989624E0,-8.486221313E0
7.089060070E-1,-5.522155762E-1,9.619934082E0,-8.485626221E0
7.139414080E-1,-5.467529297E-1,9.626144409E0,-8.419464111E0
7.189768080E-1,-5.257720947E-1,9.628021240E0,-8.462005615E0
7.240122090E-1,-5.023651123E-1,9.629119873E0,-8.466217041E0
7.290476090E-1,-5.363616943E-1,9.639038086E0,-8.481781006E0
7.340830090E-1,-5.826416016E-1,9.643081665E0,-8.474349976E0
7.391184100E-1,-5.336761475E-1,9.599975586E0,-8.472351074E0
7.441538100E-1,-5.064239502E-1,9.617996216E0,-8.406295776E0
7.491892110E-1,-4.797363281E-1,9.629791260E0,-8.440353394E0
7.542246110E-1,-5.581359863E-1,9.646377563E0,-8.477966309E0
7.592600110E-1,-5.695953369E-1,9.634231567E0,-8.477798462E0
7.642954120E-1,-5.709838867E-1,9.613983154E0,-8.519851685E0
7.693308120E-1,-5.304718018E-1,9.629333496E0,-8.453063965E0
7.743662120E-1,-5.527954102E-1,9.640579224E0,-8.431381226E0
7.794016130E-1,-5.534210205E-1,9.643142700E0,-8.456787109E0
7.844370130E-1,-5.542144775E-1,9.640747070E0,-8.512664795E0
7.894724140E-1,-5.418243408E-1,9.653457642E0,-8.541320801E0
7.945078140E-1,-5.625152588E-1,9.653213501E0,-8.506225586E0
7.995432140E-1,-5.631256104E-1,9.636718750E0,-8.503448486E0
8.045786150E-1,-5.806884766E-1,9.618499756E0,-8.487884521E0
8.096140150E-1,-6.215209961E-1,9.606719971E0,-8.478057861E0
8.146494160E-1,-5.812072754E-1,9.621917725E0,-8.506256104E0
8.196848160E-1,-5.702667236E-1,9.667083740E0,-8.531585693E0
8.247202160E-1,-6.058807373E-1,9.656158447E0,-8.530975342E0
8.297556170E-1,-6.211090088E-1,9.644943237E0,-8.501525879E0
8.347910170E-1,-6.353607178E-1,9.626647949E0,-8.492233276E0
8.398264180E-1,-6.326446533E-1,9.630096436E0,-8.563385010E0
8.448618180E-1,-6.277770996E-1,9.640243530E0,-8.560699463E0
8.498972180E-1,-6.559143066E-1,9.651596069E0,-8.540222168E0
8.549326190E-1,-6.433410645E-1,9.655288696E0,-8.506668091E0
8.599680190E-1,-6.094818115E-1,9.654342651E0,-8.515441895E0
8.650034190E-1,-6.094360352E-1,9.622207642E0,-8.493774414E0
8.700388200E-1,-6.479034424E-1,9.627090454E0,-8.480987549E0
8.750742200E-1,-6.502685547E-1,9.651992798E0,-8.495971680E0
8.801096210E-1,-6.706390381E-1,9.627960205E0,-8.510284424E0
8.851450210E-1,-6.737518311E-1,9.628250122E0,-8.526626587E0
8.901804210E-1,-6.573333740E-1,9.638778687E0,-8.543243408E0
8.952158220E-1,-6.702117920E-1,9.637390137E0,-8.548477173E0
9.002512220E-1,-6.887512207E-1,9.614593506E0,-8.519805908E0
9.052866230E-1,-7.009735107E-1,9.637557983E0,-8.526046753E0
9.103220230E-1,-7.166595459E-1,9.666900635E0,-8.550323486E0
9.153574230E-1,-7.106475830E-1,9.642227173E0,-8.584609985E0
9.203928240E-1,-7.084655762E-1,9.633819580E0,-8.573974609E0
9.254282240E-1,-7.228851318E-1,9.619110107E0,-8.529800415E0
9.304636250E-1,-6.950531006E-1,9.621109009E0,-8.524749756E0
9.354990250E-1,-6.874542236E-1,9.618469238E0,-8.561614990E0
9.405344250E-1,-6.804809570E-1,9.614776611E0,-8.593154907E0
9.455698260E-1,-6.826019287E-1,9.618499756E0,-8.560775757E0
9.506052260E-1,-7.131805420E-1,9.636428833E0,-8.555755615E0
9.556406270E-1,-7.127990723E-1,9.650100708E0,-8.550567627E0
9.606760270E-1,-7.127380371E-1,9.644119263E0,-8.534927368E0
9.657114270E-1,-7.091217041E-1,9.652420044E0,-8.569061279E0
9.707468280E-1,-7.350921631E-1,9.616241455E0,-8.549133301E0
9.757822280E-1,-7.231292725E-1,9.618637085E0,-8.535568237E0
9.808176280E-1,-7.114257812E-1,9.638504028E0,-8.527359009E0
9.858530290E-1,-6.908569336E-1,9.639022827E0,-8.571243286E0
9.908884290E-1,-6.928863525E-1,9.604232788E0,-8.623413086E0
9.959238300E-1,-6.827392578E-1,9.606765747E0,-8.605987549E0
1.000959230E0,-7.191925049E-1,9.629104614E0,-8.613952637E0
1.005994630E0,-6.979827881E-1,9.659332275E0,-8.549468994E0
1.011030031E0,-6.783905029E-1,9.644088745E0,-8.553390503E0
1.016065431E0,-6.853179932E-1,9.633392334E0,-8.584320068E0
1.021100832E0,-7.097930908E-1,9.647064209E0,-8.537521362E0
1.026136232E0,-7.133178711E-1,9.642761230E0,-8.545013428E0
1.031171632E0,-6.609802246E-1,9.650894165E0,-8.580413818E0
1.036207033E0,-6.640777588E-1,9.665328979E0,-8.607238770E0
1.041242433E0,-6.545410156E-1,9.653686523E0,-8.547760010E0
1.046277834E0,-6.389312744E-1,9.639968872E0,-8.568923950E0
1.051313234E0,-6.494140625E-1,9.658615112E0,-8.571502686E0
1.056348634E0,-6.662750244E-1,9.615158081E0,-8.575469971E0
1.061384035E0,-6.654205322E-1,9.635559082E0,-8.584625244E0
1.066419435E0,-6.367645264E-1,9.636337280E0,-8.550567627E0
1.071454836E0,-6.192321777E-1,9.625137329E0,-8.615570068E0
1.076490236E0,-6.453857422E-1,9.643554688E0,-8.564208984E0
1.081525636E0,-6.502838135E-1,9.651153564E0,-8.540710449E0
1.086561037E0,-6.419982910E-1,9.668411255E0,-8.559448242E0
1.091596437E0,-6.094207764E-1,9.610244751E0,-8.604309082E0
1.096631837E0,-6.429443359E-1,9.664962769E0,-8.559600830E0
1.101667238E0,-5.882110596E-1,9.619934082E0,-8.570037842E0
1.106702638E0,-6.028747559E-1,9.628860474E0,-8.589324951E0
1.111738039E0,-6.529693604E-1,9.654342651E0,-8.547531128E0
1.116773439E0,-6.727752686E-1,9.650009155E0,-8.471145630E0
1.121808839E0,-6.056976318E-1,9.627380371E0,-8.531097412E0
1.126844240E0,-6.584014893E-1,9.634567261E0,-8.648040771E0
1.131879640E0,-6.217041016E-1,9.632904053E0,-8.576599121E0
1.136915041E0,-5.669555664E-1,9.630493164E0,-8.553802490E0
1.141950441E0,-6.196441650E-1,9.646453857E0,-8.532348633E0
1.146985841E0,-5.752868652E-1,9.623840332E0,-8.475830078E0
1.152021242E0,-6.161804199E-1,9.618576050E0,-8.458068848E0
1.157056642E0,-5.649261475E-1,9.646881104E0,-8.635208130E0
1.162092043E0,-5.836334229E-1,9.637542725E0,-8.526809692E0
1.167127443E0,-5.249176025E-1,9.654113770E0,-8.540359497E0
1.172162843E0,-5.871276855E-1,9.646835327E0,-8.481582642E0
1.177198244E0,-5.221252441E-1,9.634796143E0,-8.480117798E0
1.182233644E0,-6.082611084E-1,9.624908447E0,-8.436401367E0
1.187269044E0,-5.656433105E-1,9.667251587E0,-8.502349854E0
1.192304445E0,-5.366973877E-1,9.639389038E0,-8.539505005E0
1.197339845E0,-5.487365723E-1,9.632476807E0,-8.510437012E0
1.202375246E0,-5.614013672E-1,9.660125732E0,-8.485580444E0
1.207410646E0,-5.785980225E-1,9.645248413E0,-8.536331177E0
1.212446046E0,-5.503234863E-1,9.648773193E0,-8.530014038E0
1.217481447E0,-5.759887695E-1,9.625274658E0,-8.470092773E0
1.222516847E0,-5.942077637E-1,9.680999756E0,-8.493774414E0
1.227552248E0,-5.944061279E-1,9.626907349E0,-8.482330322E0
1.232587648E0,-5.341949463E-1,9.621124268E0,-8.527633667E0
1.237623048E0,-5.563507080E-1,9.642791748E0,-8.551559448E0
1.242658449E0,-5.649414062E-1,9.659988403E0,-8.551696777E0
1.247693849E0,-5.626220703E-1,9.649642944E0,-8.518524170E0
1.252729250E0,-5.414581299E-1,9.639053345E0,-8.533004761E0
1.257764650E0,-5.582733154E-1,9.647872925E0,-8.497711182E0
1.262800050E0,-5.605163574E-1,9.648010254E0,-8.473327637E0
1.267835451E0,-5.567474365E-1,9.625900269E0,-8.478302002E0
1.272870851E0,-5.727233887E-1,9.611724854E0,-8.477706909E0
1.277906252E0,-5.615539551E-1,9.635238647E0,-8.495040894E0
1.282941652E0,-5.433502197E-1,9.648254395E0,-8.511154175E0
1.287977052E0,-5.569915771E-1,9.659194946E0,-8.515975952E0
1.293012453E0,-5.744934082E-1,9.645751953E0,-8.521865845E0
1.298047853E0,-5.842132568E-1,9.623336792E0,-8.527465820E0
1.303083253E0,-5.805358887E-1,9.614898682E0,-8.503143311E0
1.308118654E0,-5.583190918E-1,9.622650146E0,-8.441345215E0
1.313154054E0,-5.767211914E-1,9.657470703E0,-8.453414917E0
1.318189455E0,-6.656646729E-1,9.649307251E0,-8.548416138E0
1.323224855E0,-6.516723633E-1,9.634292603E0,-8.611709595E0
1.328260255E0,-6.355438232E-1,9.689270020E0,-8.639495850E0
1.333295656E0,-5.747985840E-1,9.643218994E0,-8.526351929E0
1.338331056E0,-5.772247314E-1,9.628051758E0,-8.572235107E0
1.343366457E0,-6.294097900E-1,9.653869629E0,-8.601379395E0
1.348401857E0,-5.674133301E-1,9.614990234E0,-8.533828735E0
1.353437257E0,-5.439758301E-1,9.648040771E0,-8.437744141E0
1.358472658E0,-5.736846924E-1,9.664764404E0,-8.416061401E0
1.363508058E0,-5.976867676E-1,9.638214111E0,-8.476470947E0
1.368543459E0,-5.499114990E-1,9.647354126E0,-8.520294189E0
1.373578859E0,-5.547790527E-1,9.654220581E0,-8.485671997E0
1.378614259E0,-5.868988037E-1,9.617599487E0,-8.504318237E0
1.383649660E0,-6.268463135E-1,9.609222412E0,-8.489456177E0
1.388685060E0,-5.940856934E-1,9.648132324E0,-8.500823975E0
1.393720461E0,-5.835113525E-1,9.661361694E0,-8.477996826E0
1.398755861E0,-5.845184326E-1,9.630523682E0,-8.520050049E0
1.403791261E0,-5.883941650E-1,9.622909546E0,-8.505401611E0
1.408826662E0,-5.736541748E-1,9.638168335E0,-8.524429321E0
1.413862062E0,-5.701751709E-1,9.637145996E0,-8.486038208E0
1.418897462E0,-5.839233398E-1,9.618286133E0,-8.465942383E0
1.423932863E0,-5.988464355E-1,9.626388550E0,-8.524719238E0
1.428968263E0,-5.869445801E-1,9.626022339E0,-8.501388550E0
1.434003664E0,-5.532073975E-1,9.631179810E0,-8.465332031E0
1.439039064E0,-5.395660400E-1,9.629394531E0,-8.476989746E0
1.444074464E0,-5.431671143E-1,9.613739014E0,-8.437545776E0
1.449109865E0,-5.952911377E-1,9.629486084E0,-8.418609619E0
1.454145265E0,-5.937194824E-1,9.637268066E0,-8.456527710E0
1.459180666E0,-5.493011475E-1,9.635391235E0,-8.480087280E0
1.464216066E0,-5.908050537E-1,9.614501953E0,-8.405822754E0
1.469251466E0,-5.737304688E-1,9.636230469E0,-8.336853027E0
1.474286867E0,-5.628204346E-1,9.645645142E0,-8.348953247E0
1.479322267E0,-5.737152100E-1,9.625930786E0,-8.378295898E0
1.484357668E0,-5.635833740E-1,9.644317627E0,-8.418624878E0
1.489393068E0,-5.783843994E-1,9.640029907E0,-8.445251465E0
1.494428468E0,-5.841979980E-1,9.623809814E0,-8.470687866E0
1.499463869E0,-5.826873779E-1,9.625137329E0,-8.455047607E0
1.504499269E0,-5.922698975E-1,9.652435303E0,-8.435409546E0
1.509534669E0,-5.891571045E-1,9.637817383E0,-8.465560913E0
1.514570070E0,-5.821533203E-1,9.652542114E0,-8.467666626E0
1.519605470E0,-5.752410889E-1,9.647674561E0,-8.439727783E0
1.524640871E0,-6.006927490E-1,9.616012573E0,-8.461212158E0
1.529676271E0,-6.138916016E-1,9.621978760E0,-8.411499023E0
1.534711671E0,-5.934600830E-1,9.631958008E0,-8.447891235E0
1.539747072E0,-5.583343506E-1,9.605880737E0,-8.423049927E0
1.544782472E0,-6.098022461E-1,9.621215820E0,-8.400756836E0
1.549817873E0,-6.050109863E-1,9.638412476E0,-8.439544678E0
1.554853273E0,-6.296539307E-1,9.606918335E0,-8.461990356E0
1.559888673E0,-6.161956787E-1,9.629028320E0,-8.454895020E0
1.564924074E0,-5.892181396E-1,9.666564941E0,-8.479248047E0
1.569959474E0,-6.195220947E-1,9.653411865E0,-8.508178711E0
1.574994875E0,-6.042633057E-1,9.606674194E0,-8.509719849E0
1.580030275E0,-6.247100830E-1,9.632614136E0,-8.525283813E0
1.585065675E0,-6.519470215E-1,9.622268677E0,-8.490829468E0
1.590101076E0,-6.574249268E-1,9.603027344E0,-8.487533569E0
1.595136476E0,-6.501922607E-1,9.615753174E0,-8.538177490E0
1.600171877E0,-6.826629639E-1,9.624526978E0,-8.507263184E0
1.605207277E0,-6.189575195E-1,9.634902954E0,-8.495330811E0
1.610242677E0,-6.447296143E-1,9.615066528E0,-8.501480103E0
1.615278078E0,-6.821136475E-1,9.586196899E0,-8.497299194E0
1.620313478E0,-7.324371338E-1,9.637878418E0,-8.490112305E0
1.625348878E0,-6.543273926E-1,9.626724243E0,-8.494506836E0
1.630384279E0,-6.218872070E-1,9.638488770E0,-8.550643921E0
1.635419679E0,-6.489562988E-1,9.610717773E0,-8.562515259E0
1.640455080E0,-6.590576172E-1,9.618209839E0,-8.534500122E0
1.645490480E0,-7.062225342E-1,9.612808228E0,-8.509002686E0
1.650525880E0,-7.025146484E-1,9.601318359E0,-8.519424438E0
1.655561281E0,-7.208251953E-1,9.628219604E0,-8.509704590E0
1.660596681E0,-6.804962158E-1,9.616165161E0,-8.551345825E0
1.665632082E0,-7.203521729E-1,9.613739014E0,-8.519897461E0
1.670667482E0,-6.798400879E-1,9.639160156E0,-8.561523438E0
1.675702882E0,-7.127380371E-1,9.665908813E0,-8.498580933E0
1.680738283E0,-7.126159668E-1,9.655502319E0,-8.443511963E0
1.685773683E0,-7.231292725E-1,9.625717163E0,-8.511016846E0
1.690809084E0,-7.086334229E-1,9.640899658E0,-8.490798950E0
1.695844484E0,-7.007598877E-1,9.648956299E0,-8.466506958E0
1.700879884E0,-7.497558594E-1,9.633697510E0,-8.509887695E0
1.705915285E0,-6.865844727E-1,9.644165039E0,-8.517074585E0
1.710950685E0,-7.134246826E-1,9.603393555E0,-8.576904297E0
1.715986086E0,-6.476287842E-1,9.622604370E0,-8.533020020E0
1.721021486E0,-7.179565430E-1,9.658294678E0,-8.573623657E0
1.726056886E0,-6.840515137E-1,9.630737305E0,-8.579116821E0
1.731092287E0,-6.930847168E-1,9.609100342E0,-8.512924194E0
1.736127687E0,-7.360534668E-1,9.627777100E0,-8.574478149E0
1.741163087E0,-7.447357178E-1,9.590072632E0,-8.587356567E0
1.746198488E0,-4.959716797E-1,9.602294922E0,-8.673980713E0
1.751233888E0,-7.007598877E-1,9.620803833E0,-8.751693726E0
1.756269289E0,-6.449584961E-1,9.617568970E0,-8.708892822E0
1.761304689E0,-7.357330322E-1,9.600219727E0,-8.625869751E0
1.766340089E0,-6.969909668E-1,9.647964478E0,-8.566452026E0
1.771375490E0,-7.769775391E-1,9.563278198E0,-8.524307251E0
1.776410890E0,-6.948394775E-1,9.589630127E0,-8.552612305E0
1.781446291E0,-7.149963379E-1,9.615249634E0,-8.547576904E0
1.786481691E0,-7.176971436E-1,9.628768921E0,-8.531097412E0
1.791517091E0,-7.036437988E-1,9.616943359E0,-8.443908691E0
1.796552492E0,-7.160949707E-1,9.643371582E0,-8.502304077E0
1.801587892E0,-7.431640625E-1,9.631103516E0,-8.604721069E0
1.806623293E0,-7.065124512E-1,9.616973877E0,-8.548889160E0
1.811658693E0,-6.954650879E-1,9.607879639E0,-8.560012817E0
1.816694093E0,-6.645660400E-1,9.622039795E0,-8.496841431E0
1.821729494E0,-6.663970947E-1,9.654022217E0,-8.486892700E0
1.826764894E0,-6.756896973E-1,9.639923096E0,-8.481124878E0
1.831800294E0,-6.737518311E-1,9.643997192E0,-8.502182007E0
1.836835695E0,-6.866607666E-1,9.655441284E0,-8.506072998E0
1.841871095E0,-7.025299072E-1,9.625686646E0,-8.531631470E0
1.846906496E0,-7.117156982E-1,9.646301270E0,-8.486419678E0
1.851941896E0,-6.983795166E-1,9.602722168E0,-8.483673096E0
1.856977296E0,-6.634063721E-1,9.612747192E0,-8.536437988E0
1.862012697E0,-6.947479248E-1,9.659347534E0,-8.511596680E0
1.867048097E0,-7.036132812E-1,9.626907349E0,-8.534973145E0
1.872083498E0,-6.988830566E-1,9.632537842E0,-8.520706177E0
1.877118898E0,-6.532897949E-1,9.655349731E0,-8.528518677E0
1.882154298E0,-6.678161621E-1,9.633163452E0,-8.499481201E0
1.887189699E0,-6.868286133E-1,9.615737915E0,-8.498504639E0
1.892225099E0,-6.881713867E-1,9.619186401E0,-8.497680664E0
1.897260500E0,-6.624755859E-1,9.658233643E0,-8.515823364E0
1.902295900E0,-6.540679932E-1,9.635437012E0,-8.478042603E0
1.907331300E0,-6.872406006E-1,9.620300293E0,-8.463958740E0
1.912366701E0,-6.950531006E-1,9.630630493E0,-8.499282837E0
1.917402101E0,-6.455841064E-1,9.630157471E0,-8.527465820E0
1.922437502E0,-6.407623291E-1,9.645446777E0,-8.537109375E0
1.927472902E0,-6.497039795E-1,9.641601562E0,-8.495742798E0
1.932508302E0,-6.669464111E-1,9.634460449E0,-8.447875977E0
1.937543703E0,-6.635284424E-1,9.606597900E0,-8.500137329E0
1.942579103E0,-6.626892090E-1,9.625869751E0,-8.504257202E0
1.947614503E0,-6.663208008E-1,9.648162842E0,-8.505432129E0
1.952649904E0,-6.528930664E-1,9.622207642E0,-8.514556885E0
1.957685304E0,-6.446075439E-1,9.625625610E0,-8.523101807E0
1.962720705E0,-6.566467285E-1,9.632537842E0,-8.544433594E0
1.967756105E0,-6.764678955E-1,9.620101929E0,-8.513076782E0
1.972791505E0,-6.470184326E-1,9.658554077E0,-8.489639282E0
1.977826906E0,-6.404266357E-1,9.658737183E0,-8.495956421E0
1.982862306E0,-6.804656982E-1,9.626190186E0,-8.502761841E0
1.987897707E0,-6.764678955E-1,9.623016357E0,-8.546310425E0
1.992933107E0,-6.775665283E-1,9.634399414E0,-8.542175293E0
1.997968507E0,-6.777343750E-1,9.640213013E0,-8.516647339E0
2.003003908E0,-6.753387451E-1,9.636291504E0,-8.490890503E0
2.008039308E0,-6.624908447E-1,9.625930786E0,-8.519073486E0
2.013074709E0,-6.455841064E-1,9.618438721E0,-8.559921265E0
2.018110109E0,-6.323852539E-1,9.632827759E0,-8.587570190E0
2.023145509E0,-6.228942871E-1,9.644729614E0,-8.577484131E0
2.028180910E0,-6.155242920E-1,9.629684448E0,-8.554016113E0
2.033216310E0,-6.263427734E-1,9.620086670E0,-8.525192261E0
2.038251711E0,-6.381835938E-1,9.624343872E0,-8.504287720E0
2.043287111E0,-6.386260986E-1,9.633697510E0,-8.536727905E0
2.048322511E0,-6.168518066E-1,9.642303467E0,-8.550552368E0
2.053357912E0,-6.060180664E-1,9.622055054E0,-8.545135498E0
2.058393312E0,-6.053771973E-1,9.617507935E0,-8.583694458E0
2.063428712E0,-5.975341797E-1,9.639511108E0,-8.532424927E0
2.068464113E0,-6.166687012E-1,9.663513184E0,-8.545806885E0
2.073499513E0,-6.155090332E-1,9.634597778E0,-8.543365479E0
2.078534914E0,-5.890960693E-1,9.601715088E0,-8.530456543E0
2.083570314E0,-5.995330811E-1,9.607391357E0,-8.506591797E0
2.088605714E0,-6.181793213E-1,9.616714478E0,-8.495910645E0
2.093641115E0,-6.293182373E-1,9.616973877E0,-8.528823853E0
2.098676515E0,-6.059417725E-1,9.645339966E0,-8.523468018E0
2.103711916E0,-5.986022949E-1,9.653518677E0,-8.492202759E0
2.108747316E0,-6.074371338E-1,9.646270752E0,-8.508468628E0
2.113782716E0,-6.130218506E-1,9.641479492E0,-8.499694824E0
2.118818117E0,-6.000823975E-1,9.620574951E0,-8.488723755E0
2.123853517E0,-5.866241455E-1,9.668594360E0,-8.506713867E0
2.128888918E0,-5.869445801E-1,9.664886475E0,-8.514907837E0
2.133924318E0,-5.749664307E-1,9.631668091E0,-8.499786377E0
2.138959718E0,-5.761566162E-1,9.618164062E0,-8.527435303E0
2.143995119E0,-5.874938965E-1,9.612670898E0,-8.487670898E0
2.149030519E0,-5.872955322E-1,9.651412964E0,-8.455093384E0
2.154065919E0,-5.754241943E-1,9.674942017E0,-8.510711670E0
2.159101320E0,-5.503082275E-1,9.644088745E0,-8.522644043E0
2.164136720E0,-5.812072754E-1,9.650878906E0,-8.557693481E0
2.169172121E0,-6.114501953E-1,9.645599365E0,-8.529418945E0
2.174207521E0,-5.891418457E-1,9.634872437E0,-8.489456177E0
2.179242921E0,-5.868835449E-1,9.653366089E0,-8.477828979E0
2.184278322E0,-5.561218262E-1,9.668457031E0,-8.516677856E0
2.189313722E0,-5.709228516E-1,9.649780273E0,-8.524887085E0
2.194349123E0,-5.996704102E-1,9.665908813E0,-8.541793823E0
2.199384523E0,-5.620117188E-1,9.653244019E0,-8.506713867E0
2.204419923E0,-5.526885986E-1,9.629699707E0,-8.510086060E0
2.209455324E0,-5.727081299E-1,9.657638550E0,-8.478515625E0
2.214490724E0,-5.724639893E-1,9.639511108E0,-8.522491455E0
2.219526125E0,-6.022186279E-1,9.622955322E0,-8.523437500E0
2.224561525E0,-5.600891113E-1,9.643524170E0,-8.532333374E0
2.229596925E0,-6.004333496E-1,9.626296997E0,-8.521484375E0
2.234632326E0,-5.885162354E-1,9.616943359E0,-8.441848755E0
2.239667726E0,-5.838928223E-1,9.665145874E0,-8.504074097E0
2.244703127E0,-5.641937256E-1,9.629791260E0,-8.486587524E0
2.249738527E0,-5.687561035E-1,9.664825439E0,-8.492660522E0
2.254773927E0,-5.561218262E-1,9.657455444E0,-8.484649658E0
2.259809328E0,-5.923767090E-1,9.617080688E0,-8.459823608E0
2.264844728E0,-5.888824463E-1,9.649246216E0,-8.511047363E0
2.269880128E0,-5.456695557E-1,9.613586426E0,-8.503662109E0
2.274915529E0,-5.386199951E-1,9.656906128E0,-8.516662598E0
2.279950929E0,-5.865783691E-1,9.624557495E0,-8.512695312E0
2.284986330E0,-5.768585205E-1,9.648635864E0,-8.517135620E0
2.290021730E0,-6.183013916E-1,9.654083252E0,-8.461547852E0
2.295057130E0,-5.934906006E-1,9.637741089E0,-8.488372803E0
2.300092531E0,-5.907897949E-1,9.658828735E0,-8.429565430E0
2.305127931E0,-6.121978760E-1,9.627990723E0,-8.522247314E0
2.310163332E0,-6.119995117E-1,9.623077393E0,-8.554199219E0
2.315198732E0,-5.962371826E-1,9.610366821E0,-8.461547852E0
2.320234132E0,-6.240386963E-1,9.665878296E0,-8.516479492E0
2.325269533E0,-6.209106445E-1,9.658660889E0,-8.489883423E0
2.330304933E0,-6.035003662E-1,9.650299072E0,-8.463226318E0
2.335340334E0,-6.216735840E-1,9.623336792E0,-8.476516724E0
2.340375734E0,-6.553497314E-1,9.659103394E0,-8.477157593E0
2.345411134E0,-6.261444092E-1,9.627136230E0,-8.546295166E0
2.350446535E0,-6.229400635E-1,9.616928101E0,-8.516967773E0
2.355481935E0,-6.349182129E-1,9.622360229E0,-8.464920044E0
2.360517336E0,-6.252746582E-1,9.595062256E0,-8.495956421E0
2.365552736E0,-6.383666992E-1,9.640472412E0,-8.559371948E0
2.370588136E0,-6.554870605E-1,9.630065918E0,-8.530883789E0
2.375623537E0,-6.444244385E-1,9.661895752E0,-8.513549805E0
2.380658937E0,-6.632690430E-1,9.640502930E0,-8.546920776E0
2.385694337E0,-6.281433105E-1,9.594879150E0,-8.514144897E0
2.390729738E0,-6.519470215E-1,9.661544800E0,-8.545318604E0
2.395765138E0,-6.459503174E-1,9.626785278E0,-8.498687744E0
2.400800539E0,-6.343688965E-1,9.640991211E0,-8.479263306E0
2.405835939E0,-6.360626221E-1,9.625427246E0,-8.492843628E0
2.410871339E0,-6.689605713E-1,9.631103516E0,-8.499267578E0
2.415906740E0,-6.330261230E-1,9.617462158E0,-8.505157471E0
2.420942140E0,-6.613006592E-1,9.631790161E0,-8.547058105E0
2.425977541E0,-6.582641602E-1,9.624954224E0,-8.526977539E0
2.431012941E0,-6.324005127E-1,9.628234863E0,-8.533645630E0
2.436048341E0,-6.543426514E-1,9.665786743E0,-8.529418945E0
2.441083742E0,-6.528472900E-1,9.632598877E0,-8.540618896E0
2.446119142E0,-6.336212158E-1,9.652420044E0,-8.512527466E0
2.451154543E0,-6.389312744E-1,9.650115967E0,-8.494598389E0
2.456189943E0,-6.393737793E-1,9.648101807E0,-8.529876709E0
2.461225343E0,-6.491394043E-1,9.623748779E0,-8.483703613E0
2.466260744E0,-6.486358643E-1,9.627990723E0,-8.493179321E0
2.471296144E0,-6.796875000E-1,9.603515625E0,-8.532546997E0
2.476331544E0,-6.681976318E-1,9.603286743E0,-8.531356812E0
2.481366945E0,-6.742401123E-1,9.611053467E0,-8.501312256E0
2.486402345E0,-6.747131348E-1,9.629333496E0,-8.449066162E0
2.491437746E0,-6.781158447E-1,9.640747070E0,-8.494308472E0
2.496473146E0,-6.597595215E-1,9.632080078E0,-8.503524780E0
2.501508546E0,-6.708679199E-1,9.632431030E0,-8.533355713E0
2.506543947E0,-7.097015381E-1,9.626205444E0,-8.500717163E0
2.511579347E0,-7.124481201E-1,9.625900269E0,-8.491836548E0
2.516614748E0,-6.874847412E-1,9.609924316E0,-8.503585815E0
2.521650148E0,-6.896514893E-1,9.623260498E0,-8.479583740E0
2.526685548E0,-6.871032715E-1,9.629791260E0,-8.478576660E0
2.531720949E0,-6.884613037E-1,9.645660400E0,-8.509063721E0
2.536756349E0,-7.078399658E-1,9.654205322E0,-8.483108521E0
2.541791750E0,-6.970214844E-1,9.643188477E0,-8.494720459E0
2.546827150E0,-6.981964111E-1,9.647323608E0,-8.483688354E0
2.551862550E0,-6.948547363E-1,9.656646729E0,-8.470214844E0
2.556897951E0,-6.767578125E-1,9.637268066E0,-8.473617554E0
2.561933351E0,-6.785278320E-1,9.633514404E0,-8.469512939E0
2.566968752E0,-6.791229248E-1,9.631072998E0,-8.477432251E0
2.572004152E0,-6.828918457E-1,9.642028809E0,-8.492156982E0
2.577039552E0,-6.729431152E-1,9.628707886E0,-8.513839722E0
2.582074953E0,-6.717071533E-1,9.635833740E0,-8.524154663E0
2.587110353E0,-6.681365967E-1,9.637542725E0,-8.552993774E0
2.592145753E0,-6.706390381E-1,9.610137939E0,-8.551513672E0
2.597181154E0,-6.826477051E-1,9.641052246E0,-8.531387329E0
2.602216554E0,-6.883697510E-1,9.643234253E0,-8.487869263E0
2.607251955E0,-6.730499268E-1,9.631271362E0,-8.504104614E0
2.612287355E0,-6.740264893E-1,9.651336670E0,-8.546936035E0
2.617322755E0,-6.859893799E-1,9.636611938E0,-8.509048462E0
2.622358156E0,-6.953430176E-1,9.630508423E0,-8.496551514E0
2.627393556E0,-6.891632080E-1,9.634521484E0,-8.530380249E0
2.632428957E0,-6.761169434E-1,9.623535156E0,-8.534866333E0
2.637464357E0,-6.782989502E-1,9.636718750E0,-8.515579224E0
2.642499757E0,-6.840820312E-1,9.630950928E0,-8.504913330E0
2.647535158E0,-7.004547119E-1,9.631500244E0,-8.517456055E0
2.652570558E0,-6.790161133E-1,9.647247314E0,-8.557586670E0
2.657605959E0,-6.835021973E-1,9.642929077E0,-8.554580688E0
2.662641359E0,-6.843566895E-1,9.628509521E0,-8.474899292E0
2.667676759E0,-6.810455322E-1,9.632400513E0,-8.474441528E0
2.672712160E0,-6.650390625E-1,9.626693726E0,-8.466445923E0
2.677747560E0,-6.613159180E-1,9.628707886E0,-8.499221802E0
2.682782961E0,-6.661682129E-1,9.618453979E0,-8.554672241E0
2.687818361E0,-6.814575195E-1,9.632293701E0,-8.529373169E0
2.692853761E0,-6.785583496E-1,9.614486694E0,-8.534667969E0
2.697889162E0,-6.360321045E-1,9.588592529E0,-8.511093140E0
2.702924562E0,-6.428527832E-1,9.594543457E0,-8.526092529E0
2.707959962E0,-6.339874268E-1,9.638504028E0,-8.552291870E0
2.712995363E0,-6.437225342E-1,9.631790161E0,-8.490539551E0
2.718030763E0,-6.485443115E-1,9.625000000E0,-8.540267944E0
2.723066164E0,-6.443634033E-1,9.645111084E0,-8.528305054E0
2.728101564E0,-6.377563477E-1,9.642837524E0,-8.511306763E0
2.733136964E0,-6.523437500E-1,9.641723633E0,-8.499252319E0
2.738172365E0,-6.409759521E-1,9.627670288E0,-8.545227051E0
2.743207765E0,-6.397247314E-1,9.634384155E0,-8.504486084E0
2.748243166E0,-6.407623291E-1,9.658126831E0,-8.484970093E0
2.753278566E0,-6.464691162E-1,9.640945435E0,-8.501037598E0
2.758313966E0,-6.517486572E-1,9.621749878E0,-8.482391357E0
2.763349367E0,-6.332550049E-1,9.663162231E0,-8.513717651E0
2.768384767E0,-6.582641602E-1,9.665405273E0,-8.492645264E0
2.773420168E0,-6.211395264E-1,9.626220703E0,-8.527786255E0
2.778455568E0,-6.281127930E-1,9.654281616E0,-8.590011597E0
2.783490968E0,-6.252441406E-1,9.621276855E0,-8.568542480E0
2.788526369E0,-6.200408936E-1,9.638092041E0,-8.511764526E0
2.793561769E0,-6.295776367E-1,9.638198853E0,-8.533691406E0
2.798597169E0,-5.797271729E-1,9.618988037E0,-8.528396606E0
2.803632570E0,-6.281280518E-1,9.639083862E0,-8.508010864E0
2.808667970E0,-6.339111328E-1,9.621246338E0,-8.503280640E0
2.813703371E0,-6.123046875E-1,9.614227295E0,-8.496597290E0
2.818738771E0,-5.690155029E-1,9.641662598E0,-8.500152588E0
2.823774171E0,-6.255187988E-1,9.620742798E0,-8.489730835E0
2.828809572E0,-6.071472168E-1,9.646987915E0,-8.455841064E0
2.833844972E0,-5.962371826E-1,9.656051636E0,-8.472869873E0
2.838880373E0,-5.776672363E-1,9.649871826E0,-8.521347046E0
2.843915773E0,-6.104583740E-1,9.640380859E0,-8.494995117E0
2.848951173E0,-5.643463135E-1,9.669540405E0,-8.488922119E0
2.853986574E0,-6.172637939E-1,9.654800415E0,-8.527694702E0
2.859021974E0,-5.870361328E-1,9.628814697E0,-8.503799438E0
2.864057375E0,-6.210632324E-1,9.611663818E0,-8.456268311E0
2.869092775E0,-5.892028809E-1,9.641555786E0,-8.504180908E0
2.874128175E0,-5.955352783E-1,9.635162354E0,-8.519668579E0
2.879163576E0,-6.051025391E-1,9.647109985E0,-8.493545532E0
2.884198682E0,-6.119079590E-1,9.656356812E0,-8.504730225E0
2.889234083E0,-5.954895020E-1,9.644790649E0,-8.471008301E0
2.894269483E0,-5.938262939E-1,9.649291992E0,-8.524353027E0
2.899304883E0,-6.125488281E-1,9.643157959E0,-8.521743774E0
2.904340284E0,-5.682678223E-1,9.610366821E0,-8.512680054E0
2.909375684E0,-5.933074951E-1,9.637237549E0,-8.470550537E0
2.914411084E0,-5.947418213E-1,9.630859375E0,-8.488113403E0
2.919446485E0,-5.841674805E-1,9.606658936E0,-8.538314819E0
2.924481885E0,-5.879364014E-1,9.637329102E0,-8.448562622E0
2.929517286E0,-5.592041016E-1,9.634933472E0,-8.497528076E0
2.934552686E0,-5.794677734E-1,9.633514404E0,-8.450393677E0
2.939588086E0,-6.071624756E-1,9.636505127E0,-8.513824463E0
2.944623487E0,-6.232299805E-1,9.610137939E0,-8.540267944E0
2.949658887E0,-6.148376465E-1,9.623672485E0,-8.513931274E0
2.954694288E0,-5.977325439E-1,9.655105591E0,-8.493988037E0
2.959729688E0,-5.837097168E-1,9.631439209E0,-8.512176514E0
2.964765088E0,-6.024475098E-1,9.635269165E0,-8.513916016E0
2.969800489E0,-6.206054688E-1,9.621688843E0,-8.527282715E0
2.974835889E0,-5.920104980E-1,9.612915039E0,-8.498382568E0
2.979871290E0,-5.983581543E-1,9.612884521E0,-8.518997192E0
2.984906690E0,-5.967102051E-1,9.632186890E0,-8.504486084E0
2.989942090E0,-5.877990723E-1,9.633377075E0,-8.508560181E0
2.994977491E0,-6.116180420E-1,9.612518311E0,-8.544052124E0
3.000012891E0,-6.008148193E-1,9.632598877E0,-8.556381226E0
3.005048292E0,-6.048278809E-1,9.620025635E0,-8.554214478E0
3.010083692E0,-6.144256592E-1,9.610076904E0,-8.558914185E0
3.015119092E0,-6.147613525E-1,9.623596191E0,-8.598678589E0
3.020154493E0,-6.069335938E-1,9.641021729E0,-8.474472046E0
3.025189893E0,-6.372985840E-1,9.603073120E0,-8.503967285E0
3.030225293E0,-6.049041748E-1,9.618011475E0,-8.529968262E0
3.035260694E0,-6.075592041E-1,9.643005371E0,-8.531631470E0
3.040296094E0,-6.302642822E-1,9.632354736E0,-8.504455566E0
3.045331495E0,-6.231231689E-1,9.643829346E0,-8.511291504E0
3.050366895E0,-6.191864014E-1,9.631851196E0,-8.570953369E0
3.055402295E0,-5.966491699E-1,9.634399414E0,-8.563034058E0
3.060437696E0,-5.867156982E-1,9.632781982E0,-8.559020996E0
3.065473096E0,-6.073608398E-1,9.631195068E0,-8.533905029E0
3.070508497E0,-6.205596924E-1,9.632080078E0,-8.553909302E0
3.075543897E0,-5.957489014E-1,9.640747070E0,-8.545852661E0
3.080579297E0,-6.059112549E-1,9.642303467E0,-8.541473389E0
3.085614698E0,-5.942993164E-1,9.644042969E0,-8.582443237E0
3.090650098E0,-5.807342529E-1,9.652450562E0,-8.574264526E0
3.095685499E0,-6.074371338E-1,9.646713257E0,-8.577011108E0
3.100720899E0,-6.274261475E-1,9.629791260E0,-8.537170410E0
3.105756299E0,-6.307830811E-1,9.631286621E0,-8.570755005E0
3.110791700E0,-6.258087158E-1,9.624359131E0,-8.594039917E0
3.115827100E0,-6.015625000E-1,9.639785767E0,-8.575408936E0
3.120862500E0,-6.112365723E-1,9.647399902E0,-8.531814575E0
3.125897901E0,-6.301422119E-1,9.630050659E0,-8.426071167E0
3.130933301E0,-5.829315186E-1,9.633743286E0,-8.441940308E0
3.135968702E0,-6.016845703E-1,9.645004272E0,-8.526321411E0
3.141004102E0,-6.442718506E-1,9.632293701E0,-8.489532471E0
3.146039502E0,-6.061096191E-1,9.633117676E0,-8.494003296E0
3.151074903E0,-6.228637695E-1,9.633712769E0,-8.544326782E0
3.156110303E0,-6.492919922E-1,9.634063721E0,-8.563598633E0
3.161145704E0,-6.264801025E-1,9.641113281E0,-8.557754517E0
3.166181104E0,-6.096496582E-1,9.651733398E0,-8.534973145E0
3.171216504E0,-5.978698730E-1,9.637298584E0,-8.538986206E0
3.176251905E0,-6.054840088E-1,9.635467529E0,-8.527008057E0
3.181287305E0,-6.107330322E-1,9.651290894E0,-8.529800415E0
3.186322706E0,-6.427154541E-1,9.641983032E0,-8.528396606E0
3.191358106E0,-6.384887695E-1,9.634658813E0,-8.526092529E0
3.196393506E0,-6.095123291E-1,9.642608643E0,-8.541397095E0
3.201428907E0,-6.184234619E-1,9.629577637E0,-8.568176270E0
3.206464307E0,-6.111602783E-1,9.624069214E0,-8.531967163E0
3.211499708E0,-6.569671631E-1,9.612426758E0,-8.534561157E0
3.216535108E0,-6.581573486E-1,9.630569458E0,-8.558197021E0
3.221570508E0,-6.234130859E-1,9.623153687E0,-8.543685913E0
3.226605909E0,-6.110382080E-1,9.615478516E0,-8.506713867E0
3.231641309E0,-6.119537354E-1,9.653961182E0,-8.523315430E0
3.236676709E0,-6.389770508E-1,9.644287109E0,-8.549560547E0
3.241712110E0,-6.434478760E-1,9.629547119E0,-8.519134521E0
3.246747510E0,-6.306304932E-1,9.638153076E0,-8.528579712E0
3.251782911E0,-6.045379639E-1,9.651702881E0,-8.535629272E0
3.256818311E0,-6.281738281E-1,9.635879517E0,-8.520416260E0
3.261853711E0,-6.197509766E-1,9.615966797E0,-8.506851196E0
3.266889112E0,-6.156158447E-1,9.637527466E0,-8.491546631E0
3.271924512E0,-6.226501465E-1,9.644470215E0,-8.496261597E0
3.276959913E0,-6.140289307E-1,9.642303467E0,-8.483825684E0
3.281995313E0,-6.098175049E-1,9.652481079E0,-8.509078979E0
3.287030713E0,-6.183929443E-1,9.641159058E0,-8.535736084E0
3.292066114E0,-6.356353760E-1,9.650787354E0,-8.506332397E0
3.297101514E0,-6.372528076E-1,9.637252808E0,-8.514556885E0
3.302136915E0,-6.360015869E-1,9.662460327E0,-8.489974976E0
3.307172315E0,-6.342163086E-1,9.637252808E0,-8.497192383E0
3.312207715E0,-6.427612305E-1,9.609207153E0,-8.461013794E0
3.317243116E0,-6.141967773E-1,9.607894897E0,-8.518295288E0
3.322278516E0,-6.312408447E-1,9.618316650E0,-8.512527466E0
3.327313917E0,-6.044311523E-1,9.613327026E0,-8.529907227E0
3.332349317E0,-6.242370605E-1,9.624740601E0,-8.486587524E0
3.337384717E0,-6.331787109E-1,9.662765503E0,-8.478302002E0
3.342420118E0,-6.336212158E-1,9.643630981E0,-8.457794189E0
3.347455518E0,-6.395416260E-1,9.663162231E0,-8.462875366E0
3.352490918E0,-6.407623291E-1,9.612457275E0,-8.476913452E0
3.357526319E0,-6.448059082E-1,9.628051758E0,-8.521560669E0
3.362561719E0,-6.292724609E-1,9.667312622E0,-8.543411255E0
3.367597120E0,-5.976562500E-1,9.630004883E0,-8.473770142E0
3.372632520E0,-6.035461426E-1,9.646087646E0,-8.477066040E0
3.377667920E0,-5.987548828E-1,9.619995117E0,-8.493911743E0
3.382703321E0,-6.148834229E-1,9.630950928E0,-8.517044067E0
3.387738721E0,-6.212615967E-1,9.615600586E0,-8.526107788E0
3.392774122E0,-6.087493896E-1,9.611572266E0,-8.539779663E0
3.397809522E0,-5.986785889E-1,9.644210815E0,-8.527938843E0
3.402844922E0,-6.332244873E-1,9.647064209E0,-8.575332642E0
3.407880323E0,-6.337890625E-1,9.635955811E0,-8.534759521E0
3.412915723E0,-6.516265869E-1,9.650894165E0,-8.551803589E0
3.417951124E0,-6.549377441E-1,9.608795166E0,-8.507705688E0
3.422986524E0,-6.160736084E-1,9.608886719E0,-8.530593872E0
3.428021924E0,-6.376647949E-1,9.604354858E0,-8.515411377E0
3.433057325E0,-6.290435791E-1,9.639251709E0,-8.524246216E0
3.438092725E0,-6.688385010E-1,9.614044189E0,-8.503265381E0
3.443128125E0,-6.526641846E-1,9.668487549E0,-8.436355591E0
3.448163526E0,-6.197204590E-1,9.630538940E0,-8.507934570E0
3.453198926E0,-6.805419922E-1,9.653457642E0,-8.536590576E0
3.458234327E0,-6.426239014E-1,9.614074707E0,-8.551422119E0
3.463269727E0,-6.234741211E-1,9.627716064E0,-8.580932617E0
3.468305127E0,-6.790618896E-1,9.618392944E0,-8.488464355E0
3.473340528E0,-6.809844971E-1,9.615417480E0,-8.536560059E0
3.478375928E0,-6.306304932E-1,9.603591919E0,-8.542327881E0
3.483411329E0,-6.687011719E-1,9.642303467E0,-8.564865112E0
3.488446729E0,-6.596374512E-1,9.641952515E0,-8.495788574E0
3.493482129E0,-6.590576172E-1,9.638748169E0,-8.468566895E0
3.498517530E0,-6.760406494E-1,9.649185181E0,-8.506881714E0
3.503552930E0,-6.746826172E-1,9.627441406E0,-8.501205444E0
3.508588331E0,-6.997528076E-1,9.660034180E0,-8.520751953E0
3.513623731E0,-6.905822754E-1,9.627777100E0,-8.485122681E0
3.518659131E0,-6.544494629E-1,9.612625122E0,-8.573379517E0
3.523694532E0,-6.509399414E-1,9.635604858E0,-8.528488159E0
3.528729932E0,-6.526031494E-1,9.628158569E0,-8.495574951E0
3.533765333E0,-6.436767578E-1,9.648269653E0,-8.507385254E0
3.538800733E0,-6.752471924E-1,9.610092163E0,-8.504196167E0
3.543836133E0,-6.923217773E-1,9.638687134E0,-8.499877930E0
3.548871534E0,-6.966552734E-1,9.626235962E0,-8.516906738E0
3.553906934E0,-7.200317383E-1,9.614273071E0,-8.562728882E0
3.558942334E0,-6.746520996E-1,9.679855347E0,-8.577697754E0
3.563977735E0,-7.186584473E-1,9.637588501E0,-8.547561646E0
3.569013135E0,-6.984100342E-1,9.600997925E0,-8.524246216E0
3.574048536E0,-7.008209229E-1,9.626327515E0,-8.515441895E0
3.579083936E0,-7.198638916E-1,9.609207153E0,-8.523941040E0
3.584119336E0,-7.572937012E-1,9.630859375E0,-8.531326294E0
3.589154737E0,-6.978912354E-1,9.641067505E0,-8.507293701E0
3.594190137E0,-6.966552734E-1,9.622634888E0,-8.549057007E0
3.599225538E0,-6.860656738E-1,9.628585815E0,-8.493026733E0
3.604260938E0,-6.836395264E-1,9.648101807E0,-8.512252808E0
3.609296338E0,-7.162322998E-1,9.633087158E0,-8.548904419E0
3.614331739E0,-6.956634521E-1,9.615417480E0,-8.556213379E0
3.619367139E0,-7.183074951E-1,9.639389038E0,-8.568923950E0
3.624402540E0,-7.408905029E-1,9.643203735E0,-8.558334351E0
3.629437940E0,-7.298278809E-1,9.646865845E0,-8.551788330E0
3.634473340E0,-7.271270752E-1,9.605026245E0,-8.566635132E0
3.639508741E0,-7.543182373E-1,9.615478516E0,-8.557144165E0
3.644544141E0,-7.619323730E-1,9.633132935E0,-8.583694458E0
3.649579542E0,-7.354125977E-1,9.615249634E0,-8.558044434E0
3.654614942E0,-7.138977051E-1,9.616394043E0,-8.562820435E0
3.659650342E0,-7.270355225E-1,9.629928589E0,-8.604248047E0
3.664685743E0,-7.426605225E-1,9.636322021E0,-8.553161621E0
3.669721143E0,-7.490539551E-1,9.617599487E0,-8.534225464E0
3.674756543E0,-7.010650635E-1,9.617645264E0,-8.555709839E0
3.679791944E0,-7.100372314E-1,9.612518311E0,-8.589355469E0
3.684827344E0,-7.258758545E-1,9.596694946E0,-8.642837524E0
3.689862745E0,-7.065277100E-1,9.607940674E0,-8.593872070E0
3.694898145E0,-7.251281738E-1,9.610794067E0,-8.570648193E0
3.699933545E0,-7.296905518E-1,9.592483521E0,-8.569961548E0
3.704968946E0,-7.238006592E-1,9.595306396E0,-8.542098999E0
3.710004346E0,-7.144012451E-1,9.636108398E0,-8.552490234E0
3.715039747E0,-7.180786133E-1,9.646713257E0,-8.582565308E0
3.720075147E0,-7.250518799E-1,9.643875122E0,-8.577133179E0
3.725110547E0,-7.265777588E-1,9.633941650E0,-8.554489136E0
3.730145948E0,-7.228851318E-1,9.619781494E0,-8.563552856E0
3.735181348E0,-6.975860596E-1,9.595779419E0,-8.604385376E0
3.740216749E0,-7.036132812E-1,9.594909668E0,-8.583984375E0
3.745252149E0,-7.386016846E-1,9.619308472E0,-8.554473877E0
3.750287549E0,-7.329559326E-1,9.623718262E0,-8.585540771E0
3.755322950E0,-7.447509766E-1,9.613739014E0,-8.579315186E0
3.760358350E0,-7.227325439E-1,9.615051270E0,-8.611877441E0
3.765393750E0,-7.026977539E-1,9.629379272E0,-8.535614014E0
3.770429151E0,-7.162322998E-1,9.608825684E0,-8.487396240E0
3.775464551E0,-6.889801025E-1,9.598953247E0,-8.534072876E0
3.780499952E0,-7.013702393E-1,9.613098145E0,-8.541091919E0
3.785535352E0,-7.025909424E-1,9.613296509E0,-8.559341431E0
3.790570752E0,-7.032470703E-1,9.614227295E0,-8.583526611E0
3.795606153E0,-6.765899658E-1,9.640930176E0,-8.586685181E0
3.800641553E0,-6.956024170E-1,9.631408691E0,-8.582443237E0
3.805676954E0,-6.916198730E-1,9.637176514E0,-8.601104736E0
3.810712354E0,-7.121887207E-1,9.629623413E0,-8.620117188E0
3.815747754E0,-7.181243896E-1,9.627777100E0,-8.613555908E0
3.820783155E0,-6.815795898E-1,9.609268188E0,-8.621841431E0
3.825818555E0,-6.796875000E-1,9.617767334E0,-8.621200562E0
3.830853956E0,-6.682739258E-1,9.640899658E0,-8.647872925E0
3.835889356E0,-7.069549561E-1,9.632431030E0,-8.620223999E0
3.840924756E0,-6.842956543E-1,9.620681763E0,-8.574188232E0
3.845960157E0,-6.829376221E-1,9.626831055E0,-8.594223022E0
3.850995557E0,-6.687316895E-1,9.626998901E0,-8.575546265E0
3.856030958E0,-6.529693604E-1,9.610214233E0,-8.589904785E0
3.861066358E0,-6.641998291E-1,9.623321533E0,-8.590164185E0
3.866101758E0,-6.429901123E-1,9.642684937E0,-8.619674683E0
3.871137159E0,-6.548767090E-1,9.624038696E0,-8.571334839E0
3.876172559E0,-6.478271484E-1,9.644851685E0,-8.575759888E0
3.881207959E0,-6.993865967E-1,9.659637451E0,-8.600265503E0
3.886243360E0,-7.114257812E-1,9.628219604E0,-8.609039307E0
3.891278760E0,-6.873626709E-1,9.631576538E0,-8.658721924E0
3.896314161E0,-6.642608643E-1,9.618179321E0,-8.594650269E0
3.901349561E0,-6.312866211E-1,9.634643555E0,-8.618133545E0
3.906384961E0,-6.279602051E-1,9.624496460E0,-8.609878540E0
3.911420362E0,-6.016387939E-1,9.603363037E0,-8.597579956E0
3.916455762E0,-6.817626953E-1,9.632766724E0,-8.552719116E0
3.921491163E0,-6.466522217E-1,9.633956909E0,-8.585174561E0
3.926526563E0,-6.660614014E-1,9.634780884E0,-8.561401367E0
3.931561963E0,-5.925445557E-1,9.657485962E0,-8.557403564E0
3.936597364E0,-6.300354004E-1,9.638824463E0,-8.559799194E0
3.941632764E0,-6.715698242E-1,9.647598267E0,-8.547683716E0
3.946668165E0,-6.325836182E-1,9.626449585E0,-8.512405396E0
3.951703565E0,-6.434326172E-1,9.652893066E0,-8.522583008E0
3.956738965E0,-6.177978516E-1,9.633102417E0,-8.503082275E0
3.961774366E0,-6.167449951E-1,9.647689819E0,-8.533035278E0
3.966809766E0,-6.343841553E-1,9.632019043E0,-8.560272217E0
3.971845167E0,-6.250457764E-1,9.652313232E0,-8.558120728E0
3.976880567E0,-6.218872070E-1,9.656417847E0,-8.460083008E0
3.981915967E0,-6.194763184E-1,9.609344482E0,-8.518234253E0
3.986951368E0,-6.669006348E-1,9.640548706E0,-8.592239380E0
3.991986768E0,-6.465454102E-1,9.624069214E0,-8.497848511E0
3.997022168E0,-6.386108398E-1,9.653244019E0,-8.553466797E0
4.002057569E0,-5.965881348E-1,9.598464966E0,-8.522857666E0
4.007092969E0,-5.931854248E-1,9.625289917E0,-8.522048950E0
4.012128370E0,-6.120910645E-1,9.620895386E0,-8.526779175E0
4.017163770E0,-6.120910645E-1,9.646896362E0,-8.467559814E0
4.022199170E0,-5.940704346E-1,9.621337891E0,-8.510437012E0
4.027234571E0,-6.651611328E-1,9.657913208E0,-8.532897949E0
4.032269971E0,-5.933074951E-1,9.617202759E0,-8.492401123E0
4.037305372E0,-5.973052979E-1,9.652603149E0,-8.534912109E0
4.042340772E0,-5.833435059E-1,9.671966553E0,-8.556640625E0
4.047376172E0,-6.234436035E-1,9.645355225E0,-8.488449097E0
4.052411573E0,-6.125183105E-1,9.617874146E0,-8.482681274E0
4.057446973E0,-6.166229248E-1,9.643692017E0,-8.467544556E0
4.062482374E0,-6.119995117E-1,9.657684326E0,-8.505294800E0
4.067517774E0,-6.131134033E-1,9.622879028E0,-8.554275513E0
4.072553174E0,-6.410827637E-1,9.659927368E0,-8.542968750E0
4.077588575E0,-6.040039062E-1,9.611328125E0,-8.533706665E0
4.082623975E0,-6.148681641E-1,9.649154663E0,-8.498062134E0
4.087659375E0,-6.192016602E-1,9.649291992E0,-8.534912109E0
4.092694776E0,-6.379394531E-1,9.661926270E0,-8.555633545E0
4.097730176E0,-6.433258057E-1,9.635848999E0,-8.526809692E0
4.102765577E0,-5.997619629E-1,9.644668579E0,-8.525711060E0
4.107800977E0,-5.891265869E-1,9.663803101E0,-8.515747070E0
4.112836377E0,-6.149291992E-1,9.628021240E0,-8.497894287E0
4.117871778E0,-5.994110107E-1,9.628448486E0,-8.515594482E0
4.122907178E0,-5.849761963E-1,9.627227783E0,-8.546539307E0
4.127942579E0,-6.278686523E-1,9.611328125E0,-8.527740479E0
4.132977979E0,-6.089935303E-1,9.603866577E0,-8.523056030E0
4.138013379E0,-5.883941650E-1,9.616088867E0,-8.525222778E0
4.143048780E0,-5.834350586E-1,9.632781982E0,-8.525177002E0
4.148084180E0,-5.732116699E-1,9.637863159E0,-8.550827026E0
4.153119581E0,-5.896606445E-1,9.645431519E0,-8.572067261E0
4.158154981E0,-5.862426758E-1,9.627685547E0,-8.555068970E0
4.163190381E0,-5.940399170E-1,9.650360107E0,-8.538940430E0
4.168225782E0,-5.685577393E-1,9.628158569E0,-8.545898438E0
4.173261182E0,-5.979156494E-1,9.605133057E0,-8.505020142E0
4.178296583E0,-6.111602783E-1,9.640960693E0,-8.555892944E0
4.183331983E0,-6.282196045E-1,9.668045044E0,-8.501815796E0
4.188367383E0,-6.011962891E-1,9.637374878E0,-8.486175537E0
4.193402784E0,-6.133422852E-1,9.617874146E0,-8.486923218E0
4.198438184E0,-5.904388428E-1,9.620468140E0,-8.533538818E0
4.203473584E0,-5.873870850E-1,9.634429932E0,-8.548278809E0
4.208508985E0,-6.176757812E-1,9.634490967E0,-8.534683228E0
4.213544385E0,-6.183013916E-1,9.642517090E0,-8.540039062E0
4.218579786E0,-6.363677979E-1,9.622039795E0,-8.573364258E0
4.223615186E0,-6.223602295E-1,9.621459961E0,-8.564300537E0
4.228650586E0,-6.086578369E-1,9.614303589E0,-8.512237549E0
4.233685987E0,-6.081542969E-1,9.655273438E0,-8.514144897E0
4.238721387E0,-6.360015869E-1,9.659652710E0,-8.527679443E0
4.243756788E0,-6.236724854E-1,9.618011475E0,-8.496353149E0
4.248792188E0,-6.138763428E-1,9.625762939E0,-8.504928589E0
4.253827588E0,-6.304626465E-1,9.637756348E0,-8.513641357E0
4.258862989E0,-6.249237061E-1,9.636611938E0,-8.501815796E0
4.263898389E0,-6.129302979E-1,9.638076782E0,-8.508255005E0
4.268933790E0,-6.190795898E-1,9.637237549E0,-8.497711182E0
4.273969190E0,-6.476593018E-1,9.611785889E0,-8.501922607E0
4.279004590E0,-6.446533203E-1,9.619827271E0,-8.521575928E0
4.284039991E0,-6.095581055E-1,9.625030518E0,-8.515487671E0
4.289075391E0,-6.180267334E-1,9.633224487E0,-8.507949829E0
4.294110792E0,-6.182250977E-1,9.644851685E0,-8.545669556E0
4.299146192E0,-6.264801025E-1,9.642303467E0,-8.568466187E0
4.304181592E0,-6.311645508E-1,9.668716431E0,-8.573120117E0
4.309216993E0,-6.228790283E-1,9.644592285E0,-8.536666870E0
4.314252393E0,-6.516876221E-1,9.617935181E0,-8.536346436E0
4.319287793E0,-6.445465088E-1,9.634201050E0,-8.557586670E0
4.324323194E0,-6.572113037E-1,9.642700195E0,-8.538574219E0
4.329358594E0,-6.602783203E-1,9.627334595E0,-8.534942627E0
4.334393995E0,-6.723480225E-1,9.635391235E0,-8.532775879E0
4.339429395E0,-6.632690430E-1,9.643325806E0,-8.542083740E0
4.344464795E0,-6.350097656E-1,9.639297485E0,-8.547088623E0
4.349500196E0,-6.177825928E-1,9.643692017E0,-8.508834839E0
4.354535596E0,-6.633758545E-1,9.647521973E0,-8.521896362E0
4.359570997E0,-6.581115723E-1,9.617828369E0,-8.537216187E0
4.364606397E0,-6.653747559E-1,9.605834961E0,-8.544708252E0
4.369641797E0,-6.988067627E-1,9.620285034E0,-8.554473877E0
4.374677198E0,-6.793823242E-1,9.636199951E0,-8.540267944E0
4.379712598E0,-6.462860107E-1,9.616394043E0,-8.566619873E0
4.384747999E0,-6.514892578E-1,9.615768433E0,-8.553802490E0
4.389783399E0,-6.752929688E-1,9.607772827E0,-8.530136108E0
4.394818799E0,-6.630554199E-1,9.610519409E0,-8.529968262E0
4.399854200E0,-6.736145020E-1,9.609664917E0,-8.541229248E0
4.404889600E0,-6.787414551E-1,9.622848511E0,-8.545852661E0
4.409925000E0,-6.995849609E-1,9.615539551E0,-8.565643311E0
4.414960401E0,-6.680755615E-1,9.613983154E0,-8.537689209E0
4.419995801E0,-6.706237793E-1,9.636444092E0,-8.562698364E0
4.425031202E0,-6.908416748E-1,9.644683838E0,-8.565475464E0
4.430066602E0,-6.885681152E-1,9.632507324E0,-8.560134888E0
4.435102002E0,-6.912689209E-1,9.629776001E0,-8.560134888E0
4.440137403E0,-6.913604736E-1,9.621490479E0,-8.544097900E0
4.445172803E0,-6.961517334E-1,9.631088257E0,-8.522506714E0
4.450208204E0,-6.779479980E-1,9.631530762E0,-8.506393433E0
4.455243604E0,-6.790771484E-1,9.628555298E0,-8.560043335E0
4.460279004E0,-6.831054688E-1,9.633621216E0,-8.545013428E0
4.465314405E0,-6.892700195E-1,9.616287231E0,-8.551422119E0
4.470349805E0,-6.660461426E-1,9.634170532E0,-8.585784912E0
4.475385206E0,-6.906585693E-1,9.630279541E0,-8.581893921E0
4.480420606E0,-6.823425293E-1,9.608566284E0,-8.559722900E0
4.485456006E0,-7.478637695E-1,9.649551392E0,-8.573104858E0
4.490491407E0,-7.104644775E-1,9.651000977E0,-8.576797485E0
4.495526807E0,-7.062835693E-1,9.627410889E0,-8.626861572E0
4.500562208E0,-6.911773682E-1,9.602951050E0,-8.599761963E0
4.505597608E0,-6.904296875E-1,9.619918823E0,-8.530014038E0
4.510633008E0,-7.260131836E-1,9.614959717E0,-8.554916382E0
4.515668409E0,-7.040557861E-1,9.615814209E0,-8.585205078E0
4.520703809E0,-7.129821777E-1,9.624588013E0,-8.584457397E0
4.525739209E0,-7.166900635E-1,9.632034302E0,-8.547653198E0
4.530774610E0,-6.974945068E-1,9.613327026E0,-8.536987305E0
4.535810010E0,-7.064056396E-1,9.635299683E0,-8.562454224E0
4.540845411E0,-6.898803711E-1,9.624389648E0,-8.560501099E0
4.545880811E0,-6.950378418E-1,9.647674561E0,-8.520172119E0
4.550916211E0,-6.820220947E-1,9.653930664E0,-8.555511475E0
4.555951612E0,-6.902923584E-1,9.647399902E0,-8.550949097E0
4.560987012E0,-6.679687500E-1,9.631103516E0,-8.546051025E0
4.566022413E0,-6.946411133E-1,9.630401611E0,-8.580459595E0
4.571057813E0,-7.071228027E-1,9.609497070E0,-8.604766846E0
4.576093213E0,-7.074127197E-1,9.646591187E0,-8.530120850E0
4.581128614E0,-6.861267090E-1,9.616302490E0,-8.583602905E0
4.586164014E0,-7.310943604E-1,9.639694214E0,-8.581863403E0
4.591199415E0,-7.099151611E-1,9.604293823E0,-8.633331299E0
4.596234815E0,-7.187347412E-1,9.611648560E0,-8.585083008E0
4.601270215E0,-6.949920654E-1,9.623855591E0,-8.537277222E0
4.606305616E0,-6.819458008E-1,9.638992310E0,-8.563125610E0
4.611341016E0,-6.973724365E-1,9.617843628E0,-8.579147339E0
4.616376417E0,-6.892547607E-1,9.607315063E0,-8.615554810E0
4.621411817E0,-7.000427246E-1,9.617614746E0,-8.555068970E0
4.626447217E0,-6.684570312E-1,9.610168457E0,-8.580047607E0
4.631482618E0,-6.845703125E-1,9.652633667E0,-8.565567017E0
4.636518018E0,-6.707305908E-1,9.658538818E0,-8.597045898E0
4.641553418E0,-6.838836670E-1,9.636169434E0,-8.583953857E0
4.646588819E0,-6.832427979E-1,9.658477783E0,-8.569580078E0
4.651624219E0,-6.668701172E-1,9.619659424E0,-8.597473145E0
4.656659620E0,-6.964721680E-1,9.630233765E0,-8.547744751E0
4.661695020E0,-6.742858887E-1,9.648529053E0,-8.585296631E0
4.666730420E0,-6.931915283E-1,9.667312622E0,-8.553100586E0
4.671765821E0,-7.055969238E-1,9.630950928E0,-8.583374023E0
4.676801221E0,-6.912078857E-1,9.622833252E0,-8.585220337E0
4.681836622E0,-6.713714600E-1,9.640502930E0,-8.541427612E0
4.686872022E0,-6.833496094E-1,9.674606323E0,-8.538757324E0
4.691907422E0,-6.833648682E-1,9.657180786E0,-8.574249268E0
4.696942823E0,-6.456451416E-1,9.642776489E0,-8.581268311E0
4.701978223E0,-6.684417725E-1,9.608795166E0,-8.559783936E0
4.707013624E0,-6.746063232E-1,9.605255127E0,-8.531753540E0
4.712049024E0,-6.700286865E-1,9.659729004E0,-8.552230835E0
4.717084424E0,-6.495666504E-1,9.649230957E0,-8.502273560E0
4.722119825E0,-6.578979492E-1,9.621948242E0,-8.501495361E0
4.727155225E0,-6.639556885E-1,9.600112915E0,-8.498931885E0
4.732190625E0,-6.488037109E-1,9.631912231E0,-8.552474976E0
4.737226026E0,-6.421051025E-1,9.618667603E0,-8.558380127E0
4.742261426E0,-6.664581299E-1,9.628265381E0,-8.553558350E0
4.747296827E0,-6.574401855E-1,9.633102417E0,-8.537002563E0
4.752332227E0,-6.665344238E-1,9.628021240E0,-8.538009644E0
4.757367627E0,-6.445770264E-1,9.620758057E0,-8.532699585E0
4.762403028E0,-6.239776611E-1,9.610916138E0,-8.537078857E0
4.767438428E0,-6.458282471E-1,9.633331299E0,-8.569503784E0
4.772473829E0,-6.335906982E-1,9.639968872E0,-8.569702148E0
4.777509229E0,-6.373443604E-1,9.620056152E0,-8.557113647E0
4.782544629E0,-6.252899170E-1,9.619323730E0,-8.564651489E0
4.787580030E0,-6.287841797E-1,9.620880127E0,-8.553649902E0
4.792615430E0,-6.109466553E-1,9.620880127E0,-8.540084839E0
4.797650831E0,-6.151733398E-1,9.617279053E0,-8.518447876E0
4.802686231E0,-6.195678711E-1,9.613189697E0,-8.535522461E0
4.807721631E0,-6.274719238E-1,9.618942261E0,-8.534286499E0
4.812757032E0,-6.313629150E-1,9.625183105E0,-8.518264771E0
4.817792432E0,-6.465148926E-1,9.627029419E0,-8.558441162E0
4.822827833E0,-6.278839111E-1,9.633651733E0,-8.520172119E0
4.827863233E0,-6.166534424E-1,9.633438110E0,-8.495498657E0
4.832898633E0,-6.394348145E-1,9.624801636E0,-8.491806030E0
4.837934034E0,-6.289520264E-1,9.633850098E0,-8.527099609E0
4.842969434E0,-6.113128662E-1,9.617736816E0,-8.549514771E0
4.848004834E0,-5.885772705E-1,9.620376587E0,-8.527145386E0
4.853040235E0,-5.737762451E-1,9.633468628E0,-8.523376465E0
4.858075635E0,-6.147155762E-1,9.621948242E0,-8.533157349E0
4.863111036E0,-6.197204590E-1,9.612701416E0,-8.513778687E0
4.868146436E0,-6.039733887E-1,9.636566162E0,-8.536499023E0
4.873181836E0,-6.193389893E-1,9.661041260E0,-8.555130005E0
4.878217237E0,-6.044464111E-1,9.632064819E0,-8.518539429E0
4.883252637E0,-5.945739746E-1,9.624954224E0,-8.494735718E0
4.888288038E0,-5.966339111E-1,9.648193359E0,-8.522842407E0
4.893323438E0,-6.046905518E-1,9.650894165E0,-8.565444946E0
4.898358838E0,-6.108856201E-1,9.644943237E0,-8.539291382E0
4.903394239E0,-6.447601318E-1,9.644363403E0,-8.509414673E0
4.908429639E0,-6.428833008E-1,9.642303467E0,-8.513885498E0
4.913465040E0,-6.286926270E-1,9.632537842E0,-8.517684937E0
4.918500440E0,-6.223602295E-1,9.622817993E0,-8.533737183E0
4.923535840E0,-6.074371338E-1,9.610855103E0,-8.494812012E0
4.928571241E0,-6.244506836E-1,9.633239746E0,-8.503173828E0
4.933606641E0,-6.457672119E-1,9.626739502E0,-8.526229858E0
4.938642042E0,-6.262207031E-1,9.614364624E0,-8.539459229E0
4.943677442E0,-5.984954834E-1,9.619155884E0,-8.523834229E0
4.948712842E0,-6.030883789E-1,9.645492554E0,-8.531677246E0
4.953748243E0,-6.113891602E-1,9.651138306E0,-8.524719238E0
4.958783643E0,-5.979614258E-1,9.628067017E0,-8.524398804E0
4.963819043E0,-6.100616455E-1,9.620101929E0,-8.495452881E0
4.968854444E0,-5.998382568E-1,9.615997314E0,-8.506835938E0
4.973889844E0,-5.874786377E-1,9.641784668E0,-8.470153809E0
4.978925245E0,-5.893554688E-1,9.627487183E0,-8.493316650E0
4.983960645E0,-6.160430908E-1,9.621170044E0,-8.505783081E0
4.988996045E0,-5.940246582E-1,9.631790161E0,-8.564514160E0
4.994031446E0,-5.847167969E-1,9.647247314E0,-8.557601929E0
4.999066846E0,-6.189117432E-1,9.622390747E0,-8.568344116E0
5.004102247E0,-6.347808838E-1,9.630752563E0,-8.559158325E0
5.009137647E0,-6.234283447E-1,9.648315430E0,-8.556579590E0
5.014173047E0,-6.139068604E-1,9.606460571E0,-8.526901245E0
5.019208448E0,-5.919647217E-1,9.647506714E0,-8.570648193E0
5.024243848E0,-6.268920898E-1,9.637710571E0,-8.532440186E0
5.029279249E0,-6.327362061E-1,9.630401611E0,-8.545532227E0
5.034314649E0,-6.236419678E-1,9.634201050E0,-8.526367188E0
5.039350049E0,-6.236572266E-1,9.640930176E0,-8.562072754E0
5.044385450E0,-6.260528564E-1,9.634521484E0,-8.517578125E0
5.049420850E0,-6.008605957E-1,9.644607544E0,-8.509323120E0
5.054456250E0,-6.492309570E-1,9.635131836E0,-8.488265991E0
5.059491651E0,-6.336212158E-1,9.640838623E0,-8.522247314E0
5.064527051E0,-6.288604736E-1,9.648422241E0,-8.490341187E0
5.069562452E0,-6.392364502E-1,9.645294189E0,-8.481887817E0
5.074597852E0,-6.345062256E-1,9.640502930E0,-8.533828735E0
5.079633252E0,-6.546783447E-1,9.612548828E0,-8.541091919E0
5.084668653E0,-6.425018311E-1,9.615371704E0,-8.547485352E0
5.089704053E0,-6.321258545E-1,9.611785889E0,-8.541748047E0
5.094739454E0,-6.573791504E-1,9.609176636E0,-8.504074097E0
5.099774854E0,-6.598052979E-1,9.648666382E0,-8.540313721E0
5.104810254E0,-6.598052979E-1,9.638488770E0,-8.521255493E0
5.109845655E0,-6.352233887E-1,9.619659424E0,-8.546478271E0
5.114881055E0,-6.404266357E-1,9.641128540E0,-8.482589722E0
5.119916456E0,-6.614074707E-1,9.642303467E0,-8.531921387E0
5.124951856E0,-6.437377930E-1,9.600753784E0,-8.529327393E0
5.129987256E0,-6.640472412E-1,9.638931274E0,-8.543121338E0
5.135022657E0,-6.786804199E-1,9.665771484E0,-8.585784912E0
5.140058057E0,-6.859588623E-1,9.609313965E0,-8.529525757E0
5.145093458E0,-6.811065674E-1,9.658676147E0,-8.543746948E0
5.150128858E0,-6.601562500E-1,9.611907959E0,-8.588226318E0
5.155164258E0,-6.880798340E-1,9.656463623E0,-8.551010132E0
5.160199659E0,-6.761779785E-1,9.651306152E0,-8.566101074E0
5.165235059E0,-6.662445068E-1,9.636367798E0,-8.530609131E0
5.170270459E0,-6.515808105E-1,9.661849976E0,-8.560760498E0
5.175305860E0,-6.748809814E-1,9.625930786E0,-8.526214600E0
5.180341260E0,-6.504516602E-1,9.630233765E0,-8.516799927E0
5.185376661E0,-6.530456543E-1,9.626876831E0,-8.515609741E0
5.190412061E0,-6.558074951E-1,9.615356445E0,-8.582214355E0
5.195447461E0,-6.436157227E-1,9.635391235E0,-8.605728149E0
5.200482862E0,-6.941223145E-1,9.655960083E0,-8.517242432E0
5.205518262E0,-6.838531494E-1,9.610763550E0,-8.536087036E0
5.210553663E0,-7.022705078E-1,9.642456055E0,-8.520721436E0
5.215589063E0,-6.830596924E-1,9.620758057E0,-8.567016602E0
5.220624463E0,-6.903839111E-1,9.592361450E0,-8.576416016E0
5.225659864E0,-6.584777832E-1,9.627426147E0,-8.552871704E0
5.230695264E0,-6.685943604E-1,9.641967773E0,-8.598968506E0
5.235730665E0,-6.887969971E-1,9.590286255E0,-8.558044434E0
5.240766065E0,-6.825408936E-1,9.613204956E0,-8.592147827E0
5.245801465E0,-6.985321045E-1,9.650482178E0,-8.582687378E0
5.250836866E0,-6.939239502E-1,9.626419067E0,-8.607421875E0
5.255872266E0,-7.055053711E-1,9.638000488E0,-8.570693970E0
5.260907667E0,-6.875305176E-1,9.624969482E0,-8.624130249E0
5.265943067E0,-6.560821533E-1,9.614944458E0,-8.607070923E0
5.270978467E0,-6.849212646E-1,9.646682739E0,-8.628326416E0
5.276013868E0,-6.851196289E-1,9.626419067E0,-8.556243896E0
5.281049268E0,-6.973114014E-1,9.639450073E0,-8.553329468E0
5.286084668E0,-7.003021240E-1,9.622055054E0,-8.585128784E0
5.291120069E0,-7.201843262E-1,9.621612549E0,-8.586822510E0
5.296155469E0,-7.192840576E-1,9.629745483E0,-8.580902100E0
5.301190870E0,-6.760711670E-1,9.627349854E0,-8.573898315E0
5.306226270E0,-6.805725098E-1,9.623641968E0,-8.575424194E0
5.311261670E0,-6.880950928E-1,9.628448486E0,-8.597808838E0
5.316297071E0,-6.966552734E-1,9.645248413E0,-8.543869019E0
5.321332471E0,-6.737518311E-1,9.628890991E0,-8.532897949E0
5.326367872E0,-6.736755371E-1,9.633377075E0,-8.571365356E0
5.331403272E0,-6.527252197E-1,9.645446777E0,-8.564910889E0
5.336438672E0,-6.733398438E-1,9.638351440E0,-8.571975708E0
5.341474073E0,-6.856384277E-1,9.630752563E0,-8.575592041E0
5.346509473E0,-7.026519775E-1,9.603454590E0,-8.565383911E0
5.351544874E0,-7.044067383E-1,9.608825684E0,-8.523162842E0
5.356580274E0,-6.929321289E-1,9.645812988E0,-8.539138794E0
5.361615674E0,-6.767730713E-1,9.634338379E0,-8.542358398E0
5.366651075E0,-6.940307617E-1,9.634124756E0,-8.535247803E0
5.371686475E0,-6.814575195E-1,9.626815796E0,-8.556335449E0
5.376721875E0,-6.739807129E-1,9.606933594E0,-8.561691284E0
5.381757276E0,-7.084197998E-1,9.622879028E0,-8.572280884E0
5.386792676E0,-6.995849609E-1,9.638916016E0,-8.575088501E0
5.391828077E0,-6.786804199E-1,9.634628296E0,-8.585327148E0
5.396863477E0,-6.608123779E-1,9.649230957E0,-8.604293823E0
5.401898877E0,-6.698913574E-1,9.669143677E0,-8.565963745E0
5.406934278E0,-6.687164307E-1,9.637054443E0,-8.515380859E0
5.411969678E0,-6.622772217E-1,9.633361816E0,-8.538330078E0
5.417005079E0,-6.675415039E-1,9.619720459E0,-8.545501709E0
5.422040479E0,-6.749572754E-1,9.632598877E0,-8.559600830E0
5.427075879E0,-6.918792725E-1,9.642272949E0,-8.596984863E0
5.432111280E0,-6.836700439E-1,9.628997803E0,-8.584976196E0
5.437146680E0,-7.033691406E-1,9.637008667E0,-8.571716309E0
5.442182081E0,-6.928100586E-1,9.605102539E0,-8.550994873E0
5.447217481E0,-6.564788818E-1,9.627990723E0,-8.583679199E0
5.452252881E0,-6.507568359E-1,9.655334473E0,-8.595886230E0
5.457288282E0,-6.882781982E-1,9.647384644E0,-8.566436768E0
5.462323682E0,-6.916198730E-1,9.650863647E0,-8.577682495E0
5.467359083E0,-6.672668457E-1,9.652862549E0,-8.588348389E0
5.472394483E0,-6.621856689E-1,9.636764526E0,-8.568283081E0
5.477429883E0,-6.790924072E-1,9.625091553E0,-8.545516968E0
5.482465284E0,-6.592712402E-1,9.639465332E0,-8.507217407E0
5.487500684E0,-6.340026855E-1,9.649978638E0,-8.554977417E0
5.492536084E0,-6.356964111E-1,9.635528564E0,-8.573043823E0
5.497571485E0,-6.459045410E-1,9.637664795E0,-8.511123657E0
5.502606885E0,-6.502838135E-1,9.632476807E0,-8.534240723E0
5.507642286E0,-6.518402100E-1,9.631820679E0,-8.537734985E0
5.512677686E0,-6.573791504E-1,9.647689819E0,-8.527557373E0
5.517713086E0,-6.423034668E-1,9.628723145E0,-8.597625732E0
5.522748487E0,-6.497344971E-1,9.638671875E0,-8.612197876E0
5.527783887E0,-6.901397705E-1,9.623260498E0,-8.601333618E0
5.532819288E0,-6.653289795E-1,9.598114014E0,-8.587356567E0
5.537854688E0,-6.495971680E-1,9.629257202E0,-8.576507568E0
5.542890088E0,-6.468963623E-1,9.637878418E0,-8.559127808E0
5.547925489E0,-6.179656982E-1,9.604141235E0,-8.547821045E0
5.552960889E0,-6.248626709E-1,9.594055176E0,-8.537139893E0
5.557996290E0,-6.382751465E-1,9.612243652E0,-8.516387939E0
5.563031690E0,-6.514587402E-1,9.609588623E0,-8.503005981E0
5.568067090E0,-6.244506836E-1,9.611984253E0,-8.545608521E0
5.573102491E0,-6.472473145E-1,9.624618530E0,-8.560134888E0
5.578137891E0,-5.967102051E-1,9.631698608E0,-8.550933838E0
5.583173292E0,-6.123199463E-1,9.645782471E0,-8.507354736E0
5.588208692E0,-6.310882568E-1,9.621353149E0,-8.477127075E0
5.593244092E0,-6.222381592E-1,9.602340698E0,-8.574569702E0
5.598279493E0,-6.270141602E-1,9.628189087E0,-8.562271118E0
5.603314893E0,-5.997314453E-1,9.656524658E0,-8.585998535E0
5.608350293E0,-6.183319092E-1,9.622619629E0,-8.554733276E0
5.613385694E0,-6.360015869E-1,9.617691040E0,-8.569625854E0
5.618421094E0,-6.103515625E-1,9.654541016E0,-8.562393188E0
5.623456495E0,-6.534881592E-1,9.639144897E0,-8.509689331E0
5.628491895E0,-6.315307617E-1,9.620849609E0,-8.519012451E0
5.633527295E0,-6.017608643E-1,9.634979248E0,-8.530288696E0
5.638562696E0,-6.417694092E-1,9.616653442E0,-8.537826538E0
5.643598096E0,-6.352844238E-1,9.662139893E0,-8.521865845E0
5.648633497E0,-6.336212158E-1,9.645019531E0,-8.523925781E0
5.653668897E0,-6.035614014E-1,9.657333374E0,-8.571685791E0
5.658704297E0,-6.220703125E-1,9.648071289E0,-8.546325684E0
5.663739698E0,-6.087646484E-1,9.620758057E0,-8.554428101E0
5.668775098E0,-6.007843018E-1,9.656234741E0,-8.451034546E0
5.673810499E0,-6.137084961E-1,9.638839722E0,-8.537368774E0
5.678845899E0,-6.033325195E-1,9.628540039E0,-8.563705444E0
5.683881299E0,-6.072387695E-1,9.639404297E0,-8.491989136E0
5.688916700E0,-6.420593262E-1,9.651458740E0,-8.521011353E0
5.693952100E0,-5.711517334E-1,9.630920410E0,-8.538299561E0
5.698987500E0,-5.833740234E-1,9.674789429E0,-8.555068970E0
5.704022901E0,-6.451568604E-1,9.659057617E0,-8.474929810E0
5.709058301E0,-6.002960205E-1,9.642303467E0,-8.576797485E0
5.714093702E0,-6.120758057E-1,9.620834351E0,-8.548217773E0
5.719129102E0,-5.920867920E-1,9.614517212E0,-8.545364380E0
5.724164502E0,-6.611938477E-1,9.656280518E0,-8.521011353E0
5.729199903E0,-6.212921143E-1,9.643722534E0,-8.573623657E0
5.734235303E0,-6.104431152E-1,9.619003296E0,-8.552276611E0
5.739270704E0,-6.231994629E-1,9.630401611E0,-8.536972046E0
5.744306104E0,-6.070098877E-1,9.629806519E0,-8.545013428E0
5.749341504E0,-6.013488770E-1,9.619995117E0,-8.494293213E0
5.754376905E0,-6.117553711E-1,9.611236572E0,-8.478210449E0
5.759412305E0,-5.790863037E-1,9.637130737E0,-8.521224976E0
5.764447706E0,-5.852050781E-1,9.633697510E0,-8.510437012E0
5.769483106E0,-6.207275391E-1,9.635101318E0,-8.497802734E0
5.774518506E0,-6.091461182E-1,9.578262329E0,-8.548980713E0
5.779553907E0,-5.899810791E-1,9.620071411E0,-8.504882812E0
5.784589307E0,-6.144104004E-1,9.640029907E0,-8.536499023E0
5.789624708E0,-5.979156494E-1,9.601409912E0,-8.554000854E0
5.794660108E0,-5.932006836E-1,9.638305664E0,-8.556854248E0
5.799695508E0,-5.768432617E-1,9.623321533E0,-8.530731201E0
5.804730909E0,-6.321258545E-1,9.653213501E0,-8.506195068E0
5.809766309E0,-6.428222656E-1,9.617126465E0,-8.571594238E0
5.814801709E0,-6.166534424E-1,9.626480103E0,-8.493270874E0
5.819837110E0,-6.069183350E-1,9.605957031E0,-8.537887573E0
5.824872510E0,-6.121826172E-1,9.639526367E0,-8.509597778E0
5.829907911E0,-5.986175537E-1,9.649841309E0,-8.499893188E0
5.834943311E0,-5.962524414E-1,9.599914551E0,-8.541610718E0
5.839978711E0,-6.385650635E-1,9.641769409E0,-8.535736084E0
5.845014112E0,-6.284027100E-1,9.656890869E0,-8.528930664E0
5.850049512E0,-6.193389893E-1,9.636947632E0,-8.567871094E0
5.855084913E0,-6.138305664E-1,9.638000488E0,-8.499252319E0
5.860120313E0,-6.113281250E-1,9.627548218E0,-8.497543335E0
5.865155713E0,-6.452789307E-1,9.639343262E0,-8.529907227E0
5.870191114E0,-6.322479248E-1,9.656585693E0,-8.516983032E0
5.875226514E0,-6.330871582E-1,9.645370483E0,-8.563354492E0
5.880261915E0,-6.601104736E-1,9.626480103E0,-8.568084717E0
5.885297315E0,-6.336212158E-1,9.639465332E0,-8.544494629E0
5.890332715E0,-6.213226318E-1,9.629547119E0,-8.544021606E0
5.895368116E0,-6.089477539E-1,9.633560181E0,-8.560134888E0
5.900403516E0,-6.335754395E-1,9.627029419E0,-8.568252563E0
5.905438917E0,-6.371917725E-1,9.620513916E0,-8.562286377E0
5.910474317E0,-6.552124023E-1,9.629074097E0,-8.529647827E0
5.915509717E0,-6.683349609E-1,9.614578247E0,-8.532379150E0
5.920545118E0,-6.649169922E-1,9.616119385E0,-8.531219482E0
5.925580518E0,-6.464233398E-1,9.611541748E0,-8.554275513E0
5.930615918E0,-6.538696289E-1,9.604217529E0,-8.553237915E0
5.935651319E0,-6.460876465E-1,9.611877441E0,-8.572982788E0
5.940686719E0,-6.723937988E-1,9.616409302E0,-8.590057373E0
5.945722120E0,-6.675872803E-1,9.614608765E0,-8.582443237E0
5.950757520E0,-6.506042480E-1,9.634780884E0,-8.548202515E0
5.955792920E0,-6.501770020E-1,9.644989014E0,-8.523529053E0
5.960828321E0,-6.566619873E-1,9.651824951E0,-8.526870728E0
5.965863721E0,-6.786346436E-1,9.651824951E0,-8.570098877E0
5.970899122E0,-6.823425293E-1,9.629806519E0,-8.582595825E0
5.975934522E0,-6.768646240E-1,9.619750977E0,-8.591522217E0
5.980969922E0,-6.842346191E-1,9.624221802E0,-8.557830811E0
5.986005323E0,-6.979370117E-1,9.612869263E0,-8.572891235E0
5.991040723E0,-6.955108643E-1,9.612548828E0,-8.577987671E0
5.996076124E0,-6.991577148E-1,9.627975464E0,-8.556396484E0
6.001111524E0,-6.841583252E-1,9.618225098E0,-8.543289185E0
6.006146924E0,-6.970977783E-1,9.605072021E0,-8.537445068E0
6.011182325E0,-7.163696289E-1,9.613586426E0,-8.558166504E0
6.016217725E0,-6.941223145E-1,9.633468628E0,-8.554580688E0
6.021253125E0,-6.985168457E-1,9.618652344E0,-8.520370483E0
6.026288526E0,-7.081298828E-1,9.613983154E0,-8.530700684E0
6.031323926E0,-7.077636719E-1,9.630081177E0,-8.563232422E0
6.036359327E0,-6.725769043E-1,9.639297485E0,-8.582687378E0
6.041394727E0,-6.734008789E-1,9.610244751E0,-8.544097900E0
6.046430127E0,-6.846466064E-1,9.608795166E0,-8.539428711E0
6.051465528E0,-6.802978516E-1,9.627563477E0,-8.596542358E0
6.056500928E0,-6.900024414E-1,9.611404419E0,-8.563598633E0
6.061536329E0,-7.118072510E-1,9.624618530E0,-8.571212769E0
6.066571729E0,-7.397460938E-1,9.639923096E0,-8.607238770E0
6.071607129E0,-7.319793701E-1,9.646011353E0,-8.557632446E0
6.076642530E0,-7.077636719E-1,9.616928101E0,-8.576339722E0
6.081677930E0,-7.018432617E-1,9.626098633E0,-8.570053101E0
6.086713331E0,-7.042541504E-1,9.641510010E0,-8.557754517E0
6.091748731E0,-6.840972900E-1,9.635848999E0,-8.500518799E0
6.096784131E0,-7.035369873E-1,9.618057251E0,-8.527664185E0
6.101819532E0,-7.103271484E-1,9.611358643E0,-8.577804565E0
6.106854932E0,-7.057342529E-1,9.602951050E0,-8.548385620E0
6.111890333E0,-6.608886719E-1,9.626617432E0,-8.504394531E0
6.116925733E0,-6.931304932E-1,9.603073120E0,-8.571014404E0
6.121961133E0,-7.034759521E-1,9.614318848E0,-8.574462891E0
6.126996534E0,-6.739349365E-1,9.667160034E0,-8.535034180E0
6.132031934E0,-6.734771729E-1,9.639999390E0,-8.533325195E0
6.137067334E0,-6.692810059E-1,9.604034424E0,-8.543518066E0
6.142102735E0,-6.943359375E-1,9.609848022E0,-8.560455322E0
6.147138135E0,-7.137145996E-1,9.628479004E0,-8.518798828E0
6.152173536E0,-6.963806152E-1,9.645858765E0,-8.539031982E0
6.157208936E0,-6.832122803E-1,9.647552490E0,-8.565200806E0
6.162244336E0,-6.774291992E-1,9.601425171E0,-8.579162598E0
6.167279737E0,-6.938171387E-1,9.626556396E0,-8.539138794E0
6.172315137E0,-7.056732178E-1,9.613754272E0,-8.525299072E0
6.177350538E0,-6.936187744E-1,9.601089478E0,-8.528366089E0
6.182385938E0,-6.768341064E-1,9.617340088E0,-8.541107178E0
6.187421338E0,-6.861877441E-1,9.655136108E0,-8.543472290E0
6.192456739E0,-6.538391113E-1,9.628829956E0,-8.512985229E0
6.197492139E0,-6.705627441E-1,9.633544922E0,-8.542770386E0
6.202527540E0,-6.554107666E-1,9.649688721E0,-8.548233032E0
6.207562940E0,-6.800079346E-1,9.634994507E0,-8.510375977E0
6.212598340E0,-6.581878662E-1,9.615814209E0,-8.547760010E0
6.217633741E0,-6.697998047E-1,9.611618042E0,-8.580383301E0
6.222669141E0,-6.674041748E-1,9.663162231E0,-8.527801514E0
6.227704542E0,-6.844787598E-1,9.637817383E0,-8.557083130E0
6.232739942E0,-6.859893799E-1,9.628540039E0,-8.504974365E0
6.237775342E0,-6.704559326E-1,9.634674072E0,-8.567245483E0
6.242810743E0,-6.333465576E-1,9.635162354E0,-8.551788330E0
6.247846143E0,-6.403045654E-1,9.664596558E0,-8.568725586E0
6.252881543E0,-6.866302490E-1,9.663803101E0,-8.544433594E0
6.257916944E0,-6.468353271E-1,9.622177124E0,-8.513458252E0
6.262952344E0,-6.642303467E-1,9.618530273E0,-8.603637695E0
6.267987745E0,-6.528167725E-1,9.637298584E0,-8.527755737E0
6.273023145E0,-6.098175049E-1,9.630401611E0,-8.543472290E0
6.278058545E0,-6.693267822E-1,9.597167969E0,-8.571945190E0
6.283093946E0,-6.673278809E-1,9.613494873E0,-8.557189941E0
6.288129346E0,-6.965026855E-1,9.595962524E0,-8.513504028E0
6.293164747E0,-6.410675049E-1,9.646179199E0,-8.552474976E0
6.298200147E0,-6.508026123E-1,9.618896484E0,-8.537338257E0
6.303235547E0,-6.607971191E-1,9.628128052E0,-8.559310913E0
6.308270948E0,-6.346435547E-1,9.631851196E0,-8.542587280E0
6.313306348E0,-6.488494873E-1,9.654846191E0,-8.531112671E0
6.318341749E0,-6.305694580E-1,9.662582397E0,-8.556808472E0
6.323377149E0,-6.486511230E-1,9.649444580E0,-8.549118042E0
6.328412549E0,-6.317138672E-1,9.646423340E0,-8.580444336E0
6.333447950E0,-6.350097656E-1,9.616012573E0,-8.545242310E0
6.338483350E0,-6.248321533E-1,9.599380493E0,-8.529037476E0
6.343518750E0,-6.151275635E-1,9.633697510E0,-8.594757080E0
6.348554151E0,-6.372833252E-1,9.625808716E0,-8.552032471E0
6.353589551E0,-6.445159912E-1,9.645324707E0,-8.534088135E0
6.358624952E0,-6.398468018E-1,9.654281616E0,-8.475952148E0
6.363660352E0,-6.471557617E-1,9.601837158E0,-8.551742554E0
6.368695752E0,-6.423339844E-1,9.609954834E0,-8.551239014E0
6.373731153E0,-6.392364502E-1,9.650283813E0,-8.515853882E0
6.378766553E0,-6.431427002E-1,9.655090332E0,-8.511734009E0
6.383801954E0,-6.496887207E-1,9.660827637E0,-8.568710327E0
6.388837354E0,-6.710510254E-1,9.660095215E0,-8.565383911E0
6.393872754E0,-6.487579346E-1,9.632614136E0,-8.561141968E0
6.398908155E0,-6.404724121E-1,9.641921997E0,-8.540313721E0
6.403943555E0,-6.301422119E-1,9.627761841E0,-8.551956177E0
6.408978956E0,-6.288146973E-1,9.653320312E0,-8.573776245E0
6.414014356E0,-6.270294189E-1,9.621520996E0,-8.570190430E0
6.419049756E0,-5.921936035E-1,9.639053345E0,-8.545333862E0
6.424085157E0,-5.822143555E-1,9.627746582E0,-8.551254272E0
6.429120557E0,-6.169586182E-1,9.632568359E0,-8.559661865E0
6.434155958E0,-6.217651367E-1,9.619903564E0,-8.558258057E0
6.439191358E0,-6.286468506E-1,9.637283325E0,-8.506118774E0
6.444226758E0,-6.271820068E-1,9.638641357E0,-8.529067993E0
6.449262159E0,-6.397247314E-1,9.628128052E0,-8.595245361E0
6.454297559E0,-6.146392822E-1,9.624023438E0,-8.536727905E0
6.459332959E0,-6.122131348E-1,9.634414673E0,-8.491821289E0
6.464368360E0,-6.096496582E-1,9.649383545E0,-8.492431641E0
6.469403760E0,-6.113586426E-1,9.649673462E0,-8.526336670E0
6.474439161E0,-6.347351074E-1,9.649475098E0,-8.502593994E0
6.479474561E0,-6.383666992E-1,9.633666992E0,-8.512176514E0
6.484509961E0,-6.365966797E-1,9.631500244E0,-8.531570435E0
6.489545362E0,-6.123657227E-1,9.615356445E0,-8.547103882E0
6.494580762E0,-6.345520020E-1,9.625320435E0,-8.559402466E0
6.499616163E0,-6.123352051E-1,9.640380859E0,-8.487533569E0
6.504651563E0,-6.140594482E-1,9.596725464E0,-8.509552002E0
6.509686963E0,-6.251068115E-1,9.602935791E0,-8.542358398E0
6.514722364E0,-5.887145996E-1,9.634521484E0,-8.530364990E0
6.519757764E0,-5.994415283E-1,9.649200439E0,-8.555770874E0
6.524793165E0,-6.243133545E-1,9.646636963E0,-8.536270142E0
6.529828565E0,-6.237792969E-1,9.637863159E0,-8.538040161E0
6.534863965E0,-6.133270264E-1,9.649444580E0,-8.585876465E0
6.539899366E0,-6.191101074E-1,9.647171021E0,-8.554962158E0
6.544934766E0,-6.194915771E-1,9.631988525E0,-8.527511597E0
6.549970167E0,-6.063537598E-1,9.634948730E0,-8.515243530E0
6.555005567E0,-6.242675781E-1,9.660202026E0,-8.518661499E0
6.560040967E0,-6.502838135E-1,9.638000488E0,-8.562805176E0
6.565076368E0,-6.440887451E-1,9.616424561E0,-8.560760498E0
6.570111768E0,-6.459655762E-1,9.616943359E0,-8.574737549E0
6.575147168E0,-6.346740723E-1,9.621627808E0,-8.572509766E0
6.580182569E0,-6.232604980E-1,9.629089355E0,-8.532318115E0
6.585217969E0,-6.304779053E-1,9.653259277E0,-8.497344971E0
6.590253370E0,-6.363220215E-1,9.662445068E0,-8.520721436E0
6.595288770E0,-6.150512695E-1,9.647338867E0,-8.535507202E0
6.600324170E0,-6.174316406E-1,9.635330200E0,-8.567611694E0
6.605359571E0,-6.114196777E-1,9.634643555E0,-8.575546265E0
6.610394971E0,-6.122894287E-1,9.627471924E0,-8.550064087E0
6.615430372E0,-6.202697754E-1,9.607727051E0,-8.568283081E0
6.620465772E0,-6.341552734E-1,9.615737915E0,-8.570602417E0
6.625501172E0,-6.326141357E-1,9.642181396E0,-8.535430908E0
6.630536573E0,-6.295318604E-1,9.628952026E0,-8.580627441E0
6.635571973E0,-6.450958252E-1,9.622268677E0,-8.585647583E0
6.640607374E0,-6.245422363E-1,9.628753662E0,-8.564956665E0
6.645642774E0,-6.321105957E-1,9.630401611E0,-8.576828003E0
6.650678174E0,-6.576538086E-1,9.603012085E0,-8.579101562E0
6.655713575E0,-6.580657959E-1,9.599685669E0,-8.583297729E0
6.660748975E0,-6.550445557E-1,9.605865479E0,-8.578063965E0
6.665784375E0,-6.734161377E-1,9.633300781E0,-8.602783203E0
6.670819776E0,-6.693725586E-1,9.627731323E0,-8.574218750E0
6.675855176E0,-6.337432861E-1,9.644851685E0,-8.615982056E0
6.680890577E0,-6.390991211E-1,9.645507812E0,-8.558746338E0
6.685925977E0,-6.367492676E-1,9.631759644E0,-8.557281494E0
6.690961377E0,-6.477966309E-1,9.635101318E0,-8.537170410E0
6.695996778E0,-6.239318848E-1,9.633941650E0,-8.550155640E0
6.701032178E0,-6.381683350E-1,9.654541016E0,-8.613983154E0
6.706067579E0,-6.823272705E-1,9.631896973E0,-8.572662354E0
6.711102979E0,-6.652679443E-1,9.626968384E0,-8.536788940E0
6.716138379E0,-6.593170166E-1,9.624252319E0,-8.595611572E0
6.721173780E0,-6.674194336E-1,9.628952026E0,-8.574462891E0
6.726209180E0,-6.693267822E-1,9.645812988E0,-8.535980225E0
6.731244581E0,-6.732177734E-1,9.610534668E0,-8.515563965E0
6.736279981E0,-7.036743164E-1,9.651123047E0,-8.609115601E0
6.741315381E0,-6.859436035E-1,9.625549316E0,-8.569503784E0
6.746350782E0,-6.691436768E-1,9.604385376E0,-8.581924438E0
6.751386182E0,-6.588287354E-1,9.607925415E0,-8.590377808E0
6.756421583E0,-6.924438477E-1,9.606918335E0,-8.543716431E0
6.761456983E0,-6.460113525E-1,9.619049072E0,-8.594436646E0
6.766492383E0,-6.615142822E-1,9.627182007E0,-8.556716919E0
6.771527784E0,-6.666870117E-1,9.589874268E0,-8.559082031E0
6.776563184E0,-6.882934570E-1,9.634246826E0,-8.545196533E0
6.781598584E0,-7.231750488E-1,9.637756348E0,-8.554275513E0
6.786633985E0,-6.654968262E-1,9.646240234E0,-8.555374146E0
6.791669385E0,-6.730499268E-1,9.636032104E0,-8.597259521E0
6.796704786E0,-6.964416504E-1,9.621749878E0,-8.569320679E0
6.801740186E0,-7.001495361E-1,9.647872925E0,-8.574020386E0
6.806775586E0,-6.799011230E-1,9.658493042E0,-8.544967651E0
6.811810987E0,-6.880340576E-1,9.606231689E0,-8.513656616E0
6.816846387E0,-7.022247314E-1,9.578826904E0,-8.521743774E0
6.821881788E0,-6.676177979E-1,9.631759644E0,-8.599151611E0
6.826917188E0,-7.064514160E-1,9.637420654E0,-8.558776855E0
6.831952588E0,-6.883697510E-1,9.635162354E0,-8.591079712E0
6.836987989E0,-6.457519531E-1,9.644561768E0,-8.524887085E0
6.842023389E0,-6.804504395E-1,9.625976562E0,-8.600250244E0
6.847058790E0,-6.401977539E-1,9.644561768E0,-8.581436157E0
6.852094190E0,-7.115783691E-1,9.639312744E0,-8.576354980E0
6.857129590E0,-6.941833496E-1,9.623153687E0,-8.564788818E0
6.862164991E0,-6.660156250E-1,9.622695923E0,-8.560806274E0
6.867200391E0,-6.909027100E-1,9.653610229E0,-8.533905029E0
6.872235792E0,-6.903533936E-1,9.643981934E0,-8.567733765E0
6.877271192E0,-6.588439941E-1,9.636489868E0,-8.544799805E0
6.882306592E0,-7.033081055E-1,9.650726318E0,-8.556427002E0
6.887341993E0,-7.060699463E-1,9.640380859E0,-8.527374268E0
6.892377393E0,-6.725006104E-1,9.643890381E0,-8.590896606E0
6.897412793E0,-6.780242920E-1,9.635864258E0,-8.536560059E0
6.902448194E0,-6.741485596E-1,9.620819092E0,-8.574707031E0
6.907483594E0,-6.891479492E-1,9.611282349E0,-8.576141357E0
6.912518995E0,-6.781616211E-1,9.662506104E0,-8.566101074E0
6.917554395E0,-6.762695312E-1,9.689056396E0,-8.528289795E0
6.922589795E0,-6.914215088E-1,9.646575928E0,-8.514694214E0
6.927625196E0,-6.956329346E-1,9.652923584E0,-8.546020508E0
6.932660596E0,-6.468658447E-1,9.636856079E0,-8.572662354E0
6.937695997E0,-6.878051758E-1,9.644226074E0,-8.544692993E0
6.942731397E0,-7.003326416E-1,9.642303467E0,-8.587097168E0
6.947766797E0,-7.147521973E-1,9.633148193E0,-8.535980225E0
6.952802198E0,-6.931610107E-1,9.611541748E0,-8.547149658E0
6.957837598E0,-6.792297363E-1,9.659164429E0,-8.557922363E0
6.962872999E0,-6.963500977E-1,9.665374756E0,-8.556869507E0
6.967908399E0,-7.133636475E-1,9.631591797E0,-8.563705444E0
6.972943799E0,-6.871643066E-1,9.630447388E0,-8.533569336E0
6.977979200E0,-6.792449951E-1,9.636291504E0,-8.577606201E0
6.983014600E0,-6.656646729E-1,9.643692017E0,-8.604293823E0
6.988050000E0,-6.688690186E-1,9.665893555E0,-8.536788940E0
6.993085401E0,-6.805419922E-1,9.635467529E0,-8.531936646E0
6.998120801E0,-6.669464111E-1,9.607284546E0,-8.564605713E0
7.003156202E0,-6.640319824E-1,9.621383667E0,-8.560882568E0
7.008191602E0,-6.559295654E-1,9.639617920E0,-8.543350220E0
7.013227002E0,-6.526641846E-1,9.630798340E0,-8.524383545E0
7.018262403E0,-6.574096680E-1,9.647903442E0,-8.520172119E0
7.023297803E0,-6.620788574E-1,9.623077393E0,-8.595428467E0
7.028333204E0,-6.618347168E-1,9.619796753E0,-8.554183960E0
7.033368604E0,-6.702880859E-1,9.633926392E0,-8.534423828E0
7.038404004E0,-6.620178223E-1,9.632827759E0,-8.543350220E0
7.043439405E0,-6.678619385E-1,9.652114868E0,-8.548873901E0
7.048474805E0,-6.611175537E-1,9.654739380E0,-8.518417358E0
7.053510206E0,-6.603546143E-1,9.637664795E0,-8.510803223E0
7.058545606E0,-6.761627197E-1,9.610366821E0,-8.506973267E0
7.063581006E0,-6.852111816E-1,9.628250122E0,-8.580520630E0
7.068616407E0,-6.591796875E-1,9.654083252E0,-8.593734741E0
7.073651807E0,-6.577301025E-1,9.621185303E0,-8.544143677E0
7.078687208E0,-6.442565918E-1,9.587951660E0,-8.523025513E0
7.083722608E0,-6.616210938E-1,9.595657349E0,-8.518981934E0
7.088758008E0,-6.615905762E-1,9.621078491E0,-8.562652588E0
7.093793409E0,-6.560974121E-1,9.630630493E0,-8.560180664E0
7.098828809E0,-6.520080566E-1,9.652542114E0,-8.510925293E0
7.103864209E0,-6.495819092E-1,9.646347046E0,-8.530471802E0
7.108899610E0,-6.512603760E-1,9.625686646E0,-8.551986694E0
7.113935010E0,-6.609954834E-1,9.630401611E0,-8.542282104E0
7.118970411E0,-6.538848877E-1,9.642333984E0,-8.544586182E0
7.124005811E0,-6.525726318E-1,9.652130127E0,-8.555984497E0
7.129041211E0,-6.590270996E-1,9.640243530E0,-8.543457031E0
7.134076612E0,-6.555786133E-1,9.620727539E0,-8.547454834E0
7.139112012E0,-6.325378418E-1,9.622390747E0,-8.544738770E0
7.144147413E0,-6.362609863E-1,9.628280640E0,-8.545822144E0
7.149182813E0,-6.465759277E-1,9.637069702E0,-8.559539795E0
7.154218213E0,-6.224365234E-1,9.643661499E0,-8.544494629E0
7.159253614E0,-6.491851807E-1,9.637786865E0,-8.532180786E0
7.164289014E0,-6.433868408E-1,9.636978149E0,-8.522171021E0
7.169324415E0,-6.127014160E-1,9.639923096E0,-8.514434814E0
7.174359815E0,-6.156005859E-1,9.626907349E0,-8.548660278E0
7.179395215E0,-6.046905518E-1,9.640487671E0,-8.545639038E0
7.184430616E0,-6.208648682E-1,9.627380371E0,-8.532165527E0
7.189466016E0,-6.465759277E-1,9.618896484E0,-8.533950806E0
7.194501417E0,-6.587677002E-1,9.630874634E0,-8.553756714E0
7.199536817E0,-6.498107910E-1,9.628967285E0,-8.538574219E0
7.204572217E0,-6.400146484E-1,9.638168335E0,-8.574584961E0
7.209607618E0,-6.049652100E-1,9.620803833E0,-8.575119019E0
7.214643018E0,-6.451416016E-1,9.620315552E0,-8.526840210E0
7.219678418E0,-6.405487061E-1,9.637115479E0,-8.488815308E0
7.224713819E0,-6.264801025E-1,9.620788574E0,-8.523864746E0
7.229749219E0,-5.979309082E-1,9.614715576E0,-8.514907837E0
7.234784620E0,-6.301727295E-1,9.617813110E0,-8.474136353E0
7.239820020E0,-6.530761719E-1,9.623657227E0,-8.509063721E0
7.244855420E0,-6.411132812E-1,9.634338379E0,-8.518096924E0
7.249890821E0,-6.395416260E-1,9.632232666E0,-8.530807495E0
7.254926221E0,-6.496887207E-1,9.617904663E0,-8.532760620E0
7.259961622E0,-6.454315186E-1,9.622787476E0,-8.529754639E0
7.264997022E0,-6.504669189E-1,9.638427734E0,-8.514556885E0
7.270032422E0,-6.230010986E-1,9.671966553E0,-8.550933838E0
7.275067823E0,-6.089630127E-1,9.678512573E0,-8.549407959E0
7.280103223E0,-6.435089111E-1,9.617248535E0,-8.526855469E0
7.285138624E0,-6.143493652E-1,9.622909546E0,-8.523956299E0
7.290174024E0,-6.361389160E-1,9.628021240E0,-8.545791626E0
7.295209424E0,-6.215972900E-1,9.639770508E0,-8.529052734E0
7.300244825E0,-6.544647217E-1,9.600845337E0,-8.494812012E0
7.305280225E0,-6.341857910E-1,9.592315674E0,-8.492721558E0
7.310315625E0,-6.349182129E-1,9.590286255E0,-8.537857056E0
7.315351026E0,-6.339721680E-1,9.620590210E0,-8.511093140E0
7.320386426E0,-6.274414062E-1,9.640060425E0,-8.556900024E0
7.325421827E0,-6.390228271E-1,9.627685547E0,-8.552352905E0
7.330457227E0,-5.944671631E-1,9.644577026E0,-8.540084839E0
7.335492627E0,-6.267852783E-1,9.644927979E0,-8.513122559E0
7.340528028E0,-6.376953125E-1,9.648971558E0,-8.559539795E0
7.345563428E0,-6.188049316E-1,9.618972778E0,-8.525726318E0
7.350598829E0,-6.213531494E-1,9.627075195E0,-8.563690186E0
7.355634229E0,-6.394805908E-1,9.647994995E0,-8.491790771E0
7.360669629E0,-6.295928955E-1,9.651672363E0,-8.495269775E0
7.365705030E0,-6.288604736E-1,9.613342285E0,-8.498123169E0
7.370740430E0,-6.265869141E-1,9.622741699E0,-8.536972046E0
7.375775831E0,-6.195678711E-1,9.609405518E0,-8.545623779E0
7.380811231E0,-6.425628662E-1,9.636840820E0,-8.555130005E0
7.385846631E0,-6.501617432E-1,9.649215698E0,-8.515640259E0
7.390882032E0,-6.408233643E-1,9.661270142E0,-8.566940308E0
7.395917432E0,-6.526489258E-1,9.630493164E0,-8.562423706E0
7.400952833E0,-6.479949951E-1,9.646392822E0,-8.547531128E0
7.405988233E0,-6.541290283E-1,9.593276978E0,-8.492675781E0
7.411023633E0,-6.060791016E-1,9.643798828E0,-8.575042725E0
7.416059034E0,-6.385650635E-1,9.617172241E0,-8.519134521E0
7.421094434E0,-6.430206299E-1,9.642974854E0,-8.511901855E0
7.426129834E0,-6.414947510E-1,9.615036011E0,-8.618011475E0
7.431165235E0,-6.504516602E-1,9.635635376E0,-8.523620605E0
7.436200635E0,-6.212921143E-1,9.643905640E0,-8.576751709E0
7.441236036E0,-6.489257812E-1,9.663848877E0,-8.543472290E0
7.446271436E0,-6.612091064E-1,9.641311646E0,-8.548110962E0
7.451306836E0,-6.723632812E-1,9.648742676E0,-8.587600708E0
7.456342237E0,-6.585388184E-1,9.605133057E0,-8.555541992E0
7.461377637E0,-6.666564941E-1,9.628051758E0,-8.545715332E0
7.466413038E0,-6.652069092E-1,9.618377686E0,-8.593276978E0
7.471448438E0,-6.686553955E-1,9.663375854E0,-8.580154419E0
7.476483838E0,-6.613006592E-1,9.660980225E0,-8.591888428E0
7.481519239E0,-6.473083496E-1,9.646499634E0,-8.540069580E0
7.486554639E0,-6.665954590E-1,9.590209961E0,-8.528305054E0
7.491590040E0,-6.567535400E-1,9.638687134E0,-8.568710327E0
7.496625440E0,-6.712493896E-1,9.631027222E0,-8.585723877E0
7.501660840E0,-6.456451416E-1,9.623260498E0,-8.502609253E0
7.506696241E0,-6.451110840E-1,9.623260498E0,-8.606262207E0
7.511731641E0,-6.832275391E-1,9.625732422E0,-8.580551147E0
7.516767042E0,-6.902313232E-1,9.631500244E0,-8.561111450E0
7.521802442E0,-6.900024414E-1,9.620651245E0,-8.514022827E0
7.526837842E0,-6.983489990E-1,9.626876831E0,-8.549697876E0
7.531873243E0,-7.050933838E-1,9.626739502E0,-8.560363770E0
7.536908643E0,-6.859283447E-1,9.634536743E0,-8.533355713E0
7.541944043E0,-6.571960449E-1,9.633789062E0,-8.558166504E0
7.546979444E0,-6.771240234E-1,9.648742676E0,-8.610534668E0
7.552014844E0,-6.775207520E-1,9.632019043E0,-8.606689453E0
7.557050245E0,-6.658630371E-1,9.647781372E0,-8.597763062E0
7.562085645E0,-6.554870605E-1,9.649246216E0,-8.586471558E0
7.567121045E0,-6.861572266E-1,9.620880127E0,-8.611816406E0
7.572156446E0,-7.003936768E-1,9.616348267E0,-8.567276001E0
7.577191846E0,-6.931915283E-1,9.630584717E0,-8.562622070E0
7.582227247E0,-6.963653564E-1,9.668411255E0,-8.560974121E0
7.587262647E0,-6.975555420E-1,9.630050659E0,-8.569473267E0
7.592298047E0,-6.610107422E-1,9.609313965E0,-8.549545288E0
7.597333448E0,-6.549530029E-1,9.626678467E0,-8.561828613E0
7.602368848E0,-6.690826416E-1,9.626647949E0,-8.598587036E0
7.607404249E0,-6.699676514E-1,9.626007080E0,-8.577575684E0
7.612439649E0,-6.797790527E-1,9.641372681E0,-8.571929932E0
7.617475049E0,-6.850128174E-1,9.640853882E0,-8.585952759E0
7.622510450E0,-6.926879883E-1,9.647109985E0,-8.575942993E0
7.627545850E0,-6.826934814E-1,9.651229858E0,-8.581787109E0
7.632581250E0,-6.786804199E-1,9.650085449E0,-8.570007324E0
7.637616651E0,-6.834716797E-1,9.645950317E0,-8.555938721E0
7.642652051E0,-6.761322021E-1,9.630950928E0,-8.543182373E0
7.647687452E0,-6.886138916E-1,9.632080078E0,-8.556579590E0
7.652722852E0,-6.859893799E-1,9.645355225E0,-8.605575562E0
7.657758252E0,-6.837768555E-1,9.639602661E0,-8.620452881E0
7.662793653E0,-6.903533936E-1,9.626770020E0,-8.571609497E0
7.667829053E0,-6.967926025E-1,9.639617920E0,-8.561111450E0
7.672864454E0,-6.849060059E-1,9.638885498E0,-8.560241699E0
7.677899854E0,-6.776733398E-1,9.656768799E0,-8.563781738E0
7.682935254E0,-6.886138916E-1,9.680206299E0,-8.588989258E0
7.687970655E0,-6.954193115E-1,9.647171021E0,-8.584457397E0
7.693006055E0,-6.906127930E-1,9.625778198E0,-8.586059570E0
7.698041456E0,-6.871032715E-1,9.622909546E0,-8.612091064E0
7.703076856E0,-6.846923828E-1,9.613296509E0,-8.560928345E0
7.708112256E0,-6.730499268E-1,9.623504639E0,-8.531265259E0
7.713147657E0,-6.377105713E-1,9.649932861E0,-8.525390625E0
7.718183057E0,-6.360626221E-1,9.644973755E0,-8.520034790E0
7.723218458E0,-6.572265625E-1,9.628616333E0,-8.579132080E0
7.728253858E0,-6.762695312E-1,9.641113281E0,-8.607833862E0
7.733289258E0,-6.645355225E-1,9.650390625E0,-8.562896729E0
7.738324659E0,-6.330871582E-1,9.650863647E0,-8.539184570E0
7.743360059E0,-6.641693115E-1,9.656204224E0,-8.526443481E0
7.748395459E0,-6.758117676E-1,9.638031006E0,-8.542694092E0
7.753430860E0,-6.806182861E-1,9.627151489E0,-8.547119141E0
7.758466260E0,-6.791534424E-1,9.618789673E0,-8.516464233E0
7.763501661E0,-6.740875244E-1,9.652801514E0,-8.576431274E0
7.768537061E0,-6.899108887E-1,9.665328979E0,-8.565826416E0
7.773572461E0,-6.739501953E-1,9.642181396E0,-8.598556519E0
7.778607862E0,-6.621856689E-1,9.644119263E0,-8.513305664E0
7.783643262E0,-6.425170898E-1,9.626480103E0,-8.507720947E0
7.788678663E0,-6.669311523E-1,9.627761841E0,-8.512527466E0
7.793714063E0,-6.610260010E-1,9.652984619E0,-8.515487671E0
7.798749463E0,-6.612091064E-1,9.659637451E0,-8.540161133E0
7.803784864E0,-6.455688477E-1,9.645141602E0,-8.568954468E0
7.808820264E0,-6.822052002E-1,9.638168335E0,-8.555755615E0
7.813855665E0,-6.908111572E-1,9.632217407E0,-8.518127441E0
7.818891065E0,-6.596374512E-1,9.648361206E0,-8.516738892E0
7.823926465E0,-6.611785889E-1,9.643310547E0,-8.506958008E0
7.828961866E0,-6.517791748E-1,9.649063110E0,-8.515792847E0
7.833997266E0,-6.349334717E-1,9.622146606E0,-8.508529663E0
7.839032667E0,-6.537170410E-1,9.639938354E0,-8.544692993E0
7.844068067E0,-6.541137695E-1,9.635665894E0,-8.506011963E0
7.849103467E0,-6.315917969E-1,9.640441895E0,-8.497314453E0
7.854138868E0,-6.556243896E-1,9.648117065E0,-8.573989868E0
7.859174268E0,-6.661071777E-1,9.625930786E0,-8.500930786E0
7.864209668E0,-6.510620117E-1,9.642715454E0,-8.513351440E0
7.869245069E0,-6.499176025E-1,9.606994629E0,-8.547698975E0
7.874280469E0,-6.299896240E-1,9.611633301E0,-8.510360718E0
7.879315870E0,-6.183013916E-1,9.648529053E0,-8.507095337E0
7.884351270E0,-6.210937500E-1,9.635650635E0,-8.538681030E0
7.889386670E0,-6.658477783E-1,9.622268677E0,-8.537155151E0
7.894422071E0,-6.589965820E-1,9.606033325E0,-8.540557861E0
7.899457471E0,-6.402587891E-1,9.602066040E0,-8.530349731E0
7.904492872E0,-6.623229980E-1,9.612716675E0,-8.485656738E0
7.909528272E0,-6.514282227E-1,9.613739014E0,-8.547332764E0
7.914563672E0,-6.613159180E-1,9.651229858E0,-8.526504517E0
7.919599073E0,-6.621856689E-1,9.634094238E0,-8.504318237E0
7.924634473E0,-6.486968994E-1,9.632781982E0,-8.511993408E0
7.929669874E0,-6.638641357E-1,9.641891479E0,-8.514801025E0
7.934705274E0,-6.299591064E-1,9.639984131E0,-8.501052856E0
7.939740674E0,-6.428070068E-1,9.635269165E0,-8.502944946E0
7.944776075E0,-6.338043213E-1,9.628143311E0,-8.488983154E0
7.949811475E0,-6.265258789E-1,9.625640869E0,-8.573883057E0
7.954846875E0,-6.407623291E-1,9.608978271E0,-8.545852661E0
7.959882276E0,-6.428222656E-1,9.649307251E0,-8.524124146E0
7.964917676E0,-5.889282227E-1,9.627868652E0,-8.475189209E0
7.969953077E0,-6.316528320E-1,9.617675781E0,-8.534759521E0
7.974988477E0,-6.468963623E-1,9.679443359E0,-8.473861694E0
7.980023877E0,-6.142425537E-1,9.649520874E0,-8.531036377E0
7.985059278E0,-6.056518555E-1,9.651473999E0,-8.515304565E0
7.990094678E0,-6.161804199E-1,9.645858765E0,-8.479309082E0
7.995130079E0,-6.036376953E-1,9.664016724E0,-8.524276733E0
8.000165479E0,-6.157379150E-1,9.635848999E0,-8.551162720E0
8.005200879E0,-5.992889404E-1,9.643249512E0,-8.499450684E0
8.010236280E0,-5.934448242E-1,9.629333496E0,-8.509231567E0
8.015271680E0,-6.389617920E-1,9.643280029E0,-8.483230591E0
8.020307081E0,-6.053161621E-1,9.652343750E0,-8.536331177E0
8.025342481E0,-6.270751953E-1,9.655410767E0,-8.517868042E0
8.030377881E0,-6.297302246E-1,9.645843506E0,-8.523254395E0
8.035413282E0,-6.206359863E-1,9.637863159E0,-8.527389526E0
8.040448682E0,-6.285247803E-1,9.631317139E0,-8.499237061E0
8.045484083E0,-6.271667480E-1,9.589874268E0,-8.500213623E0
8.050519483E0,-6.293487549E-1,9.646301270E0,-8.547012329E0
8.055554883E0,-6.226043701E-1,9.637832642E0,-8.507461548E0
8.060590284E0,-6.383819580E-1,9.622894287E0,-8.525787354E0
8.065625684E0,-6.374969482E-1,9.645202637E0,-8.501586914E0
8.070661084E0,-6.303558350E-1,9.607986450E0,-8.482666016E0
8.075696485E0,-6.223907471E-1,9.616195679E0,-8.551422119E0
8.080731885E0,-6.360015869E-1,9.627166748E0,-8.532745361E0
8.085767286E0,-6.119689941E-1,9.638137817E0,-8.522338867E0
8.090802686E0,-6.171264648E-1,9.650466919E0,-8.534896851E0
8.095838086E0,-6.005401611E-1,9.627487183E0,-8.537139893E0
8.100873487E0,-5.824432373E-1,9.629211426E0,-8.514312744E0
8.105908887E0,-6.139678955E-1,9.648452759E0,-8.532318115E0
8.110944288E0,-6.115570068E-1,9.627410889E0,-8.550796509E0
8.115979688E0,-6.118316650E-1,9.658843994E0,-8.543731689E0
8.121015088E0,-6.210632324E-1,9.626647949E0,-8.519348145E0
8.126050489E0,-6.277465820E-1,9.625350952E0,-8.539108276E0
8.131085889E0,-6.244201660E-1,9.629669189E0,-8.515106201E0
8.136121290E0,-6.263275146E-1,9.629501343E0,-8.510879517E0
8.141156690E0,-6.073760986E-1,9.626617432E0,-8.520980835E0
8.146192090E0,-6.240386963E-1,9.624771118E0,-8.551315308E0
8.151227491E0,-6.535949707E-1,9.638931274E0,-8.580856323E0
8.156262891E0,-6.529235840E-1,9.623260498E0,-8.586196899E0
8.161298292E0,-6.244049072E-1,9.619827271E0,-8.560150146E0
8.166333692E0,-6.270141602E-1,9.620697021E0,-8.523788452E0
8.171369092E0,-6.410980225E-1,9.628326416E0,-8.533935547E0
8.176404493E0,-6.290435791E-1,9.635498047E0,-8.569625854E0
8.181439893E0,-6.426391602E-1,9.644943237E0,-8.584365845E0
8.186475293E0,-6.503143311E-1,9.626129150E0,-8.546310425E0
8.191510694E0,-6.544952393E-1,9.630401611E0,-8.504333496E0
8.196546094E0,-6.512908936E-1,9.644409180E0,-8.491317749E0
8.201581495E0,-6.608428955E-1,9.657592773E0,-8.546524048E0
8.206616895E0,-6.591796875E-1,9.638992310E0,-8.528549194E0
8.211652295E0,-6.538085938E-1,9.638427734E0,-8.537033081E0
8.216687696E0,-6.549835205E-1,9.629165649E0,-8.559646606E0
8.221723096E0,-6.529083252E-1,9.604965210E0,-8.552810669E0
8.226758497E0,-6.669464111E-1,9.632720947E0,-8.544128418E0
8.231793897E0,-6.577301025E-1,9.646194458E0,-8.539642334E0
8.236829297E0,-6.537475586E-1,9.636322021E0,-8.561080933E0
8.241864698E0,-6.586303711E-1,9.642272949E0,-8.576782227E0
8.246900098E0,-6.453094482E-1,9.627670288E0,-8.577957153E0
8.251935499E0,-6.496734619E-1,9.625015259E0,-8.571853638E0
8.256970899E0,-6.268920898E-1,9.627349854E0,-8.567276001E0
8.262006299E0,-6.391448975E-1,9.625045776E0,-8.573654175E0
8.267041700E0,-6.491394043E-1,9.631484985E0,-8.586914062E0
8.272077100E0,-6.425018311E-1,9.648788452E0,-8.575057983E0
8.277112500E0,-6.387329102E-1,9.655700684E0,-8.542770386E0
8.282147901E0,-6.580657959E-1,9.663024902E0,-8.493865967E0
8.287183301E0,-6.753387451E-1,9.664962769E0,-8.534851074E0
8.292218702E0,-6.637268066E-1,9.664566040E0,-8.588134766E0
8.297254102E0,-6.782989502E-1,9.645721436E0,-8.574005127E0
8.302289502E0,-6.820831299E-1,9.628952026E0,-8.549499512E0
8.307324903E0,-6.794128418E-1,9.636810303E0,-8.561614990E0
8.312360303E0,-6.708068848E-1,9.646759033E0,-8.558029175E0
8.317395704E0,-6.721191406E-1,9.629806519E0,-8.558792114E0
8.322431104E0,-6.519470215E-1,9.650695801E0,-8.590957642E0
8.327466504E0,-6.601257324E-1,9.646743774E0,-8.569641113E0
8.332501905E0,-6.576080322E-1,9.642990112E0,-8.541198730E0
8.337537305E0,-6.550598145E-1,9.662979126E0,-8.550643921E0
8.342572706E0,-6.638793945E-1,9.619308472E0,-8.588363647E0
8.347608106E0,-6.540222168E-1,9.601150513E0,-8.612670898E0
8.352643506E0,-6.824645996E-1,9.627243042E0,-8.632064819E0
8.357678907E0,-6.844635010E-1,9.649291992E0,-8.571502686E0
8.362714307E0,-6.839752197E-1,9.655899048E0,-8.589599609E0
8.367749708E0,-6.911773682E-1,9.623764038E0,-8.581832886E0
8.372785108E0,-6.878814697E-1,9.630630493E0,-8.573776245E0
8.377820508E0,-6.877746582E-1,9.660552979E0,-8.567321777E0
8.382855909E0,-6.901702881E-1,9.646926880E0,-8.548721313E0
8.387891309E0,-6.726074219E-1,9.663497925E0,-8.518066406E0
8.392926709E0,-6.540679932E-1,9.646942139E0,-8.502777100E0
8.397962110E0,-6.911621094E-1,9.643630981E0,-8.541488647E0
8.402997510E0,-6.744079590E-1,9.633377075E0,-8.560516357E0
8.408032911E0,-6.517486572E-1,9.598068237E0,-8.552993774E0
8.413068311E0,-6.864624023E-1,9.597640991E0,-8.591079712E0
8.418103711E0,-6.838531494E-1,9.640289307E0,-8.567535400E0
8.423139112E0,-6.733551025E-1,9.647460938E0,-8.569992065E0
8.428174512E0,-6.736907959E-1,9.639144897E0,-8.595748901E0
8.433209913E0,-7.001037598E-1,9.625534058E0,-8.578582764E0
8.438245313E0,-6.889038086E-1,9.643432617E0,-8.554229736E0
8.443280713E0,-6.532897949E-1,9.620483398E0,-8.571044922E0
8.448316114E0,-6.479034424E-1,9.585189819E0,-8.595016479E0
8.453351514E0,-6.625213623E-1,9.605468750E0,-8.579421997E0
8.458386915E0,-6.645660400E-1,9.653167725E0,-8.610458374E0
8.463422315E0,-7.093505859E-1,9.650436401E0,-8.516799927E0
8.468457715E0,-6.887817383E-1,9.619369507E0,-8.479598999E0
8.473493116E0,-7.077636719E-1,9.611755371E0,-8.552978516E0
8.478528516E0,-6.725463867E-1,9.602584839E0,-8.529449463E0
8.483563917E0,-6.826477051E-1,9.648437500E0,-8.604492188E0
8.488599317E0,-6.836090088E-1,9.598175049E0,-8.522949219E0
8.493634717E0,-6.768646240E-1,9.603683472E0,-8.555526733E0
8.498670118E0,-6.878662109E-1,9.611038208E0,-8.587356567E0
8.503705518E0,-6.768341064E-1,9.629806519E0,-8.602539062E0
8.508740918E0,-6.741485596E-1,9.597885132E0,-8.517044067E0
8.513776319E0,-6.507263184E-1,9.643798828E0,-8.542938232E0
8.518811719E0,-6.786804199E-1,9.656509399E0,-8.564758301E0
8.523847120E0,-6.455230713E-1,9.575653076E0,-8.519668579E0
8.528882520E0,-6.743316650E-1,9.616287231E0,-8.588104248E0
8.533917920E0,-6.923828125E-1,9.630447388E0,-8.540847778E0
8.538953321E0,-6.629943848E-1,9.632476807E0,-8.531784058E0
8.543988721E0,-6.880340576E-1,9.624130249E0,-8.538970947E0
8.549024122E0,-6.801300049E-1,9.646469116E0,-8.545257568E0
8.554059522E0,-7.028045654E-1,9.632263184E0,-8.531845093E0
8.559094922E0,-6.655273438E-1,9.585494995E0,-8.497940063E0
8.564130323E0,-6.793823242E-1,9.622726440E0,-8.532577515E0
8.569165723E0,-6.859893799E-1,9.618148804E0,-8.597030640E0
8.574201124E0,-6.886291504E-1,9.640792847E0,-8.508850098E0
8.579236524E0,-7.056732178E-1,9.646972656E0,-8.521392822E0
8.584271924E0,-6.320037842E-1,9.625640869E0,-8.537887573E0
8.589307325E0,-6.552124023E-1,9.625076294E0,-8.550888062E0
8.594342725E0,-6.402130127E-1,9.620574951E0,-8.550857544E0
8.599378125E0,-6.549224854E-1,9.622344971E0,-8.541137695E0
8.604413526E0,-6.682891846E-1,9.643569946E0,-8.561920166E0
8.609448926E0,-6.621856689E-1,9.625442505E0,-8.506286621E0
8.614484327E0,-6.618041992E-1,9.637542725E0,-8.530303955E0
8.619519727E0,-6.585845947E-1,9.633041382E0,-8.552352905E0
8.624555127E0,-6.531066895E-1,9.613967896E0,-8.517944336E0
8.629590528E0,-6.491699219E-1,9.627441406E0,-8.532913208E0
8.634625928E0,-6.317749023E-1,9.636108398E0,-8.548278809E0
8.639661329E0,-6.666564941E-1,9.637924194E0,-8.571914673E0
8.644696729E0,-6.841430664E-1,9.635620117E0,-8.511016846E0
8.649732129E0,-6.763916016E-1,9.647262573E0,-8.502059937E0
8.654767530E0,-6.436920166E-1,9.617813110E0,-8.543869019E0
8.659802930E0,-6.490325928E-1,9.604705811E0,-8.528015137E0
8.664838331E0,-6.610260010E-1,9.623306274E0,-8.523208618E0
8.669873731E0,-6.696014404E-1,9.624114990E0,-8.519668579E0
8.674909131E0,-6.640167236E-1,9.612472534E0,-8.517044067E0
8.679944532E0,-6.222839355E-1,9.627334595E0,-8.498046875E0
8.684979932E0,-6.395568848E-1,9.627716064E0,-8.492370605E0
8.690015333E0,-6.128997803E-1,9.633483887E0,-8.527221680E0
8.695050733E0,-6.142120361E-1,9.630706787E0,-8.488021851E0
8.700086133E0,-6.465148926E-1,9.637481689E0,-8.519607544E0
8.705121534E0,-6.468963623E-1,9.655441284E0,-8.498779297E0
8.710156934E0,-6.557312012E-1,9.626525879E0,-8.526092529E0
8.715192334E0,-6.491394043E-1,9.651397705E0,-8.522155762E0
8.720227735E0,-6.524963379E-1,9.663421631E0,-8.508773804E0
8.725263135E0,-6.260375977E-1,9.650756836E0,-8.533325195E0
8.730298536E0,-6.238861084E-1,9.637588501E0,-8.517883301E0
8.735333936E0,-6.038208008E-1,9.648269653E0,-8.512176514E0
8.740369336E0,-6.119384766E-1,9.680465698E0,-8.515228271E0
8.745404737E0,-6.231536865E-1,9.656097412E0,-8.531555176E0
8.750440137E0,-6.064758301E-1,9.638107300E0,-8.540634155E0
8.755475538E0,-6.239318848E-1,9.625610352E0,-8.531555176E0
8.760510938E0,-6.391143799E-1,9.609573364E0,-8.512863159E0
8.765546338E0,-6.448516846E-1,9.633804321E0,-8.502883911E0
8.770581739E0,-6.632385254E-1,9.639389038E0,-8.508316040E0
8.775617139E0,-6.407775879E-1,9.645751953E0,-8.535446167E0
8.780652540E0,-6.309051514E-1,9.644851685E0,-8.544738770E0
8.785687940E0,-6.281433105E-1,9.635543823E0,-8.528854370E0
8.790723340E0,-6.239318848E-1,9.623428345E0,-8.526275635E0
8.795758741E0,-6.277008057E-1,9.629013062E0,-8.539916992E0
8.800794141E0,-6.217193604E-1,9.624450684E0,-8.561325073E0
8.805829542E0,-6.218109131E-1,9.600479126E0,-8.549987793E0
8.810864942E0,-6.005859375E-1,9.614517212E0,-8.502471924E0
8.815900342E0,-5.815277100E-1,9.626358032E0,-8.513839722E0
8.820935743E0,-5.885925293E-1,9.622344971E0,-8.524765015E0
8.825971143E0,-6.039276123E-1,9.629577637E0,-8.533294678E0
8.831006543E0,-6.252746582E-1,9.626098633E0,-8.552230835E0
8.836041944E0,-6.349945068E-1,9.646682739E0,-8.559448242E0
8.841077344E0,-6.470336914E-1,9.648178101E0,-8.529418945E0
8.846112745E0,-6.326141357E-1,9.635162354E0,-8.508178711E0
8.851148145E0,-6.127014160E-1,9.635162354E0,-8.531478882E0
8.856183545E0,-6.184997559E-1,9.636596680E0,-8.532836914E0
8.861218946E0,-6.344299316E-1,9.655227661E0,-8.530319214E0
8.866254346E0,-6.138610840E-1,9.643676758E0,-8.518997192E0
8.871289747E0,-6.100006104E-1,9.654541016E0,-8.511642456E0
8.876325147E0,-6.292266846E-1,9.662353516E0,-8.523254395E0
8.881360547E0,-6.111602783E-1,9.658966064E0,-8.518310547E0
8.886395948E0,-6.247406006E-1,9.616378784E0,-8.510940552E0
8.891431348E0,-6.224212646E-1,9.594696045E0,-8.470230103E0
8.896466749E0,-6.340332031E-1,9.597930908E0,-8.479812622E0
8.901502149E0,-6.497039795E-1,9.624053955E0,-8.508239746E0
8.906537549E0,-6.609497070E-1,9.607025146E0,-8.559570312E0
8.911572950E0,-6.528930664E-1,9.626403809E0,-8.580841064E0
8.916608350E0,-6.140289307E-1,9.629745483E0,-8.542587280E0
8.921643750E0,-6.192626953E-1,9.613571167E0,-8.533691406E0
8.926679151E0,-6.003570557E-1,9.636840820E0,-8.558959961E0
8.931714551E0,-6.065826416E-1,9.668136597E0,-8.528625488E0
8.936749952E0,-6.157684326E-1,9.636428833E0,-8.525588989E0
8.941785352E0,-6.259613037E-1,9.646652222E0,-8.556182861E0
8.946820752E0,-6.215667725E-1,9.617691040E0,-8.550277710E0
8.951856153E0,-6.156616211E-1,9.621337891E0,-8.549530029E0
8.956891553E0,-6.255950928E-1,9.643981934E0,-8.587310791E0
8.961926954E0,-6.363830566E-1,9.638168335E0,-8.543762207E0
8.966962354E0,-6.441345215E-1,9.661941528E0,-8.485183716E0
8.971997754E0,-6.281585693E-1,9.656890869E0,-8.495666504E0
8.977033155E0,-6.280212402E-1,9.611145020E0,-8.539749146E0
8.982068555E0,-6.545257568E-1,9.615646362E0,-8.560073853E0
8.987103956E0,-6.458129883E-1,9.646499634E0,-8.604522705E0
8.992139356E0,-6.330566406E-1,9.663925171E0,-8.578201294E0
8.997174756E0,-6.353149414E-1,9.676254272E0,-8.551712036E0
9.002210157E0,-6.545410156E-1,9.680053711E0,-8.560577393E0
9.007245557E0,-6.323699951E-1,9.642791748E0,-8.612625122E0
9.012280958E0,-6.730651855E-1,9.616485596E0,-8.581756592E0
9.017316358E0,-6.511383057E-1,9.628662109E0,-8.551208496E0
9.022351758E0,-6.672515869E-1,9.641128540E0,-8.565414429E0
9.027387159E0,-6.866302490E-1,9.637969971E0,-8.625656128E0
9.032422559E0,-6.555175781E-1,9.650680542E0,-8.618392944E0
9.037457959E0,-6.460571289E-1,9.647399902E0,-8.617263794E0
9.042493360E0,-6.455230713E-1,9.606842041E0,-8.539062500E0
9.047528760E0,-6.567840576E-1,9.640213013E0,-8.572189331E0
9.052564161E0,-6.756591797E-1,9.612686157E0,-8.578964233E0
9.057599561E0,-6.535491943E-1,9.620529175E0,-8.569992065E0
9.062634961E0,-6.689300537E-1,9.625518799E0,-8.565002441E0
9.067670362E0,-6.763458252E-1,9.651336670E0,-8.595260620E0
9.072705762E0,-6.338958740E-1,9.649444580E0,-8.543792725E0
9.077741163E0,-6.645660400E-1,9.630401611E0,-8.581558228E0
9.082776563E0,-6.882019043E-1,9.667694092E0,-8.508453369E0
9.087811963E0,-6.735687256E-1,9.604339600E0,-8.565551758E0
9.092847364E0,-6.456756592E-1,9.611648560E0,-8.600891113E0
9.097882764E0,-6.519622803E-1,9.621307373E0,-8.608535767E0
9.102918165E0,-6.943511963E-1,9.631378174E0,-8.570068359E0
9.107953565E0,-6.701202393E-1,9.608276367E0,-8.620193481E0
9.112988965E0,-6.472930908E-1,9.665588379E0,-8.556808472E0
9.118024366E0,-6.717071533E-1,9.597915649E0,-8.575393677E0
9.123059766E0,-6.760101318E-1,9.663986206E0,-8.564285278E0
9.128095167E0,-7.165985107E-1,9.617736816E0,-8.629272461E0
9.133130567E0,-6.705627441E-1,9.634002686E0,-8.584823608E0
9.138165967E0,-6.772918701E-1,9.645462036E0,-8.575714111E0
9.143201368E0,-6.461181641E-1,9.650650024E0,-8.600997925E0
9.148236768E0,-6.502838135E-1,9.638610840E0,-8.573638916E0
9.153272168E0,-6.542968750E-1,9.614395142E0,-8.599929810E0
9.158307569E0,-6.778106689E-1,9.620590210E0,-8.591629028E0
9.163342969E0,-6.705780029E-1,9.636550903E0,-8.560852051E0
9.168378370E0,-6.657562256E-1,9.651062012E0,-8.539031982E0
9.173413770E0,-6.700286865E-1,9.625350952E0,-8.588806152E0
9.178449170E0,-6.692047119E-1,9.635589600E0,-8.540954590E0
9.183484571E0,-6.965637207E-1,9.642181396E0,-8.566925049E0
9.188519971E0,-6.797943115E-1,9.653152466E0,-8.546813965E0
9.193555372E0,-6.771392822E-1,9.622390747E0,-8.549591064E0
9.198590772E0,-6.826019287E-1,9.631164551E0,-8.546371460E0
9.203626172E0,-6.654968262E-1,9.640640259E0,-8.553192139E0
9.208661573E0,-6.861572266E-1,9.635162354E0,-8.553131104E0
9.213696973E0,-7.097930908E-1,9.642898560E0,-8.510742188E0
9.218732374E0,-6.846923828E-1,9.656280518E0,-8.547210693E0
9.223767774E0,-6.798400879E-1,9.624176025E0,-8.549560547E0
9.228803174E0,-6.988067627E-1,9.617675781E0,-8.530761719E0
9.233838575E0,-7.074127197E-1,9.634841919E0,-8.578796387E0
9.238873975E0,-6.920013428E-1,9.650421143E0,-8.532806396E0
9.243909375E0,-6.695709229E-1,9.646331787E0,-8.502395630E0
9.248944776E0,-7.093658447E-1,9.632019043E0,-8.532180786E0
9.253980176E0,-7.017669678E-1,9.615753174E0,-8.560272217E0
9.259015577E0,-6.636199951E-1,9.636795044E0,-8.553726196E0
9.264050977E0,-6.844024658E-1,9.642288208E0,-8.563293457E0
9.269086377E0,-6.766052246E-1,9.650283813E0,-8.557159424E0
9.274121778E0,-6.511535645E-1,9.626861572E0,-8.548507690E0
9.279157178E0,-6.605529785E-1,9.634902954E0,-8.581420898E0
9.284192579E0,-6.911926270E-1,9.634887695E0,-8.585357666E0
9.289227979E0,-7.138061523E-1,9.637695312E0,-8.580307007E0
9.294263379E0,-6.984405518E-1,9.629455566E0,-8.586853027E0
9.299298780E0,-6.757659912E-1,9.630920410E0,-8.567092896E0
9.304334180E0,-6.704559326E-1,9.617126465E0,-8.554992676E0
9.309369581E0,-6.904144287E-1,9.612747192E0,-8.532196045E0
9.314404981E0,-6.858215332E-1,9.643051147E0,-8.532730103E0
9.319440381E0,-6.679534912E-1,9.636398315E0,-8.548004150E0
9.324475782E0,-6.639709473E-1,9.628692627E0,-8.536468506E0
9.329511182E0,-6.883697510E-1,9.625167847E0,-8.564895630E0
9.334546583E0,-6.983642578E-1,9.613739014E0,-8.535446167E0
9.339581983E0,-6.814575195E-1,9.614883423E0,-8.515686035E0
9.344617383E0,-6.740875244E-1,9.632568359E0,-8.543289185E0
9.349652784E0,-6.717071533E-1,9.624282837E0,-8.573318481E0
9.354688184E0,-6.729888916E-1,9.611648560E0,-8.563095093E0
9.359723584E0,-6.777038574E-1,9.615844727E0,-8.515258789E0
9.364758985E0,-6.650390625E-1,9.626556396E0,-8.498504639E0
9.369794385E0,-6.322326660E-1,9.621856689E0,-8.472351074E0
9.374829786E0,-6.443023682E-1,9.635208130E0,-8.471710205E0
9.379865186E0,-6.667022705E-1,9.629791260E0,-8.513198853E0
9.384900586E0,-6.632385254E-1,9.620239258E0,-8.549209595E0
9.389935987E0,-6.621856689E-1,9.634124756E0,-8.525741577E0
9.394971387E0,-6.539611816E-1,9.632415771E0,-8.516448975E0
9.400006788E0,-6.479034424E-1,9.631790161E0,-8.538574219E0
9.405042188E0,-6.436462402E-1,9.632781982E0,-8.520706177E0
9.410077588E0,-6.220855713E-1,9.642837524E0,-8.506820679E0
9.415112989E0,-6.317291260E-1,9.653823853E0,-8.516525269E0
9.420148389E0,-6.381225586E-1,9.626968384E0,-8.532409668E0
9.425183790E0,-6.441650391E-1,9.631530762E0,-8.538711548E0
9.430219190E0,-6.716308594E-1,9.632476807E0,-8.524993896E0
9.435254590E0,-6.495666504E-1,9.628723145E0,-8.507995605E0
9.440289991E0,-6.657409668E-1,9.635101318E0,-8.509262085E0
9.445325391E0,-6.533660889E-1,9.634353638E0,-8.506149292E0
9.450360792E0,-6.496734619E-1,9.621490479E0,-8.528778076E0
9.455396192E0,-6.403350830E-1,9.629196167E0,-8.583602905E0
9.460431592E0,-6.336212158E-1,9.626876831E0,-8.548370361E0
9.465466993E0,-6.118011475E-1,9.606460571E0,-8.552978516E0
9.470502393E0,-6.196594238E-1,9.624923706E0,-8.519042969E0
9.475537793E0,-6.470336914E-1,9.624877930E0,-8.526306152E0
9.480573194E0,-6.498413086E-1,9.613922119E0,-8.489410400E0
9.485608594E0,-6.373748779E-1,9.606079102E0,-8.535278320E0
9.490643995E0,-6.461029053E-1,9.611343384E0,-8.502517700E0
9.495679395E0,-6.376953125E-1,9.611938477E0,-8.483963013E0
9.500714795E0,-6.390991211E-1,9.638732910E0,-8.518630981E0
9.505750196E0,-6.444549561E-1,9.636001587E0,-8.547622681E0
9.510785596E0,-6.455230713E-1,9.614074707E0,-8.579162598E0
9.515820997E0,-6.285552979E-1,9.624069214E0,-8.580657959E0
9.520856397E0,-6.202850342E-1,9.637573242E0,-8.504562378E0
9.525891797E0,-6.328582764E-1,9.624465942E0,-8.517227173E0
9.530927198E0,-6.438293457E-1,9.628692627E0,-8.530288696E0
9.535962598E0,-6.475067139E-1,9.608673096E0,-8.547348022E0
9.540997999E0,-6.339111328E-1,9.646224976E0,-8.544601440E0
9.546033399E0,-6.433563232E-1,9.621917725E0,-8.505126953E0
9.551068799E0,-6.414489746E-1,9.622238159E0,-8.551391602E0
9.556104200E0,-6.181030273E-1,9.629440308E0,-8.481811523E0
9.561139600E0,-6.479949951E-1,9.665893555E0,-8.519790649E0
9.566175000E0,-6.505889893E-1,9.643829346E0,-8.599578857E0
9.571210401E0,-6.291351318E-1,9.631454468E0,-8.593185425E0
9.576245801E0,-6.157531738E-1,9.654006958E0,-8.498764038E0
9.581281202E0,-6.145782471E-1,9.623931885E0,-8.508300781E0
9.586316602E0,-6.430816650E-1,9.651550293E0,-8.521102905E0
9.591352002E0,-6.344299316E-1,9.647537231E0,-8.459884644E0
9.596387403E0,-6.448059082E-1,9.644821167E0,-8.533615112E0
9.601422803E0,-6.140289307E-1,9.637924194E0,-8.554458618E0
9.606458204E0,-6.121978760E-1,9.635253906E0,-8.580429077E0
9.611493604E0,-6.145172119E-1,9.632843018E0,-8.528488159E0
9.616529004E0,-6.122589111E-1,9.628128052E0,-8.533767700E0
9.621564405E0,-6.262207031E-1,9.599975586E0,-8.522262573E0
9.626599805E0,-5.933685303E-1,9.601821899E0,-8.600112915E0
9.631635206E0,-6.383819580E-1,9.651824951E0,-8.555374146E0
9.636670606E0,-6.359252930E-1,9.628189087E0,-8.477188110E0
9.641706006E0,-6.290435791E-1,9.641769409E0,-8.509963989E0
9.646741407E0,-6.352844238E-1,9.620285034E0,-8.597488403E0
9.651776807E0,-6.133422852E-1,9.603302002E0,-8.575454712E0
9.656812208E0,-6.432495117E-1,9.642395020E0,-8.597763062E0
9.661847608E0,-6.428985596E-1,9.644287109E0,-8.484329224E0
9.666883008E0,-6.003112793E-1,9.637847900E0,-8.531250000E0
9.671918409E0,-6.316986084E-1,9.640716553E0,-8.529785156E0
9.676953809E0,-6.104888916E-1,9.621475220E0,-8.568084717E0
9.681989209E0,-6.462097168E-1,9.626266479E0,-8.577011108E0
9.687024610E0,-6.722869873E-1,9.610702515E0,-8.578674316E0
9.692060010E0,-6.328735352E-1,9.626159668E0,-8.572845459E0
9.697095411E0,-6.118774414E-1,9.631774902E0,-8.554306030E0
9.702130811E0,-6.369934082E-1,9.640777588E0,-8.517150879E0
9.707166211E0,-5.904388428E-1,9.632965088E0,-8.564239502E0
9.712201612E0,-6.586456299E-1,9.650482178E0,-8.563964844E0
9.717237012E0,-6.273956299E-1,9.656585693E0,-8.588867188E0
9.722272413E0,-6.416168213E-1,9.650695801E0,-8.588867188E0
9.727307813E0,-6.303100586E-1,9.618423462E0,-8.530364990E0
9.732343213E0,-6.686706543E-1,9.619216919E0,-8.584747314E0
9.737378614E0,-6.527862549E-1,9.664764404E0,-8.544036865E0
9.742414014E0,-6.398010254E-1,9.625671387E0,-8.533447266E0
9.747449415E0,-6.359252930E-1,9.650222778E0,-8.525024414E0
9.752484815E0,-6.680603027E-1,9.628890991E0,-8.542068481E0
9.757520215E0,-6.555938721E-1,9.614700317E0,-8.568450928E0
9.762555616E0,-6.500701904E-1,9.645126343E0,-8.576797485E0
9.767591016E0,-6.369323730E-1,9.647811890E0,-8.545669556E0
9.772626417E0,-6.663360596E-1,9.631011963E0,-8.560089111E0
9.777661817E0,-6.536712646E-1,9.631118774E0,-8.542465210E0
9.782697217E0,-6.398773193E-1,9.614425659E0,-8.569320679E0
9.787732618E0,-6.298980713E-1,9.643890381E0,-8.594360352E0
9.792768018E0,-6.230010986E-1,9.652862549E0,-8.565643311E0
9.797803418E0,-6.266784668E-1,9.631546021E0,-8.591384888E0
9.802838819E0,-6.637573242E-1,9.650772095E0,-8.559524536E0
9.807874219E0,-6.873168945E-1,9.645675659E0,-8.592910767E0
9.812909620E0,-6.810913086E-1,9.650054932E0,-8.583801270E0
9.817945020E0,-6.487121582E-1,9.628753662E0,-8.490219116E0
9.822980420E0,-6.504058838E-1,9.630050659E0,-8.534347534E0
9.828015821E0,-6.589813232E-1,9.614318848E0,-8.573928833E0
9.833051221E0,-6.565704346E-1,9.629821777E0,-8.583740234E0
9.838086622E0,-6.585388184E-1,9.623947144E0,-8.566970825E0
9.843122022E0,-6.503143311E-1,9.631301880E0,-8.529815674E0
9.848157422E0,-6.458129883E-1,9.619949341E0,-8.517715454E0
9.853192823E0,-6.670379639E-1,9.613769531E0,-8.533538818E0
9.858228223E0,-6.574554443E-1,9.606597900E0,-8.532577515E0
9.863263624E0,-6.714172363E-1,9.604629517E0,-8.542358398E0
9.868299024E0,-6.802520752E-1,9.619644165E0,-8.539886475E0
9.873334424E0,-6.828765869E-1,9.651718140E0,-8.553253174E0
9.878369825E0,-6.758422852E-1,9.635208130E0,-8.554901123E0
9.883405225E0,-6.630096436E-1,9.614624023E0,-8.554626465E0
9.888440625E0,-6.702270508E-1,9.639099121E0,-8.592987061E0
9.893476026E0,-6.696624756E-1,9.653869629E0,-8.588088989E0
9.898511426E0,-6.713714600E-1,9.639709473E0,-8.545608521E0
9.903546827E0,-6.685333252E-1,9.601287842E0,-8.563217163E0
9.908582227E0,-6.737823486E-1,9.595642090E0,-8.577957153E0
9.913617627E0,-6.871795654E-1,9.635162354E0,-8.554183960E0
9.918653028E0,-6.678619385E-1,9.660125732E0,-8.557067871E0
9.923688428E0,-6.662445068E-1,9.652786255E0,-8.559249878E0
9.928723829E0,-6.775970459E-1,9.621932983E0,-8.543853760E0
9.933759229E0,-6.879730225E-1,9.622436523E0,-8.559539795E0
9.938794629E0,-6.732025146E-1,9.647491455E0,-8.580261230E0
9.943830030E0,-6.632385254E-1,9.642578125E0,-8.581832886E0
9.948865430E0,-7.066497803E-1,9.635162354E0,-8.594558716E0
9.953900831E0,-6.831207275E-1,9.646072388E0,-8.580093384E0
9.958936231E0,-6.621856689E-1,9.669464111E0,-8.574401855E0
9.963971631E0,-6.783142090E-1,9.631103516E0,-8.559555054E0
9.969007032E0,-6.812286377E-1,9.625686646E0,-8.551101685E0
9.974042432E0,-7.059173584E-1,9.631607056E0,-8.541778564E0
9.979077833E0,-6.759796143E-1,9.626205444E0,-8.552215576E0
9.984113233E0,-6.658477783E-1,9.599609375E0,-8.573852539E0
9.989148633E0,-7.127075195E-1,9.620529175E0,-8.567092896E0
9.994184034E0,-6.952667236E-1,9.619293213E0,-8.593856812E0
9.999219434E0,-6.740875244E-1,9.603469849E0,-8.582809448E0
1.000425483E1,-6.614379883E-1,9.646133423E0,-8.543533325E0
1.000929024E1,-7.045440674E-1,9.639739990E0,-8.555511475E0
1.001432564E1,-7.320861816E-1,9.614288330E0,-8.538085938E0
1.001936104E1,-7.155609131E-1,9.623733521E0,-8.535903931E0
1.002439644E1,-6.724548340E-1,9.635391235E0,-8.574386597E0
1.002943184E1,-6.557464600E-1,9.624069214E0,-8.529769897E0
1.003446724E1,-6.618804932E-1,9.616790771E0,-8.556640625E0
1.003950264E1,-6.749420166E-1,9.638565063E0,-8.564697266E0
1.004453804E1,-6.596984863E-1,9.640090942E0,-8.565353394E0
1.004957344E1,-6.774139404E-1,9.626937866E0,-8.558425903E0
1.005460884E1,-6.788177490E-1,9.625045776E0,-8.587692261E0
1.005964424E1,-6.692199707E-1,9.656478882E0,-8.603652954E0
1.006467964E1,-6.889038086E-1,9.636840820E0,-8.596206665E0
1.006971504E1,-6.899566650E-1,9.629867554E0,-8.552658081E0
1.007475044E1,-6.865081787E-1,9.611663818E0,-8.539215088E0
1.007978584E1,-6.916961670E-1,9.585708618E0,-8.551986694E0
1.008482124E1,-6.471557617E-1,9.632141113E0,-8.578353882E0
1.008985664E1,-6.709747314E-1,9.636901855E0,-8.515945435E0
1.009489204E1,-6.866912842E-1,9.637115479E0,-8.571151733E0
1.009992744E1,-6.764678955E-1,9.663360596E0,-8.550567627E0
1.010496284E1,-6.781005859E-1,9.664474487E0,-8.521438599E0
1.010999824E1,-6.930694580E-1,9.615005493E0,-8.537582397E0
1.011503364E1,-6.566314697E-1,9.608642578E0,-8.506286621E0
1.012006904E1,-6.544342041E-1,9.623489380E0,-8.523422241E0
1.012510444E1,-6.759490967E-1,9.590103149E0,-8.537246704E0
1.013013984E1,-7.000274658E-1,9.610580444E0,-8.551406860E0
1.013517525E1,-6.855926514E-1,9.611602783E0,-8.535919189E0
1.014021064E1,-6.793212891E-1,9.622085571E0,-8.611282349E0
1.014524604E1,-6.701507568E-1,9.599319458E0,-8.534774780E0
1.015028145E1,-6.715393066E-1,9.636764526E0,-8.522384644E0
1.015531685E1,-6.872558594E-1,9.595504761E0,-8.537582397E0
1.016035225E1,-6.861419678E-1,9.630310059E0,-8.534240723E0
1.016538765E1,-6.588287354E-1,9.612396240E0,-8.527145386E0
1.017042305E1,-6.961669922E-1,9.620468140E0,-8.538192749E0
1.017545845E1,-6.819458008E-1,9.629989624E0,-8.586563110E0
1.018049385E1,-6.394500732E-1,9.595565796E0,-8.558517456E0
1.018552925E1,-6.713104248E-1,9.618194580E0,-8.564804077E0
1.019056465E1,-6.267700195E-1,9.653976440E0,-8.555419922E0
1.019560005E1,-7.023773193E-1,9.620880127E0,-8.536193848E0
1.020063545E1,-6.549987793E-1,9.623260498E0,-8.515396118E0
1.020567085E1,-6.506042480E-1,9.623336792E0,-8.555236816E0
1.021070625E1,-6.672515869E-1,9.627426147E0,-8.547927856E0
1.021574165E1,-6.763916016E-1,9.609405518E0,-8.540802002E0
1.022077705E1,-6.745605469E-1,9.621688843E0,-8.593048096E0
1.022581245E1,-6.811218262E-1,9.635955811E0,-8.536605835E0
1.023084785E1,-6.393432617E-1,9.609924316E0,-8.501419067E0
1.023588325E1,-6.544189453E-1,9.621505737E0,-8.516021729E0
1.024091865E1,-6.752471924E-1,9.605575562E0,-8.557266235E0
1.024595405E1,-6.593933105E-1,9.663848877E0,-8.527969360E0
1.025098945E1,-6.372833252E-1,9.609634399E0,-8.536346436E0
1.025602485E1,-6.644744873E-1,9.684844971E0,-8.524169922E0
