"Time (s)","Gyroscope x (rad/s)","Gyroscope y (rad/s)","Gyroscope z (rad/s)"
3.765695820E-1,-6.072998047E-3,-9.002685547E-3,5.981445312E-3
3.816049820E-1,-4.074096680E-3,-1.181030273E-2,5.432128906E-3
3.866403820E-1,-3.555297852E-3,-9.597778320E-3,5.828857422E-3
3.916757830E-1,-5.325317383E-3,-2.151489258E-3,5.828857422E-3
3.967111830E-1,-6.072998047E-3,2.273559570E-3,5.828857422E-3
4.017465840E-1,-3.952026367E-3,-3.372192383E-3,6.546020508E-3
4.067819840E-1,-2.166748047E-3,-9.460449219E-3,6.896972656E-3
4.118173840E-1,-3.997802734E-3,-5.050659180E-3,6.179809570E-3
4.168527850E-1,-6.500244141E-3,5.813598633E-3,5.096435547E-3
4.218881850E-1,-7.904052734E-3,1.017761230E-2,4.013061523E-3
4.269235860E-1,-6.698608398E-3,3.692626953E-3,3.692626953E-3
4.319589860E-1,-4.562377930E-3,-2.151489258E-3,2.944946289E-3
4.369943860E-1,-5.493164062E-3,-2.624511719E-3,1.861572266E-3
4.420297870E-1,-6.072998047E-3,1.602172852E-3,2.349853516E-3
4.470651870E-1,-5.279541016E-3,3.021240234E-3,2.624511719E-3
4.521005870E-1,-4.211425781E-3,1.419067383E-3,3.433227539E-3
4.571359880E-1,-3.128051758E-3,6.103515625E-5,3.692626953E-3
4.621713880E-1,-2.868652344E-3,2.273559570E-3,2.883911133E-3
4.672067890E-1,-2.868652344E-3,1.342773438E-3,2.624511719E-3
4.722421890E-1,-2.029418945E-3,-2.487182617E-3,4.318237305E-3
4.772775890E-1,-2.655029297E-3,-8.392333984E-4,5.615234375E-3
4.823129900E-1,-2.868652344E-3,3.250122070E-3,5.828857422E-3
4.873483900E-1,-2.868652344E-3,6.698608398E-3,4.959106445E-3
4.923837910E-1,-1.998901367E-3,4.653930664E-3,3.890991211E-3
4.974191910E-1,-1.800537109E-3,-1.235961914E-3,3.692626953E-3
5.024545910E-1,-9.155273438E-4,-2.319335938E-3,4.592895508E-3
5.074899920E-1,-2.563476562E-3,1.312255859E-3,5.676269531E-3
5.125253920E-1,-1.953125000E-3,1.953125000E-3,3.997802734E-3
5.175607930E-1,-8.850097656E-4,2.868652344E-3,9.307861328E-4
5.225961930E-1,1.983642578E-4,2.075195312E-3,4.882812500E-4
5.276315930E-1,3.356933594E-4,1.953125000E-3,4.882812500E-4
5.326669940E-1,2.243041992E-3,3.051757812E-5,-4.577636719E-4
5.377023940E-1,2.471923828E-3,-2.120971680E-3,1.358032227E-3
5.427377940E-1,1.495361328E-3,-3.814697266E-4,5.950927734E-4
5.477731950E-1,1.403808594E-3,1.770019531E-3,-1.464843750E-3
5.528085950E-1,2.395629883E-3,4.928588867E-3,3.509521484E-4
5.578439960E-1,3.463745117E-3,3.143310547E-3,-5.035400391E-4
5.628793960E-1,3.540039062E-3,9.918212891E-4,-1.586914062E-3
5.679147960E-1,1.495361328E-3,8.850097656E-4,-2.655029297E-3
5.729501970E-1,2.426147461E-3,8.850097656E-4,-1.678466797E-3
5.779855970E-1,4.547119141E-3,-1.678466797E-4,4.425048828E-4
5.830209980E-1,4.608154297E-3,1.907348633E-3,-5.493164062E-4
5.880563980E-1,3.540039062E-3,1.953125000E-3,-5.798339844E-4
5.930917980E-1,2.471923828E-3,-1.251220703E-3,-5.798339844E-4
5.981271990E-1,1.403808594E-3,-2.319335938E-3,-5.798339844E-4
6.031625990E-1,2.502441406E-3,-2.288818359E-3,-1.647949219E-3
6.081980000E-1,4.562377930E-3,-1.525878906E-4,-1.647949219E-3
6.132334000E-1,3.570556641E-3,8.850097656E-4,-1.724243164E-3
6.182688000E-1,4.653930664E-3,7.781982422E-4,-3.829956055E-3
6.233042010E-1,5.722045898E-3,-1.495361328E-3,-4.959106445E-3
6.283396010E-1,6.744384766E-3,-5.462646484E-3,-7.049560547E-3
6.333750020E-1,6.652832031E-3,-4.302978516E-3,-8.056640625E-3
6.384104020E-1,5.584716797E-3,-2.243041992E-3,-8.056640625E-3
6.434458020E-1,4.699707031E-3,-1.449584961E-3,-8.148193359E-3
6.484812030E-1,5.874633789E-3,-3.601074219E-3,-8.911132812E-3
6.535166030E-1,7.919311523E-3,-5.416870117E-3,-7.095336914E-3
6.585520030E-1,8.743286133E-3,-3.967285156E-3,-8.056640625E-3
6.635874040E-1,7.812500000E-3,-6.103515625E-5,-8.316040039E-3
6.686228040E-1,7.949829102E-3,4.425048828E-4,-9.902954102E-3
6.736582050E-1,9.017944336E-3,-2.471923828E-3,-8.056640625E-3
6.786936050E-1,9.780883789E-3,-3.555297852E-3,-8.209228516E-3
6.837290050E-1,8.880615234E-3,-4.806518555E-3,-9.292602539E-3
6.887644060E-1,9.048461914E-3,-6.591796875E-3,-1.019287109E-2
6.937998060E-1,9.750366211E-3,-6.408691406E-3,-1.037597656E-2
6.988352070E-1,8.880615234E-3,-4.928588867E-3,-1.104736328E-2
7.038706070E-1,8.666992188E-3,-1.281738281E-3,-1.039123535E-2
7.089060070E-1,8.026123047E-3,2.578735352E-3,-1.126098633E-2
7.139414080E-1,9.323120117E-3,4.272460938E-4,-1.126098633E-2
7.189768080E-1,1.101684570E-2,-1.495361328E-3,-1.101684570E-2
7.240122090E-1,1.051330566E-2,-2.075195312E-3,-9.933471680E-3
7.290476090E-1,9.124755859E-3,-4.882812500E-4,-8.605957031E-3
7.340830090E-1,9.948730469E-3,2.731323242E-3,-6.454467773E-3
7.391184100E-1,1.020812988E-2,5.676269531E-3,-5.371093750E-3
7.441538100E-1,1.072692871E-2,6.439208984E-3,-6.698608398E-3
7.491892110E-1,1.023864746E-2,2.914428711E-3,-5.920410156E-3
7.542246110E-1,1.071166992E-2,4.119873047E-4,-6.210327148E-3
7.592600110E-1,9.628295898E-3,2.563476562E-3,-6.988525391E-3
7.642954120E-1,8.880615234E-3,4.730224609E-3,-6.652832031E-3
7.693308120E-1,9.201049805E-3,5.889892578E-3,-5.920410156E-3
7.743662120E-1,9.948730469E-3,4.470825195E-3,-6.591796875E-3
7.794016130E-1,9.948730469E-3,2.655029297E-3,-7.690429688E-3
7.844370130E-1,9.948730469E-3,2.655029297E-3,-7.339477539E-3
7.894724140E-1,9.567260742E-3,4.455566406E-3,-8.422851562E-3
7.945078140E-1,8.880615234E-3,5.157470703E-3,-8.361816406E-3
7.995432140E-1,8.880615234E-3,5.920410156E-3,-7.369995117E-3
8.045786150E-1,8.880615234E-3,8.483886719E-3,-8.056640625E-3
8.096140150E-1,9.689331055E-3,1.089477539E-2,-8.865356445E-3
8.146494160E-1,1.101684570E-2,9.887695312E-3,-9.353637695E-3
8.196848160E-1,1.185607910E-2,5.584716797E-3,-8.056640625E-3
8.247202160E-1,1.271057129E-2,4.776000977E-3,-8.483886719E-3
8.297556170E-1,1.072692871E-2,9.078979492E-3,-8.666992188E-3
8.347910170E-1,9.338378906E-3,1.339721680E-2,-7.583618164E-3
8.398264180E-1,9.948730469E-3,1.441955566E-2,-6.042480469E-3
8.448618180E-1,9.948730469E-3,1.118469238E-2,-4.852294922E-3
8.498972180E-1,1.091003418E-2,8.453369141E-3,-5.813598633E-3
8.549326190E-1,1.208496094E-2,7.781982422E-3,-5.996704102E-3
8.599680190E-1,1.107788086E-2,9.857177734E-3,-4.348754883E-3
8.650034190E-1,9.948730469E-3,1.257324219E-2,-3.784179688E-3
8.700388200E-1,9.948730469E-3,1.316833496E-2,-3.784179688E-3
8.750742200E-1,1.046752930E-2,1.263427734E-2,-2.716064453E-3
8.801096210E-1,1.155090332E-2,1.263427734E-2,-1.647949219E-3
8.851450210E-1,1.098632812E-2,1.208496094E-2,-2.182006836E-3
8.901804210E-1,1.049804688E-2,1.156616211E-2,-2.716064453E-3
8.952158220E-1,1.158142090E-2,1.098632812E-2,-3.280639648E-3
9.002512220E-1,1.150512695E-2,1.280212402E-2,-2.624511719E-3
9.052866230E-1,1.042175293E-2,1.652526855E-2,-1.647949219E-3
9.103220230E-1,9.353637695E-3,1.678466797E-2,-2.227783203E-3
9.153574230E-1,8.880615234E-3,1.461791992E-2,-2.105712891E-3
9.203928240E-1,7.644653320E-3,1.307678223E-2,-1.647949219E-3
9.254282240E-1,6.118774414E-3,1.387023926E-2,-2.258300781E-3
9.304636250E-1,6.301879883E-3,1.666259766E-2,-3.967285156E-3
9.354990250E-1,6.088256836E-3,1.731872559E-2,-5.493164062E-3
9.405344250E-1,5.676269531E-3,1.690673828E-2,-5.264282227E-3
9.455698260E-1,4.348754883E-3,1.690673828E-2,-4.180908203E-3
9.506052260E-1,4.867553711E-3,1.756286621E-2,-4.440307617E-3
9.556406270E-1,4.989624023E-3,1.864624023E-2,-5.523681641E-3
9.606760270E-1,4.608154297E-3,1.904296875E-2,-5.920410156E-3
9.657114270E-1,4.608154297E-3,1.904296875E-2,-5.218505859E-3
9.707468280E-1,5.310058594E-3,1.904296875E-2,-4.852294922E-3
9.757822280E-1,4.959106445E-3,2.046203613E-2,-4.852294922E-3
9.808176280E-1,3.875732422E-3,2.189636230E-2,-4.119873047E-3
9.858530290E-1,4.272460938E-3,1.930236816E-2,-3.036499023E-3
9.908884290E-1,6.088256836E-3,1.647949219E-2,-2.716064453E-3
9.959238300E-1,6.744384766E-3,1.507568359E-2,-1.953125000E-3
1.000959230E0,5.966186523E-3,1.629638672E-2,-8.697509766E-4
1.005994630E0,7.217407227E-3,1.844787598E-2,1.983642578E-4
1.011030031E0,6.240844727E-3,1.747131348E-2,1.281738281E-3
1.016065431E0,4.882812500E-3,1.611328125E-2,7.781982422E-4
1.021100832E0,3.005981445E-3,1.583862305E-2,4.882812500E-4
1.026136232E0,2.471923828E-3,1.745605469E-2,-3.204345703E-4
1.031171632E0,8.239746094E-4,1.878356934E-2,1.068115234E-3
1.036207033E0,2.822875977E-3,1.904296875E-2,2.395629883E-3
1.041242433E0,3.540039062E-3,1.904296875E-2,9.765625000E-4
1.046277834E0,2.685546875E-3,1.988220215E-2,1.342773438E-3
1.051313234E0,7.476806641E-4,1.924133301E-2,1.556396484E-3
1.056348634E0,3.356933594E-4,1.904296875E-2,1.556396484E-3
1.061384035E0,1.205444336E-3,1.815795898E-2,1.556396484E-3
1.066419435E0,-3.814697266E-4,1.885986328E-2,6.713867188E-4
1.071454836E0,-7.324218750E-4,1.992797852E-2,1.388549805E-3
1.076490236E0,-7.324218750E-4,1.919555664E-2,6.561279297E-4
1.081525636E0,1.831054688E-4,1.811218262E-2,-4.272460938E-4
1.086561037E0,-5.950927734E-4,1.982116699E-2,-1.495361328E-3
1.091596437E0,-7.324218750E-4,2.104187012E-2,-7.019042969E-4
1.096631837E0,-1.678466797E-3,2.210998535E-2,-5.798339844E-4
1.101667238E0,-1.800537109E-3,2.128601074E-2,-1.525878906E-3
1.106702638E0,-1.800537109E-3,2.020263672E-2,3.051757812E-4
1.111738039E0,-1.800537109E-3,2.206420898E-2,4.882812500E-4
1.116773439E0,-2.792358398E-3,2.420043945E-2,4.882812500E-4
1.121808839E0,-3.860473633E-3,2.438354492E-2,1.480102539E-3
1.126844240E0,6.103515625E-5,1.835632324E-2,2.563476562E-3
1.131879640E0,3.356933594E-4,1.695251465E-2,6.103515625E-4
1.136915041E0,-6.866455078E-4,2.507019043E-2,4.882812500E-4
1.141950441E0,-1.770019531E-3,3.161621094E-2,4.882812500E-4
1.146985841E0,2.746582031E-4,2.976989746E-2,3.616333008E-3
1.152021242E0,2.426147461E-3,2.447509766E-2,4.745483398E-3
1.157056642E0,2.471923828E-3,2.331542969E-2,5.828857422E-3
1.162092043E0,3.356933594E-4,2.865600586E-2,4.760742188E-3
1.167127443E0,-7.324218750E-4,3.073120117E-2,3.707885742E-3
1.172162843E0,3.356933594E-4,2.645874023E-2,4.760742188E-3
1.177198244E0,2.593994141E-4,2.340698242E-2,4.730224609E-3
1.182233644E0,-1.846313477E-3,2.651977539E-2,3.692626953E-3
1.187269044E0,-2.777099609E-3,2.627563477E-2,3.692626953E-3
1.192304445E0,-7.324218750E-4,2.105712891E-2,3.753662109E-3
1.197339845E0,-8.850097656E-4,1.904296875E-2,4.699707031E-3
1.202375246E0,-2.960205078E-3,1.934814453E-2,3.616333008E-3
1.207410646E0,-4.028320312E-3,2.313232422E-2,2.624511719E-3
1.212446046E0,-4.913330078E-3,2.078247070E-2,2.532958984E-3
1.217481447E0,-3.845214844E-3,1.669311523E-2,1.556396484E-3
1.222516847E0,-3.112792969E-3,1.512145996E-2,1.449584961E-3
1.227552248E0,-5.004882812E-3,1.797485352E-2,3.662109375E-4
1.232587648E0,-4.882812500E-3,1.783752441E-2,-5.798339844E-4
1.237623048E0,-3.936767578E-3,1.675415039E-2,-5.798339844E-4
1.242658449E0,-3.936767578E-3,1.597595215E-2,-5.798339844E-4
1.247693849E0,-4.104614258E-3,1.705932617E-2,-5.798339844E-4
1.252729250E0,-4.669189453E-3,1.797485352E-2,-5.798339844E-4
1.257764650E0,-2.868652344E-3,1.760864258E-2,-5.798339844E-4
1.262800050E0,-3.067016602E-3,1.583862305E-2,-7.629394531E-4
1.267835451E0,-4.150390625E-3,1.623535156E-2,-1.647949219E-3
1.272870851E0,-4.806518555E-3,1.797485352E-2,-1.434326172E-3
1.277906252E0,-3.723144531E-3,1.797485352E-2,-5.798339844E-4
1.282941652E0,-2.868652344E-3,1.750183105E-2,-5.798339844E-4
1.287977052E0,-2.868652344E-3,1.631164551E-2,-5.798339844E-4
1.293012453E0,-2.624511719E-3,1.797485352E-2,-3.204345703E-4
1.298047853E0,-1.800537109E-3,1.719665527E-2,4.882812500E-4
1.303083253E0,-1.541137695E-3,1.449584961E-2,7.629394531E-4
1.308118654E0,-7.324218750E-4,1.425170898E-2,1.556396484E-3
1.313154054E0,-1.327514648E-3,1.641845703E-2,1.861572266E-3
1.318189455E0,-3.479003906E-3,1.856994629E-2,2.029418945E-3
1.323224855E0,-3.768920898E-3,1.762390137E-2,4.882812500E-4
1.328260255E0,-1.052856445E-3,9.994506836E-3,4.882812500E-4
1.333295656E0,-2.136230469E-3,7.827758789E-3,-1.525878906E-4
1.338331056E0,-3.540039062E-3,1.321411133E-2,-2.639770508E-3
1.343366457E0,-4.669189453E-3,1.521301270E-2,-4.501342773E-3
1.348401857E0,-3.265380859E-3,9.155273438E-3,-3.784179688E-3
1.353437257E0,-2.166748047E-3,4.806518555E-3,-4.501342773E-3
1.358472658E0,-3.616333008E-3,9.552001953E-3,-5.920410156E-3
1.363508058E0,-4.638671875E-3,1.545715332E-2,-6.286621094E-3
1.368543459E0,-3.158569336E-3,1.124572754E-2,-6.591796875E-3
1.373578859E0,-1.800537109E-3,3.952026367E-3,-6.317138672E-3
1.378614259E0,-2.624511719E-3,4.409790039E-3,-6.988525391E-3
1.383649660E0,-3.936767578E-3,1.086425781E-2,-6.988525391E-3
1.388685060E0,-3.082275391E-3,1.390075684E-2,-6.988525391E-3
1.393720461E0,-1.800537109E-3,1.043701172E-2,-6.988525391E-3
1.398755861E0,-9.155273438E-4,6.835937500E-3,-7.431030273E-3
1.403791261E0,-1.373291016E-4,7.141113281E-3,-8.514404297E-3
1.408826662E0,-7.324218750E-4,7.888793945E-3,-8.651733398E-3
1.413862062E0,-1.220703125E-3,7.766723633E-3,-8.056640625E-3
1.418897462E0,-1.800537109E-3,9.338378906E-3,-8.544921875E-3
1.423932863E0,-1.800537109E-3,1.049804688E-2,-9.124755859E-3
1.428968263E0,-1.296997070E-3,8.972167969E-3,-8.102416992E-3
1.434003664E0,2.899169922E-4,6.774902344E-3,-6.469726562E-3
1.439039064E0,3.356933594E-4,6.225585938E-3,-6.973266602E-3
1.444074464E0,-7.324218750E-4,7.827758789E-3,-8.590698242E-3
1.449109865E0,-1.983642578E-4,9.429931641E-3,-8.575439453E-3
1.454145265E0,8.850097656E-4,8.316040039E-3,-8.056640625E-3
1.459180666E0,1.953125000E-3,6.164550781E-3,-8.056640625E-3
1.464216066E0,7.476806641E-4,6.286621094E-3,-8.056640625E-3
1.469251466E0,-7.324218750E-4,6.713867188E-3,-8.621215820E-3
1.474286867E0,-1.525878906E-4,5.035400391E-3,-9.124755859E-3
1.479322267E0,3.356933594E-4,5.279541016E-3,-9.124755859E-3
1.484357668E0,3.356933594E-4,6.225585938E-3,-1.033020020E-2
1.489393068E0,3.356933594E-4,5.599975586E-3,-1.126098633E-2
1.494428468E0,-3.051757812E-4,3.890991211E-3,-1.062011719E-2
1.499463869E0,-1.068115234E-4,1.739501953E-3,-1.081848145E-2
1.504499269E0,9.765625000E-4,1.525878906E-3,-1.126098633E-2
1.509534669E0,1.403808594E-3,1.953125000E-3,-1.060485840E-2
1.514570070E0,1.403808594E-3,1.281738281E-3,-1.019287109E-2
1.519605470E0,2.075195312E-3,-4.730224609E-4,-1.019287109E-2
1.524640871E0,2.471923828E-3,-5.798339844E-4,-1.086425781E-2
1.529676271E0,1.083374023E-3,-1.831054688E-4,-1.126098633E-2
1.534711671E0,3.356933594E-4,-1.831054688E-4,-1.126098633E-2
1.539747072E0,1.037597656E-3,-1.617431641E-3,-1.126098633E-2
1.544782472E0,2.120971680E-3,-3.051757812E-3,-1.126098633E-2
1.549817873E0,2.471923828E-3,-1.937866211E-3,-1.052856445E-2
1.554853273E0,1.724243164E-3,-5.187988281E-4,-1.092529297E-2
1.559888673E0,2.151489258E-3,-9.460449219E-4,-1.049804688E-2
1.564924074E0,2.471923828E-3,-2.777099609E-3,-8.666992188E-3
1.569959474E0,2.471923828E-3,-3.387451172E-3,-8.056640625E-3
1.574994875E0,3.234863281E-3,-3.387451172E-3,-8.056640625E-3
1.580030275E0,4.318237305E-3,-2.609252930E-3,-8.056640625E-3
1.585065675E0,3.005981445E-3,-7.324218750E-4,-8.850097656E-3
1.590101076E0,1.663208008E-3,-1.785278320E-3,-9.124755859E-3
1.595136476E0,3.021240234E-3,-4.760742188E-3,-9.124755859E-3
1.600171877E0,3.540039062E-3,-7.995605469E-3,-9.124755859E-3
1.605207277E0,3.540039062E-3,-7.904052734E-3,-8.285522461E-3
1.610242677E0,1.007080078E-3,-4.302978516E-3,-8.056640625E-3
1.615278078E0,2.029418945E-3,-1.693725586E-3,-7.202148438E-3
1.620313478E0,3.326416016E-3,-3.845214844E-3,-7.843017578E-3
1.625348878E0,2.670288086E-3,-8.789062500E-3,-9.780883789E-3
1.630384279E0,4.226684570E-3,-1.156616211E-2,-9.307861328E-3
1.635419679E0,3.707885742E-3,-9.277343750E-3,-9.124755859E-3
1.640455080E0,3.540039062E-3,-3.341674805E-3,-1.000976562E-2
1.645490480E0,1.724243164E-3,-5.187988281E-4,-8.377075195E-3
1.650525880E0,2.304077148E-3,-3.799438477E-3,-8.056640625E-3
1.655561281E0,4.302978516E-3,-8.148193359E-3,-8.056640625E-3
1.660596681E0,3.662109375E-3,-1.060485840E-2,-7.110595703E-3
1.665632082E0,3.540039062E-3,-9.933471680E-3,-6.988525391E-3
1.670667482E0,3.540039062E-3,-7.904052734E-3,-6.988525391E-3
1.675702882E0,2.563476562E-3,-4.776000977E-3,-7.949829102E-3
1.680738283E0,2.471923828E-3,-6.408691406E-3,-8.056640625E-3
1.685773683E0,4.425048828E-3,-1.152038574E-2,-6.088256836E-3
1.690809084E0,5.584716797E-3,-1.391601562E-2,-5.920410156E-3
1.695844484E0,5.676269531E-3,-1.208496094E-2,-5.920410156E-3
1.700879884E0,3.646850586E-3,-6.896972656E-3,-5.920410156E-3
1.705915285E0,3.540039062E-3,-4.562377930E-3,-4.898071289E-3
1.710950685E0,3.540039062E-3,-7.553100586E-3,-4.852294922E-3
1.715986086E0,5.599975586E-3,-1.284790039E-2,-4.852294922E-3
1.721021486E0,5.676269531E-3,-1.405334473E-2,-4.852294922E-3
1.726056886E0,4.608154297E-3,-1.196289062E-2,-6.958007812E-3
1.731092287E0,4.608154297E-3,-8.758544922E-3,-6.988525391E-3
1.736127687E0,4.608154297E-3,-8.758544922E-3,-6.988525391E-3
1.741163087E0,4.608154297E-3,-1.196289062E-2,-6.973266602E-3
1.746198488E0,5.676269531E-3,-1.412963867E-2,-5.935668945E-3
1.751233888E0,5.676269531E-3,-1.625061035E-2,-6.942749023E-3
1.756269289E0,5.722045898E-3,-1.722717285E-2,-5.920410156E-3
1.761304689E0,6.683349609E-3,-1.603698730E-2,-5.859375000E-3
1.766340089E0,5.737304688E-3,-1.286315918E-2,-4.913330078E-3
1.771375490E0,6.744384766E-3,-1.095581055E-2,-5.828857422E-3
1.776410890E0,6.744384766E-3,-1.219177246E-2,-4.760742188E-3
1.781446291E0,6.835937500E-3,-1.495361328E-2,-3.784179688E-3
1.786481691E0,7.705688477E-3,-1.280212402E-2,-3.875732422E-3
1.791517091E0,6.622314453E-3,-1.086425781E-2,-4.730224609E-3
1.796552492E0,5.676269531E-3,-1.098632812E-2,-3.540039062E-3
1.801587892E0,5.676269531E-3,-1.206970215E-2,-1.770019531E-3
1.806623293E0,5.798339844E-3,-1.313781738E-2,-2.716064453E-3
1.811658693E0,6.591796875E-3,-1.393127441E-2,-2.563476562E-3
1.816694093E0,5.828857422E-3,-1.254272461E-2,-1.327514648E-3
1.821729494E0,6.408691406E-3,-9.643554688E-3,3.356933594E-4
1.826764894E0,4.959106445E-3,-9.094238281E-3,-5.798339844E-4
1.831800294E0,6.744384766E-3,-1.142883301E-2,-3.814697266E-4
1.836835695E0,6.347656250E-3,-1.368713379E-2,4.882812500E-4
1.841871095E0,4.394531250E-3,-1.173400879E-2,7.019042969E-4
1.846906496E0,3.952026367E-3,-1.045227051E-2,1.556396484E-3
1.851941896E0,5.676269531E-3,-9.185791016E-3,1.342773438E-3
1.856977296E0,5.905151367E-3,-1.133728027E-2,9.613037109E-4
1.862012697E0,6.500244141E-3,-1.228332520E-2,2.868652344E-3
1.867048097E0,5.416870117E-3,-9.796142578E-3,3.448486328E-3
1.872083498E0,4.867553711E-3,-9.796142578E-3,2.105712891E-3
1.877118898E0,5.676269531E-3,-1.007080078E-2,2.288818359E-4
1.882154298E0,6.225585938E-3,-1.058959961E-2,-1.525878906E-5
1.887189699E0,7.232666016E-3,-9.521484375E-3,1.556396484E-3
1.892225099E0,5.371093750E-3,-9.338378906E-3,1.556396484E-3
1.897260500E0,4.913330078E-3,-1.118469238E-2,2.487182617E-3
1.902295900E0,5.676269531E-3,-1.130676270E-2,4.135131836E-3
1.907331300E0,5.020141602E-3,-9.475708008E-3,2.304077148E-3
1.912366701E0,3.540039062E-3,-9.078979492E-3,1.556396484E-3
1.917402101E0,3.540039062E-3,-1.084899902E-2,1.556396484E-3
1.922437502E0,3.890991211E-3,-1.264953613E-2,1.922607422E-3
1.927472902E0,4.241943359E-3,-1.193237305E-2,2.624511719E-3
1.932508302E0,3.540039062E-3,-1.156616211E-2,2.624511719E-3
1.937543703E0,3.540039062E-3,-1.126098633E-2,3.402709961E-3
1.942579103E0,3.921508789E-3,-1.193237305E-2,4.379272461E-3
1.947614503E0,4.608154297E-3,-1.193237305E-2,4.104614258E-3
1.952649904E0,3.784179688E-3,-1.193237305E-2,3.952026367E-3
1.957685304E0,2.044677734E-3,-1.152038574E-2,3.463745117E-3
1.962720705E0,1.831054688E-3,-1.043701172E-2,4.333496094E-3
1.967756105E0,2.914428711E-3,-1.025390625E-2,3.692626953E-3
1.972791505E0,3.540039062E-3,-1.132202148E-2,3.692626953E-3
1.977826906E0,3.997802734E-3,-1.147460938E-2,4.165649414E-3
1.982862306E0,4.135131836E-3,-9.933471680E-3,4.760742188E-3
1.987897707E0,3.540039062E-3,-9.216308594E-3,4.760742188E-3
1.992933107E0,3.540039062E-3,-9.796142578E-3,4.272460938E-3
1.997968507E0,2.532958984E-3,-9.307861328E-3,4.196166992E-3
2.003003908E0,2.410888672E-3,-8.728027344E-3,4.760742188E-3
2.008039308E0,3.540039062E-3,-8.728027344E-3,4.760742188E-3
2.013074709E0,3.540039062E-3,-8.728027344E-3,4.241943359E-3
2.018110109E0,2.990722656E-3,-9.277343750E-3,4.241943359E-3
2.023145509E0,2.471923828E-3,-1.034545898E-2,5.310058594E-3
2.028180910E0,2.471923828E-3,-9.750366211E-3,4.714965820E-3
2.033216310E0,2.471923828E-3,-8.163452148E-3,2.563476562E-3
2.038251711E0,3.036499023E-3,-7.095336914E-3,2.136230469E-3
2.043287111E0,3.540039062E-3,-7.766723633E-3,3.799438477E-3
2.048322511E0,3.540039062E-3,-9.338378906E-3,4.165649414E-3
2.053357912E0,2.929687500E-3,-9.201049805E-3,3.692626953E-3
2.058393312E0,2.471923828E-3,-8.117675781E-3,4.318237305E-3
2.063428712E0,2.471923828E-3,-7.659912109E-3,3.524780273E-3
2.068464113E0,1.831054688E-3,-8.300781250E-3,3.265380859E-3
2.073499513E0,1.403808594E-3,-8.728027344E-3,3.692626953E-3
2.078534914E0,1.403808594E-3,-8.087158203E-3,3.051757812E-3
2.083570314E0,1.403808594E-3,-7.003784180E-3,1.968383789E-3
2.088605714E0,2.059936523E-3,-7.263183594E-3,1.556396484E-3
2.093641115E0,1.785278320E-3,-6.988525391E-3,2.243041992E-3
2.098676515E0,7.019042969E-4,-5.905151367E-3,1.937866211E-3
2.103711916E0,3.356933594E-4,-5.523681641E-3,1.556396484E-3
2.108747316E0,1.754760742E-3,-5.523681641E-3,1.556396484E-3
2.113782716E0,2.471923828E-3,-5.523681641E-3,1.556396484E-3
2.118818117E0,2.471923828E-3,-6.973266602E-3,1.556396484E-3
2.123853517E0,2.593994141E-4,-4.730224609E-3,2.304077148E-3
2.128888918E0,7.476806641E-4,-1.907348633E-3,1.892089844E-3
2.133924318E0,2.151489258E-3,-1.251220703E-3,8.087158203E-4
2.138959718E0,1.708984375E-3,-2.777099609E-3,-2.593994141E-4
2.143995119E0,2.166748047E-3,-2.624511719E-3,1.983642578E-4
2.149030519E0,3.250122070E-3,1.525878906E-5,1.281738281E-3
2.154065919E0,2.746582031E-3,8.850097656E-4,1.556396484E-3
2.159101320E0,2.471923828E-3,7.629394531E-5,1.556396484E-3
2.164136720E0,2.471923828E-3,-1.831054688E-4,2.380371094E-3
2.169172121E0,2.471923828E-3,6.256103516E-4,2.624511719E-3
2.174207521E0,1.632690430E-3,-7.934570312E-4,1.800537109E-3
2.179242921E0,2.243041992E-3,-1.251220703E-3,1.556396484E-3
2.184278322E0,1.617431641E-3,-2.960205078E-3,7.171630859E-4
2.189313722E0,1.403808594E-3,-1.678466797E-3,4.882812500E-4
2.194349123E0,1.403808594E-3,4.730224609E-4,1.358032227E-3
2.199384523E0,2.273559570E-3,0.000000000E0,6.866455078E-4
2.204419923E0,6.866455078E-4,-1.968383789E-3,-3.967285156E-4
2.209455324E0,3.356933594E-4,-2.319335938E-3,3.204345703E-4
2.214490724E0,3.356933594E-4,-5.187988281E-4,-4.119873047E-4
2.219526125E0,3.356933594E-4,-1.831054688E-4,3.356933594E-4
2.224561525E0,3.356933594E-4,-1.831054688E-4,-1.358032227E-3
2.229596925E0,1.266479492E-3,-1.831054688E-4,-7.019042969E-4
2.234632326E0,4.577636719E-4,7.476806641E-4,-5.798339844E-4
2.239667726E0,3.356933594E-4,1.831054688E-3,-5.798339844E-4
2.244703127E0,1.296997070E-3,9.765625000E-4,-1.541137695E-3
2.249738527E0,1.403808594E-3,8.850097656E-4,-1.647949219E-3
2.254773927E0,1.403808594E-3,-1.068115234E-4,-1.647949219E-3
2.259809328E0,4.119873047E-4,1.785278320E-3,-2.624511719E-3
2.264844728E0,1.327514648E-3,9.460449219E-4,-1.708984375E-3
2.269880128E0,1.403808594E-3,2.899169922E-3,-1.647949219E-3
2.274915529E0,2.410888672E-3,1.998901367E-3,-6.256103516E-4
2.279950929E0,3.494262695E-3,9.155273438E-4,-1.602172852E-3
2.284986330E0,1.464843750E-3,1.907348633E-3,-1.647949219E-3
2.290021730E0,1.403808594E-3,4.028320312E-3,-1.647949219E-3
2.295057130E0,-7.171630859E-4,4.089355469E-3,-1.647949219E-3
2.300092531E0,3.204345703E-4,3.021240234E-3,-1.647949219E-3
2.305127931E0,3.356933594E-4,4.089355469E-3,-1.647949219E-3
2.310163332E0,1.403808594E-3,4.074096680E-3,-3.768920898E-3
2.315198732E0,2.471923828E-3,2.990722656E-3,-2.685546875E-3
2.320234132E0,2.426147461E-3,1.907348633E-3,-1.602172852E-3
2.325269533E0,1.312255859E-3,9.155273438E-4,-6.561279297E-4
2.330304933E0,-6.866455078E-4,2.044677734E-3,-2.761840820E-3
2.335340334E0,3.967285156E-4,4.013061523E-3,-3.845214844E-3
2.340375734E0,1.327514648E-3,2.868652344E-3,-4.776000977E-3
2.345411134E0,4.119873047E-4,9.613037109E-4,-3.784179688E-3
2.350446535E0,1.403808594E-3,1.953125000E-3,-3.784179688E-3
2.355481935E0,1.296997070E-3,2.136230469E-3,-3.677368164E-3
2.360517336E0,4.272460938E-4,4.089355469E-3,-2.914428711E-3
2.365552736E0,1.403808594E-3,3.967285156E-3,-4.852294922E-3
2.370588136E0,1.525878906E-3,3.143310547E-3,-4.974365234E-3
2.375623537E0,2.471923828E-3,4.089355469E-3,-5.783081055E-3
2.380658937E0,2.319335938E-3,3.646850586E-3,-4.852294922E-3
2.385694337E0,1.403808594E-3,8.850097656E-4,-4.699707031E-3
2.390729738E0,1.556396484E-3,1.373291016E-3,-3.936767578E-3
2.395765138E0,2.288818359E-3,4.257202148E-3,-4.669189453E-3
2.400800539E0,1.403808594E-3,4.959106445E-3,-3.784179688E-3
2.405835939E0,1.007080078E-3,4.089355469E-3,-3.967285156E-3
2.410871339E0,-5.340576172E-4,4.486083984E-3,-4.852294922E-3
2.415906740E0,5.340576172E-4,6.423950195E-3,-4.852294922E-3
2.420942140E0,1.403808594E-3,7.293701172E-3,-4.623413086E-3
2.425977541E0,1.403808594E-3,7.049560547E-3,-4.013061523E-3
2.431012941E0,1.159667969E-3,5.981445312E-3,-4.608154297E-3
2.436048341E0,3.356933594E-4,5.645751953E-3,-3.524780273E-3
2.441083742E0,3.356933594E-4,7.553100586E-3,-2.716064453E-3
2.446119142E0,3.356933594E-4,8.361816406E-3,-2.716064453E-3
2.451154543E0,3.356933594E-4,8.361816406E-3,-2.990722656E-3
2.456189943E0,6.103515625E-4,7.781982422E-3,-3.784179688E-3
2.461225343E0,1.098632812E-3,6.515502930E-3,-3.784179688E-3
2.466260744E0,3.356933594E-4,6.973266602E-3,-4.394531250E-3
2.471296144E0,6.408691406E-4,7.156372070E-3,-5.599975586E-3
2.476331544E0,1.724243164E-3,8.438110352E-3,-4.516601562E-3
2.481366945E0,2.471923828E-3,6.225585938E-3,-3.784179688E-3
2.486402345E0,2.471923828E-3,6.561279297E-3,-3.784179688E-3
2.491437746E0,2.105712891E-3,6.576538086E-3,-3.417968750E-3
2.496473146E0,1.754760742E-3,5.508422852E-3,-2.716064453E-3
2.501508546E0,2.838134766E-3,6.958007812E-3,-2.716064453E-3
2.506543947E0,3.143310547E-3,8.743286133E-3,-2.716064453E-3
2.511579347E0,2.471923828E-3,9.033203125E-3,-2.319335938E-3
2.516614748E0,2.471923828E-3,7.949829102E-3,-1.647949219E-3
2.521650148E0,2.868652344E-3,8.102416992E-3,-1.235961914E-3
2.526685548E0,2.700805664E-3,9.002685547E-3,-5.798339844E-4
2.531720949E0,1.403808594E-3,8.361816406E-3,-5.798339844E-4
2.536756349E0,1.403808594E-3,9.231567383E-3,-5.798339844E-4
2.541791750E0,1.403808594E-3,1.049804688E-2,-1.022338867E-3
2.546827150E0,9.460449219E-4,1.049804688E-2,-1.647949219E-3
2.551862550E0,7.934570312E-4,1.002502441E-2,-1.647949219E-3
2.556897951E0,1.403808594E-3,9.429931641E-3,-1.159667969E-3
2.561933351E0,1.403808594E-3,8.941650391E-3,-5.798339844E-4
2.566968752E0,9.155273438E-4,8.361816406E-3,-5.798339844E-4
2.572004152E0,1.342773438E-3,8.361816406E-3,4.425048828E-4
2.577039552E0,1.953125000E-3,8.361816406E-3,5.340576172E-4
2.582074953E0,3.509521484E-4,7.827758789E-3,-4.577636719E-5
2.587110353E0,-7.324218750E-4,7.293701172E-3,-4.577636719E-5
2.592145753E0,3.509521484E-4,7.293701172E-3,-5.798339844E-4
2.597181154E0,1.403808594E-3,7.843017578E-3,-1.525878906E-5
2.602216554E0,1.403808594E-3,8.361816406E-3,-6.103515625E-5
2.607251955E0,1.968383789E-3,8.926391602E-3,5.798339844E-4
2.612287355E0,2.471923828E-3,9.429931641E-3,1.556396484E-3
2.617322755E0,1.876831055E-3,9.429931641E-3,1.556396484E-3
2.622358156E0,1.998901367E-3,9.429931641E-3,1.556396484E-3
2.627393556E0,2.471923828E-3,9.429931641E-3,1.556396484E-3
2.632428957E0,1.846313477E-3,9.429931641E-3,2.182006836E-3
2.637464357E0,7.629394531E-4,1.005554199E-2,1.998901367E-3
2.642499757E0,9.613037109E-4,1.112365723E-2,9.307861328E-4
2.647535158E0,7.476806641E-4,1.220703125E-2,1.144409180E-3
2.652570558E0,9.918212891E-4,1.196289062E-2,1.556396484E-3
2.657605959E0,1.403808594E-3,1.156616211E-2,1.556396484E-3
2.662641359E0,1.403808594E-3,1.156616211E-2,1.556396484E-3
2.667676759E0,2.075195312E-3,1.223754883E-2,1.556396484E-3
2.672712160E0,1.068115234E-3,1.193237305E-2,2.258300781E-3
2.677747560E0,3.356933594E-4,1.156616211E-2,1.922607422E-3
2.682782961E0,1.037597656E-3,1.084899902E-2,2.273559570E-3
2.687818361E0,1.403808594E-3,1.121520996E-2,2.624511719E-3
2.692853761E0,1.403808594E-3,1.156616211E-2,3.372192383E-3
2.697889162E0,2.136230469E-3,1.156616211E-2,2.960205078E-3
2.702924562E0,1.708984375E-3,1.156616211E-2,2.624511719E-3
2.707959962E0,6.408691406E-4,1.080322266E-2,1.113891602E-3
2.712995363E0,1.098632812E-3,1.126098633E-2,1.266479492E-3
2.718030763E0,1.403808594E-3,1.077270508E-2,1.556396484E-3
2.723066164E0,2.990722656E-3,1.049804688E-2,7.629394531E-4
2.728101564E0,2.731323242E-3,1.210021973E-2,4.882812500E-4
2.733136964E0,1.647949219E-3,1.181030273E-2,1.312255859E-3
2.738172365E0,1.403808594E-3,1.074218750E-2,1.556396484E-3
2.743207765E0,3.067016602E-3,1.049804688E-2,2.395629883E-3
2.748243166E0,2.685546875E-3,1.049804688E-2,1.785278320E-3
2.753278566E0,2.471923828E-3,1.133728027E-2,1.556396484E-3
2.758313966E0,4.180908203E-3,1.156616211E-2,2.426147461E-3
2.763349367E0,5.477905273E-3,1.156616211E-2,1.754760742E-3
2.768384767E0,3.906250000E-3,1.243591309E-2,-1.983642578E-4
2.773420168E0,2.639770508E-3,1.351928711E-2,1.205444336E-3
2.778455568E0,3.356933594E-3,1.370239258E-2,3.341674805E-3
2.783490968E0,3.540039062E-3,1.280212402E-2,2.807617188E-3
2.788526369E0,3.540039062E-3,1.263427734E-2,1.724243164E-3
2.793561769E0,2.609252930E-3,1.170349121E-2,2.487182617E-3
2.798597169E0,6.103515625E-4,1.248168945E-2,2.624511719E-3
2.803632570E0,2.197265625E-3,1.168823242E-2,3.570556641E-3
2.808667970E0,5.798339844E-4,1.249694824E-2,2.761840820E-3
2.813703371E0,1.281738281E-3,1.167297363E-2,3.585815430E-3
2.818738771E0,2.365112305E-3,1.252746582E-2,3.692626953E-3
2.823774171E0,2.471923828E-3,1.359558105E-2,3.692626953E-3
2.828809572E0,3.448486328E-3,1.467895508E-2,3.692626953E-3
2.833844972E0,2.548217773E-3,1.377868652E-2,2.716064453E-3
2.838880373E0,2.471923828E-3,1.370239258E-2,4.638671875E-3
2.843915773E0,4.501342773E-3,1.370239258E-2,3.753662109E-3
2.848951173E0,2.548217773E-3,1.370239258E-2,3.692626953E-3
2.853986574E0,3.494262695E-3,1.370239258E-2,2.670288086E-3
2.859021974E0,3.540039062E-3,1.370239258E-2,2.624511719E-3
2.864057375E0,2.487182617E-3,1.370239258E-2,2.624511719E-3
2.869092775E0,2.471923828E-3,1.473999023E-2,3.677368164E-3
2.874128175E0,3.540039062E-3,1.370239258E-2,3.692626953E-3
2.879163576E0,3.524780273E-3,1.263427734E-2,3.692626953E-3
2.884198682E0,2.471923828E-3,1.266479492E-2,3.662109375E-3
2.889234083E0,2.487182617E-3,1.477050781E-2,1.541137695E-3
2.894269483E0,3.540039062E-3,1.469421387E-2,5.340576172E-4
2.899304883E0,3.494262695E-3,1.258850098E-2,1.556396484E-3
2.904340284E0,2.410888672E-3,1.161193848E-2,1.556396484E-3
2.909375684E0,1.464843750E-3,1.269531250E-2,1.556396484E-3
2.914411084E0,2.471923828E-3,1.362609863E-2,1.495361328E-3
2.919446485E0,2.548217773E-3,1.254272461E-2,6.561279297E-4
2.924481885E0,3.356933594E-3,1.156616211E-2,2.548217773E-3
2.929517286E0,1.403808594E-3,1.165771484E-2,1.556396484E-3
2.934552686E0,1.403808594E-3,1.251220703E-2,1.449584961E-3
2.939588086E0,1.403808594E-3,1.167297363E-2,6.103515625E-4
2.944623487E0,1.403808594E-3,1.263427734E-2,1.556396484E-3
2.949658887E0,1.663208008E-3,1.263427734E-2,1.556396484E-3
2.954694288E0,3.540039062E-3,1.263427734E-2,1.556396484E-3
2.959729688E0,3.540039062E-3,1.278686523E-2,1.403808594E-3
2.964765088E0,3.540039062E-3,1.351928711E-2,1.525878906E-4
2.969800489E0,3.540039062E-3,1.280212402E-2,-1.464843750E-3
2.974835889E0,3.341674805E-3,1.350402832E-2,-3.814697266E-4
2.979871290E0,2.655029297E-3,1.263427734E-2,4.882812500E-4
2.984906690E0,3.326416016E-3,1.263427734E-2,2.899169922E-4
2.989942090E0,2.670288086E-3,1.263427734E-2,-3.662109375E-4
2.994977491E0,3.311157227E-3,1.217651367E-2,2.746582031E-4
3.000012891E0,2.227783203E-3,1.072692871E-2,-8.087158203E-4
3.005048292E0,1.632690430E-3,1.179504395E-2,-1.876831055E-3
3.010083692E0,2.471923828E-3,1.213073730E-2,-2.456665039E-3
3.015119092E0,2.990722656E-3,1.075744629E-2,-1.647949219E-3
3.020154493E0,4.608154297E-3,1.156616211E-2,-1.647949219E-3
3.025189893E0,4.043579102E-3,1.156616211E-2,-1.358032227E-3
3.030225293E0,2.182006836E-3,1.127624512E-2,-8.544921875E-4
3.035260694E0,1.678466797E-3,9.628295898E-3,-1.647949219E-3
3.040296094E0,2.166748047E-3,7.293701172E-3,-1.937866211E-3
3.045331495E0,1.403808594E-3,7.598876953E-3,-2.716064453E-3
3.050366895E0,1.068115234E-3,8.682250977E-3,-2.716064453E-3
3.055402295E0,1.007080078E-3,9.765625000E-3,-3.051757812E-3
3.060437696E0,2.471923828E-3,1.014709473E-2,-3.784179688E-3
3.065473096E0,2.471923828E-3,9.063720703E-3,-3.417968750E-3
3.070508497E0,2.471923828E-3,7.995605469E-3,-3.067016602E-3
3.075543897E0,2.471923828E-3,8.026123047E-3,-3.036499023E-3
3.080579297E0,2.090454102E-3,9.048461914E-3,-2.014160156E-3
3.085614698E0,1.403808594E-3,8.361816406E-3,-2.716064453E-3
3.090650098E0,1.800537109E-3,8.361816406E-3,-2.716064453E-3
3.095685499E0,2.471923828E-3,8.758544922E-3,-2.716064453E-3
3.100720899E0,3.295898438E-3,9.002685547E-3,-2.288818359E-3
3.105756299E0,4.608154297E-3,7.919311523E-3,-2.502441406E-3
3.110791700E0,4.165649414E-3,7.293701172E-3,-4.211425781E-3
3.115827100E0,3.082275391E-3,7.293701172E-3,-5.294799805E-3
3.120862500E0,2.929687500E-3,7.293701172E-3,-5.920410156E-3
3.125897901E0,3.067016602E-3,9.155273438E-3,-4.974365234E-3
3.130933301E0,2.471923828E-3,1.060485840E-2,-3.784179688E-3
3.135968702E0,2.960205078E-3,7.461547852E-3,-2.792358398E-3
3.141004102E0,3.540039062E-3,6.149291992E-3,-1.647949219E-3
3.146039502E0,2.517700195E-3,9.826660156E-3,-2.151489258E-3
3.151074903E0,1.403808594E-3,1.263427734E-2,-3.738403320E-3
3.156110303E0,2.456665039E-3,9.460449219E-3,-4.318237305E-3
3.161145704E0,3.005981445E-3,5.691528320E-3,-3.784179688E-3
3.166181104E0,2.471923828E-3,7.324218750E-3,-4.318237305E-3
3.171216504E0,2.471923828E-3,1.051330566E-2,-4.852294922E-3
3.176251905E0,2.471923828E-3,1.043701172E-2,-3.723144531E-3
3.181287305E0,1.892089844E-3,9.429931641E-3,-3.280639648E-3
3.186322706E0,1.983642578E-3,1.000976562E-2,-3.784179688E-3
3.191358106E0,1.861572266E-3,1.228332520E-2,-3.784179688E-3
3.196393506E0,7.934570312E-4,1.127624512E-2,-3.784179688E-3
3.201428907E0,1.556396484E-3,7.568359375E-3,-4.394531250E-3
3.206464307E0,3.707885742E-3,6.835937500E-3,-3.601074219E-3
3.211499708E0,3.326416016E-3,1.109313965E-2,-3.982543945E-3
3.216535108E0,1.174926758E-3,1.370239258E-2,-6.134033203E-3
3.221570508E0,1.632690430E-3,1.107788086E-2,-6.332397461E-3
3.226605909E0,3.128051758E-3,8.087158203E-3,-5.249023438E-3
3.231641309E0,2.853393555E-3,8.636474609E-3,-6.195068359E-3
3.236676709E0,3.143310547E-3,1.010131836E-2,-7.659912109E-3
3.241712110E0,2.838134766E-3,9.796142578E-3,-7.354736328E-3
3.246747510E0,2.471923828E-3,8.728027344E-3,-6.988525391E-3
3.251782911E0,3.173828125E-3,9.063720703E-3,-5.569458008E-3
3.256818311E0,3.540039062E-3,9.429931641E-3,-4.852294922E-3
3.261853711E0,2.807617188E-3,9.429931641E-3,-5.569458008E-3
3.266889112E0,1.724243164E-3,8.682250977E-3,-5.920410156E-3
3.271924512E0,1.403808594E-3,9.094238281E-3,-5.920410156E-3
3.276959913E0,2.151489258E-3,1.092529297E-2,-7.415771484E-3
3.281995313E0,3.982543945E-3,1.156616211E-2,-7.293701172E-3
3.287030713E0,4.608154297E-3,1.078796387E-2,-6.988525391E-3
3.292066114E0,3.814697266E-3,9.704589844E-3,-6.988525391E-3
3.297101514E0,2.746582031E-3,8.636474609E-3,-7.766723633E-3
3.302136915E0,2.471923828E-3,8.361816406E-3,-8.850097656E-3
3.307172315E0,2.471923828E-3,9.155273438E-3,-8.316040039E-3
3.312207715E0,3.280639648E-3,9.429931641E-3,-7.232666016E-3
3.317243116E0,2.700805664E-3,8.590698242E-3,-6.988525391E-3
3.322278516E0,2.471923828E-3,8.361816406E-3,-7.812500000E-3
3.327313917E0,2.471923828E-3,9.201049805E-3,-8.056640625E-3
3.332349317E0,2.471923828E-3,8.560180664E-3,-8.056640625E-3
3.337384717E0,2.471923828E-3,8.361816406E-3,-7.186889648E-3
3.342420118E0,1.586914062E-3,9.231567383E-3,-6.103515625E-3
3.347455518E0,2.273559570E-3,1.118469238E-2,-7.675170898E-3
3.352490918E0,3.356933594E-3,1.156616211E-2,-8.056640625E-3
3.357526319E0,2.624511719E-3,1.065063477E-2,-7.141113281E-3
3.362561719E0,2.471923828E-3,8.666992188E-3,-6.988525391E-3
3.367597120E0,1.541137695E-3,8.361816406E-3,-6.988525391E-3
3.372632520E0,2.334594727E-3,1.022338867E-2,-6.988525391E-3
3.377667920E0,3.402709961E-3,1.142883301E-2,-7.919311523E-3
3.382703321E0,4.486083984E-3,9.658813477E-3,-9.002685547E-3
3.387738721E0,5.569458008E-3,6.530761719E-3,-9.124755859E-3
3.392774122E0,4.699707031E-3,6.225585938E-3,-1.008605957E-2
3.397809522E0,3.616333008E-3,8.178710938E-3,-9.201049805E-3
3.402844922E0,5.508422852E-3,9.338378906E-3,-8.132934570E-3
3.407880323E0,5.676269531E-3,7.431030273E-3,-7.049560547E-3
3.412915723E0,4.653930664E-3,6.271362305E-3,-6.988525391E-3
3.417951124E0,4.608154297E-3,7.232666016E-3,-7.995605469E-3
3.422986524E0,4.608154297E-3,9.338378906E-3,-9.078979492E-3
3.428021924E0,4.608154297E-3,8.392333984E-3,-8.087158203E-3
3.433057325E0,5.645751953E-3,6.256103516E-3,-9.094238281E-3
3.438092725E0,5.676269531E-3,6.225585938E-3,-7.003784180E-3
3.443128125E0,5.676269531E-3,8.361816406E-3,-6.988525391E-3
3.448163526E0,5.661010742E-3,7.278442383E-3,-8.056640625E-3
3.453198926E0,3.555297852E-3,6.240844727E-3,-8.056640625E-3
3.458234327E0,4.608154297E-3,7.293701172E-3,-8.056640625E-3
3.463269727E0,4.608154297E-3,7.293701172E-3,-8.056640625E-3
3.468305127E0,4.638671875E-3,7.293701172E-3,-8.056640625E-3
3.473340528E0,5.676269531E-3,7.232666016E-3,-7.949829102E-3
3.478375928E0,5.722045898E-3,6.164550781E-3,-6.011962891E-3
3.483411329E0,6.744384766E-3,5.218505859E-3,-7.980346680E-3
3.488446729E0,6.652832031E-3,6.378173828E-3,-6.988525391E-3
3.493482129E0,5.676269531E-3,8.361816406E-3,-7.064819336E-3
3.498517530E0,5.767822266E-3,8.453369141E-3,-7.858276367E-3
3.503552930E0,6.744384766E-3,9.307861328E-3,-5.920410156E-3
3.508588331E0,6.851196289E-3,8.239746094E-3,-6.027221680E-3
3.513623731E0,7.812500000E-3,7.293701172E-3,-6.988525391E-3
3.518659131E0,7.812500000E-3,7.415771484E-3,-6.851196289E-3
3.523694532E0,7.659912109E-3,8.499145508E-3,-5.920410156E-3
3.528729932E0,6.744384766E-3,9.582519531E-3,-5.752563477E-3
3.533765333E0,6.561279297E-3,1.014709473E-2,-5.020141602E-3
3.538800733E0,5.844116211E-3,7.995605469E-3,-5.920410156E-3
3.543836133E0,6.927490234E-3,6.591796875E-3,-5.920410156E-3
3.548871534E0,7.812500000E-3,8.361816406E-3,-6.103515625E-3
3.553906934E0,7.598876953E-3,8.361816406E-3,-6.774902344E-3
3.558942334E0,6.515502930E-3,8.575439453E-3,-5.920410156E-3
3.563977735E0,5.676269531E-3,8.972167969E-3,-5.920410156E-3
3.569013135E0,5.676269531E-3,7.049560547E-3,-6.378173828E-3
3.574048536E0,5.676269531E-3,6.225585938E-3,-7.568359375E-3
3.579083936E0,5.920410156E-3,5.966186523E-3,-5.661010742E-3
3.584119336E0,6.469726562E-3,5.157470703E-3,-4.852294922E-3
3.589154737E0,5.676269531E-3,5.416870117E-3,-5.111694336E-3
3.594190137E0,6.225585938E-3,5.935668945E-3,-5.355834961E-3
3.599225538E0,7.522583008E-3,4.867553711E-3,-3.784179688E-3
3.604260938E0,7.034301758E-3,4.684448242E-3,-4.074096680E-3
3.609296338E0,7.812500000E-3,6.225585938E-3,-4.531860352E-3
3.614331739E0,7.492065430E-3,6.225585938E-3,-3.784179688E-3
3.619367139E0,7.064819336E-3,5.569458008E-3,-3.448486328E-3
3.624402540E0,7.476806641E-3,4.089355469E-3,-3.036499023E-3
3.629437940E0,6.393432617E-3,4.089355469E-3,-3.784179688E-3
3.634473340E0,5.676269531E-3,4.440307617E-3,-3.067016602E-3
3.639508741E0,5.676269531E-3,4.791259766E-3,-1.647949219E-3
3.644544141E0,5.294799805E-3,4.455566406E-3,-2.380371094E-3
3.649579542E0,5.371093750E-3,4.760742188E-3,-4.165649414E-3
3.654614942E0,7.141113281E-3,3.677368164E-3,-3.646850586E-3
3.659650342E0,8.209228516E-3,3.021240234E-3,-1.647949219E-3
3.664685743E0,8.880615234E-3,3.433227539E-3,-2.059936523E-3
3.669721143E0,8.026123047E-3,4.089355469E-3,-1.861572266E-3
3.674756543E0,6.301879883E-3,3.646850586E-3,-5.798339844E-4
3.679791944E0,4.776000977E-3,2.563476562E-3,-5.798339844E-4
3.684827344E0,4.440307617E-3,1.953125000E-3,-1.022338867E-3
3.689862745E0,5.676269531E-3,1.953125000E-3,-1.174926758E-3
3.694898145E0,5.203247070E-3,2.883911133E-3,-1.037597656E-3
3.699933545E0,4.608154297E-3,3.112792969E-3,-1.647949219E-3
3.704968946E0,4.608154297E-3,1.953125000E-3,-1.647949219E-3
3.710004346E0,4.104614258E-3,1.449584961E-3,-1.144409180E-3
3.715039747E0,3.540039062E-3,8.850097656E-4,-6.103515625E-5
3.720075147E0,3.540039062E-3,8.850097656E-4,1.007080078E-3
3.725110547E0,4.058837891E-3,3.509521484E-4,1.037597656E-3
3.730145948E0,4.074096680E-3,-1.251220703E-3,4.882812500E-4
3.735181348E0,4.074096680E-3,-2.319335938E-3,1.571655273E-3
3.740216749E0,4.043579102E-3,-1.220703125E-3,2.075195312E-3
3.745252149E0,2.975463867E-3,-7.476806641E-4,2.120971680E-3
3.750287549E0,3.036499023E-3,-1.251220703E-3,2.624511719E-3
3.755322950E0,3.540039062E-3,-1.251220703E-3,2.059936523E-3
3.760358350E0,2.944946289E-3,-1.846313477E-3,1.556396484E-3
3.765393750E0,2.471923828E-3,-2.929687500E-3,1.556396484E-3
3.770429151E0,3.067016602E-3,-2.792358398E-3,2.166748047E-3
3.775464551E0,3.540039062E-3,-2.944946289E-3,2.624511719E-3
3.780499952E0,4.150390625E-3,-2.777099609E-3,2.014160156E-3
3.785535352E0,3.341674805E-3,-2.319335938E-3,9.307861328E-4
3.790570752E0,1.815795898E-3,-1.678466797E-3,1.785278320E-3
3.795606153E0,1.403808594E-3,-6.103515625E-4,1.983642578E-3
3.800641553E0,1.403808594E-3,-1.831054688E-4,1.556396484E-3
3.805676954E0,2.075195312E-3,-1.541137695E-3,2.243041992E-3
3.810712354E0,3.143310547E-3,-3.692626953E-3,3.311157227E-3
3.815747754E0,2.838134766E-3,-3.768920898E-3,3.005981445E-3
3.820783155E0,1.754760742E-3,-1.983642578E-3,2.624511719E-3
3.825818555E0,1.403808594E-3,-5.493164062E-4,1.922607422E-3
3.830853956E0,1.403808594E-3,-2.365112305E-3,3.005981445E-3
3.835889356E0,2.120971680E-3,-6.317138672E-3,2.975463867E-3
3.840924756E0,2.471923828E-3,-5.447387695E-3,4.119873047E-3
3.845960157E0,2.136230469E-4,-2.212524414E-3,4.760742188E-3
3.850995557E0,-7.324218750E-4,-2.014160156E-3,4.760742188E-3
3.856030958E0,3.051757812E-5,-3.097534180E-3,5.538940430E-3
3.861066358E0,3.356933594E-4,-3.387451172E-3,5.050659180E-3
3.866101758E0,1.113891602E-3,-4.180908203E-3,5.554199219E-3
3.871137159E0,1.403808594E-3,-2.868652344E-3,5.035400391E-3
3.876172559E0,1.403808594E-3,-2.319335938E-3,3.158569336E-3
3.881207959E0,-2.288818359E-4,-3.143310547E-3,3.448486328E-3
3.886243360E0,-7.324218750E-4,-2.563476562E-3,5.355834961E-3
3.891278760E0,9.155273438E-5,-2.319335938E-3,5.004882812E-3
3.896314161E0,3.356933594E-4,-3.173828125E-3,6.454467773E-3
3.901349561E0,1.174926758E-3,-5.096435547E-3,6.057739258E-3
3.906384961E0,1.403808594E-3,-5.523681641E-3,6.698608398E-3
3.911420362E0,-3.509521484E-4,-2.914428711E-3,6.027221680E-3
3.916455762E0,-1.617431641E-3,-2.319335938E-3,4.959106445E-3
3.921491163E0,-1.800537109E-3,-3.219604492E-3,4.760742188E-3
3.926526563E0,-1.800537109E-3,-4.287719727E-3,3.875732422E-3
3.931561963E0,-1.800537109E-3,-4.455566406E-3,2.792358398E-3
3.936597364E0,-2.731323242E-3,-3.540039062E-3,3.555297852E-3
3.941632764E0,-1.953125000E-3,-4.318237305E-3,3.692626953E-3
3.946668165E0,-2.746582031E-3,-5.401611328E-3,4.638671875E-3
3.951703565E0,-2.868652344E-3,-5.523681641E-3,4.760742188E-3
3.956738965E0,-1.922607422E-3,-5.523681641E-3,4.760742188E-3
3.961774366E0,-2.777099609E-3,-5.523681641E-3,2.822875977E-3
3.966809766E0,-2.868652344E-3,-5.523681641E-3,3.616333008E-3
3.971845167E0,-1.892089844E-3,-7.492065430E-3,3.692626953E-3
3.976880567E0,-1.800537109E-3,-6.668090820E-3,3.692626953E-3
3.981915967E0,-1.800537109E-3,-5.584716797E-3,3.692626953E-3
3.986951368E0,-2.822875977E-3,-5.523681641E-3,3.692626953E-3
3.991986768E0,-2.868652344E-3,-7.583618164E-3,3.692626953E-3
3.997022168E0,-1.846313477E-3,-7.659912109E-3,3.692626953E-3
4.002057569E0,-2.853393555E-3,-7.659912109E-3,3.692626953E-3
4.007092969E0,-2.868652344E-3,-6.607055664E-3,4.760742188E-3
4.012128370E0,-1.815795898E-3,-7.659912109E-3,3.707885742E-3
4.017163770E0,-1.800537109E-3,-6.591796875E-3,2.624511719E-3
4.022199170E0,-1.800537109E-3,-6.637573242E-3,2.624511719E-3
4.027234571E0,-1.800537109E-3,-9.796142578E-3,1.541137695E-3
4.032269971E0,-1.800537109E-3,-9.735107422E-3,5.340576172E-4
4.037305372E0,-1.800537109E-3,-7.659912109E-3,1.556396484E-3
4.042340772E0,-1.800537109E-3,-7.659912109E-3,1.510620117E-3
4.047376172E0,-1.754760742E-3,-7.720947266E-3,5.493164062E-4
4.052411573E0,-7.324218750E-4,-8.804321289E-3,1.556396484E-3
4.057446973E0,-7.324218750E-4,-9.796142578E-3,1.480102539E-3
4.062482374E0,-7.324218750E-4,-9.719848633E-3,4.882812500E-4
4.067517774E0,-9.307861328E-4,-8.728027344E-3,5.950927734E-4
4.072553174E0,-2.761840820E-3,-8.850097656E-3,1.342773438E-3
4.077588575E0,-1.693725586E-3,-9.918212891E-3,-5.798339844E-4
4.082623975E0,-7.324218750E-4,-1.100158691E-2,-4.425048828E-4
4.087659375E0,-7.324218750E-4,-1.193237305E-2,4.882812500E-4
4.092694776E0,-5.950927734E-4,-1.165771484E-2,4.882812500E-4
4.097730176E0,3.356933594E-4,-9.643554688E-3,3.356933594E-4
4.102765577E0,1.678466797E-4,-8.728027344E-3,-4.119873047E-4
4.107800977E0,-7.324218750E-4,-9.094238281E-3,6.713867188E-4
4.112836377E0,-5.493164062E-4,-1.106262207E-2,1.190185547E-3
4.117871778E0,3.356933594E-4,-1.155090332E-2,-7.629394531E-4
4.122907178E0,3.356933594E-4,-9.597778320E-3,-1.647949219E-3
4.127942579E0,3.356933594E-4,-8.728027344E-3,-1.419067383E-3
4.132977979E0,3.356933594E-4,-8.956909180E-3,-7.934570312E-4
4.138013379E0,3.356933594E-4,-9.796142578E-3,-1.403808594E-3
4.143048780E0,7.629394531E-5,-9.552001953E-3,-8.239746094E-4
4.148084180E0,-9.918212891E-4,-8.987426758E-3,-1.647949219E-3
4.153119581E0,-1.541137695E-3,-9.536743164E-3,-1.647949219E-3
4.158154981E0,-4.577636719E-4,-9.017944336E-3,-1.358032227E-3
4.163190381E0,3.356933594E-4,-9.521484375E-3,-8.544921875E-4
4.168225782E0,3.051757812E-5,-8.148193359E-3,-1.647949219E-3
4.173261182E0,-7.324218750E-4,-6.896972656E-3,-1.937866211E-3
4.178296583E0,-4.272460938E-4,-8.605957031E-3,-2.395629883E-3
4.183331983E0,9.613037109E-4,-1.086425781E-2,-1.953125000E-3
4.188367383E0,2.471923828E-3,-1.022338867E-2,-2.716064453E-3
4.193402784E0,1.785278320E-3,-8.392333984E-3,-2.365112305E-3
4.198438184E0,6.713867188E-4,-8.010864258E-3,-2.319335938E-3
4.203473584E0,1.754760742E-3,-9.094238281E-3,-3.784179688E-3
4.208508985E0,2.822875977E-3,-9.445190430E-3,-3.784179688E-3
4.213544385E0,3.540039062E-3,-8.728027344E-3,-3.784179688E-3
4.218579786E0,3.158569336E-3,-8.728027344E-3,-3.402709961E-3
4.223615186E0,1.678466797E-3,-8.346557617E-3,-2.716064453E-3
4.228650586E0,7.324218750E-4,-7.263183594E-3,-2.716064453E-3
4.233685987E0,1.403808594E-3,-6.195068359E-3,-2.716064453E-3
4.238721387E0,1.815795898E-3,-5.950927734E-3,-3.128051758E-3
4.243756788E0,2.883911133E-3,-7.019042969E-3,-3.784179688E-3
4.248792188E0,3.540039062E-3,-8.102416992E-3,-2.899169922E-3
4.253827588E0,3.540039062E-3,-7.843017578E-3,-2.532958984E-3
4.258862989E0,3.082275391E-3,-6.591796875E-3,-3.326416016E-3
4.263898389E0,1.998901367E-3,-6.134033203E-3,-2.716064453E-3
4.268933790E0,1.876831055E-3,-5.050659180E-3,-3.189086914E-3
4.273969190E0,2.471923828E-3,-4.943847656E-3,-3.295898438E-3
4.279004590E0,2.960205078E-3,-7.019042969E-3,-2.212524414E-3
4.284039991E0,3.021240234E-3,-8.728027344E-3,-2.151489258E-3
4.289075391E0,2.975463867E-3,-6.683349609E-3,-3.738403320E-3
4.294110792E0,2.487182617E-3,-2.883911133E-3,-4.852294922E-3
4.299146192E0,1.403808594E-3,-1.785278320E-3,-5.386352539E-3
4.304181592E0,2.471923828E-3,-3.952026367E-3,-5.920410156E-3
4.309216993E0,3.540039062E-3,-5.523681641E-3,-5.920410156E-3
4.314252393E0,3.540039062E-3,-4.974365234E-3,-5.920410156E-3
4.319287793E0,3.540039062E-3,-4.455566406E-3,-5.920410156E-3
4.324323194E0,2.960205078E-3,-4.455566406E-3,-5.340576172E-3
4.329358594E0,1.876831055E-3,-3.875732422E-3,-4.852294922E-3
4.334393995E0,1.403808594E-3,-2.197265625E-3,-4.852294922E-3
4.339429395E0,1.998901367E-3,-2.471923828E-3,-4.852294922E-3
4.344464795E0,3.082275391E-3,-5.874633789E-3,-4.852294922E-3
4.349500196E0,4.165649414E-3,-7.034301758E-3,-4.211425781E-3
4.354535596E0,3.326416016E-3,-4.043579102E-3,-3.784179688E-3
4.359570997E0,1.815795898E-3,-1.678466797E-3,-3.784179688E-3
4.364606397E0,2.700805664E-3,-2.563476562E-3,-2.471923828E-3
4.369641797E0,4.196166992E-3,-4.058837891E-3,-2.975463867E-3
4.374677198E0,3.250122070E-3,-3.784179688E-3,-3.784179688E-3
4.379712598E0,1.785278320E-3,-1.342773438E-3,-5.142211914E-3
4.384747999E0,2.090454102E-3,-8.850097656E-4,-5.218505859E-3
4.389783399E0,3.158569336E-3,-1.953125000E-3,-4.150390625E-3
4.394818799E0,3.540039062E-3,-3.036499023E-3,-3.067016602E-3
4.399854200E0,2.807617188E-3,-1.953125000E-3,-3.433227539E-3
4.404889600E0,3.189086914E-3,-1.251220703E-3,-3.784179688E-3
4.409925000E0,4.272460938E-3,-1.998901367E-3,-4.516601562E-3
4.414960401E0,4.608154297E-3,-2.319335938E-3,-4.852294922E-3
4.419995801E0,3.082275391E-3,-1.571655273E-3,-4.852294922E-3
4.425031202E0,1.693725586E-3,2.746582031E-4,-4.852294922E-3
4.430066602E0,1.403808594E-3,8.850097656E-4,-4.058837891E-3
4.435102002E0,2.182006836E-3,9.155273438E-5,-2.990722656E-3
4.440137403E0,2.471923828E-3,-1.831054688E-4,-3.509521484E-3
4.445172803E0,3.265380859E-3,-9.918212891E-4,-3.784179688E-3
4.450208204E0,4.348754883E-3,-1.251220703E-3,-3.784179688E-3
4.455243604E0,3.768920898E-3,-4.272460938E-4,-3.784179688E-3
4.460279004E0,3.540039062E-3,1.480102539E-3,-2.944946289E-3
4.465314405E0,3.540039062E-3,1.098632812E-3,-3.555297852E-3
4.470349805E0,2.685546875E-3,3.051757812E-5,-3.784179688E-3
4.475385206E0,3.326416016E-3,6.713867188E-4,-3.784179688E-3
4.480420606E0,2.655029297E-3,8.850097656E-4,-2.029418945E-3
4.485456006E0,2.471923828E-3,1.754760742E-3,-2.517700195E-3
4.490491407E0,1.571655273E-3,1.953125000E-3,-2.716064453E-3
4.495526807E0,2.288818359E-3,1.052856445E-3,-2.716064453E-3
4.500562208E0,2.471923828E-3,8.850097656E-4,-3.616333008E-3
4.505597608E0,2.471923828E-3,1.800537109E-3,-1.022338867E-3
4.510633008E0,1.541137695E-3,2.868652344E-3,-1.495361328E-3
4.515668409E0,4.577636719E-4,3.021240234E-3,-1.647949219E-3
4.520703809E0,1.281738281E-3,3.021240234E-3,-6.866455078E-4
4.525739209E0,-5.187988281E-4,3.021240234E-3,3.814697266E-4
4.530774610E0,2.288818359E-4,3.021240234E-3,-4.730224609E-4
4.535810010E0,1.312255859E-3,3.997802734E-3,4.119873047E-4
4.540845411E0,4.119873047E-4,4.089355469E-3,4.882812500E-4
4.545880811E0,3.356933594E-4,4.089355469E-3,1.495361328E-3
4.550916211E0,1.342773438E-3,4.089355469E-3,5.493164062E-4
4.555951612E0,1.403808594E-3,4.089355469E-3,4.882812500E-4
4.560987012E0,3.662109375E-4,4.089355469E-3,-5.340576172E-4
4.566022413E0,-7.019042969E-4,5.111694336E-3,-1.602172852E-3
4.571057813E0,3.051757812E-4,4.104614258E-3,4.425048828E-4
4.576093213E0,3.356933594E-4,4.089355469E-3,-5.645751953E-4
4.581128614E0,-7.324218750E-4,5.142211914E-3,-5.798339844E-4
4.586164014E0,-7.324218750E-4,6.225585938E-3,4.882812500E-4
4.591199415E0,3.356933594E-4,6.210327148E-3,4.882812500E-4
4.596234815E0,3.509521484E-4,5.172729492E-3,5.187988281E-4
4.601270215E0,1.312255859E-3,6.225585938E-3,1.556396484E-3
4.606305616E0,-7.934570312E-4,6.271362305E-3,1.510620117E-3
4.611341016E0,-1.754760742E-3,7.232666016E-3,4.882812500E-4
4.616376417E0,-6.713867188E-4,6.286621094E-3,4.882812500E-4
4.621411817E0,1.678466797E-4,7.293701172E-3,5.798339844E-4
4.626447217E0,-1.800537109E-3,7.369995117E-3,1.556396484E-3
4.631482618E0,-1.617431641E-3,8.255004883E-3,1.556396484E-3
4.636518018E0,4.272460938E-4,7.186889648E-3,1.556396484E-3
4.641553418E0,1.403808594E-3,6.332397461E-3,1.556396484E-3
4.646588819E0,1.403808594E-3,7.293701172E-3,1.815795898E-3
4.651624219E0,1.266479492E-3,7.293701172E-3,3.692626953E-3
4.656659620E0,4.730224609E-4,7.293701172E-3,3.692626953E-3
4.661695020E0,1.403808594E-3,7.431030273E-3,3.417968750E-3
4.666730420E0,1.083374023E-3,8.666992188E-3,1.556396484E-3
4.671765821E0,-9.002685547E-4,1.033020020E-2,1.724243164E-3
4.676801221E0,-1.449584961E-3,9.246826172E-3,2.624511719E-3
4.681836622E0,3.356933594E-4,8.529663086E-3,2.624511719E-3
4.686872022E0,1.373291016E-4,9.231567383E-3,2.822875977E-3
4.691907422E0,-7.324218750E-4,8.560180664E-3,3.692626953E-3
4.696942823E0,-7.324218750E-4,9.429931641E-3,3.692626953E-3
4.701978223E0,-7.324218750E-4,9.429931641E-3,3.692626953E-3
4.707013624E0,-9.765625000E-4,9.429931641E-3,3.234863281E-3
4.712049024E0,-2.044677734E-3,9.429931641E-3,1.556396484E-3
4.717084424E0,-3.128051758E-3,9.429931641E-3,1.815795898E-3
4.722119825E0,-3.692626953E-3,9.429931641E-3,2.380371094E-3
4.727155225E0,-2.868652344E-3,9.429931641E-3,1.556396484E-3
4.732190625E0,-2.593994141E-3,9.704589844E-3,1.556396484E-3
4.737226026E0,-1.800537109E-3,1.020812988E-2,1.846313477E-3
4.742261426E0,-2.105712891E-3,9.719848633E-3,2.624511719E-3
4.747296827E0,-2.868652344E-3,1.049804688E-2,3.250122070E-3
4.752332227E0,-2.563476562E-3,1.112365723E-2,4.760742188E-3
4.757367627E0,-1.800537109E-3,1.229858398E-2,4.440307617E-3
4.762403028E0,-1.800537109E-3,1.156616211E-2,3.692626953E-3
4.767438428E0,-1.464843750E-3,1.121520996E-2,3.692626953E-3
4.772473829E0,-1.098632812E-3,1.013183594E-2,3.692626953E-3
4.777509229E0,-2.166748047E-3,9.780883789E-3,3.692626953E-3
4.782544629E0,-2.868652344E-3,1.049804688E-2,4.440307617E-3
4.787580030E0,-2.105712891E-3,1.010131836E-2,5.447387695E-3
4.792615430E0,-1.129150391E-3,9.811401367E-3,4.379272461E-3
4.797650831E0,-2.212524414E-3,1.089477539E-2,3.295898438E-3
4.802686231E0,-3.295898438E-3,1.156616211E-2,2.624511719E-3
4.807721631E0,-3.097534180E-3,1.156616211E-2,2.212524414E-3
4.812757032E0,-1.800537109E-3,1.069641113E-2,1.556396484E-3
4.817792432E0,-1.800537109E-3,9.429931641E-3,2.014160156E-3
4.822827833E0,-1.800537109E-3,8.972167969E-3,2.624511719E-3
4.827863233E0,-1.800537109E-3,9.277343750E-3,2.624511719E-3
4.832898633E0,-1.800537109E-3,1.049804688E-2,2.166748047E-3
4.837934034E0,-1.800537109E-3,1.000976562E-2,1.556396484E-3
4.842969434E0,-1.800537109E-3,1.040649414E-2,2.059936523E-3
4.848004834E0,-1.800537109E-3,1.106262207E-2,2.136230469E-3
4.853040235E0,-1.800537109E-3,1.049804688E-2,1.052856445E-3
4.858075635E0,-1.800537109E-3,1.049804688E-2,1.007080078E-3
4.863111036E0,-2.334594727E-3,1.049804688E-2,1.556396484E-3
4.868146436E0,-1.800537109E-3,1.156616211E-2,2.105712891E-3
4.873181836E0,-7.324218750E-4,1.208496094E-2,2.624511719E-3
4.878217237E0,-1.296997070E-3,1.211547852E-2,2.624511719E-3
4.883252637E0,-1.235961914E-3,1.148986816E-2,1.495361328E-3
4.888288038E0,-1.678466797E-4,1.049804688E-2,4.882812500E-4
4.893323438E0,3.356933594E-4,1.049804688E-2,-9.155273438E-5
4.898358838E0,-2.593994141E-4,1.107788086E-2,6.103515625E-4
4.903394239E0,-1.953125000E-3,1.095581055E-2,1.556396484E-3
4.908429639E0,-2.258300781E-3,1.110839844E-2,9.460449219E-4
4.913465040E0,-5.645751953E-4,1.156616211E-2,4.882812500E-4
4.918500440E0,3.356933594E-4,1.092529297E-2,4.882812500E-4
4.923535840E0,-3.204345703E-4,1.049804688E-2,4.882812500E-4
4.928571241E0,-1.388549805E-3,9.841918945E-3,-1.525878906E-4
4.933606641E0,-1.800537109E-3,9.429931641E-3,9.155273438E-5
4.938642042E0,-2.487182617E-3,1.010131836E-2,-1.831054688E-4
4.943677442E0,-2.868652344E-3,1.049804688E-2,1.068115234E-4
4.948712842E0,-2.182006836E-3,9.796142578E-3,-1.983642578E-4
4.953748243E0,-1.113891602E-3,1.081848145E-2,-5.798339844E-4
4.958783643E0,-3.051757812E-5,1.156616211E-2,1.373291016E-4
4.963819043E0,3.356933594E-4,1.156616211E-2,-2.288818359E-4
4.968854444E0,3.356933594E-4,1.228332520E-2,-5.798339844E-4
4.973889844E0,-4.119873047E-4,1.188659668E-2,-2.059936523E-3
4.978925245E0,-1.495361328E-3,1.156616211E-2,-1.953125000E-3
4.983960645E0,-1.800537109E-3,1.231384277E-2,-2.395629883E-3
4.988996045E0,-1.037597656E-3,1.263427734E-2,-1.937866211E-3
4.994031446E0,-7.324218750E-4,1.339721680E-2,-2.410888672E-3
4.999066846E0,3.051757812E-5,1.370239258E-2,-1.159667969E-3
5.004102247E0,1.113891602E-3,1.211547852E-2,-5.798339844E-4
5.009137647E0,2.197265625E-3,1.156616211E-2,-2.182006836E-3
5.014173047E0,2.471923828E-3,1.156616211E-2,-2.716064453E-3
5.019208448E0,1.632690430E-3,1.239013672E-2,-3.540039062E-3
5.024243848E0,5.645751953E-4,1.179504395E-2,-4.608154297E-3
5.029279249E0,1.174926758E-3,9.872436523E-3,-4.852294922E-3
5.034314649E0,1.403808594E-3,9.429931641E-3,-3.997802734E-3
5.039350049E0,5.340576172E-4,1.115417480E-2,-3.784179688E-3
5.044385450E0,3.356933594E-4,1.156616211E-2,-2.899169922E-3
5.049420850E0,-5.493164062E-4,1.156616211E-2,-9.460449219E-4
5.054456250E0,1.037597656E-3,1.066589355E-2,-1.464843750E-3
5.059491651E0,1.403808594E-3,1.049804688E-2,-2.548217773E-3
5.064527051E0,1.403808594E-3,1.141357422E-2,-2.716064453E-3
5.069562452E0,4.730224609E-4,1.063537598E-2,-4.562377930E-3
5.074597852E0,1.266479492E-3,1.049804688E-2,-3.906250000E-3
5.079633252E0,1.403808594E-3,9.552001953E-3,-1.892089844E-3
5.084668653E0,2.349853516E-3,9.429931641E-3,-3.555297852E-3
5.089704053E0,2.471923828E-3,9.429931641E-3,-2.807617188E-3
5.094739454E0,1.480102539E-3,9.429931641E-3,-3.692626953E-3
5.099774854E0,3.372192383E-3,9.429931641E-3,-1.800537109E-3
5.104810254E0,2.532958984E-3,8.422851562E-3,-3.631591797E-3
5.109845655E0,1.464843750E-3,7.354736328E-3,-3.784179688E-3
5.114881055E0,3.814697266E-4,7.293701172E-3,-3.784179688E-3
5.119916456E0,1.358032227E-3,8.316040039E-3,-2.746582031E-3
5.124951856E0,1.403808594E-3,8.361816406E-3,-2.716064453E-3
5.129987256E0,3.479003906E-3,7.308959961E-3,-2.716064453E-3
5.135022657E0,2.471923828E-3,7.293701172E-3,-2.716064453E-3
5.140058057E0,2.471923828E-3,6.225585938E-3,-2.716064453E-3
5.145093458E0,2.456665039E-3,5.157470703E-3,-3.784179688E-3
5.150128858E0,3.509521484E-4,7.293701172E-3,-3.768920898E-3
5.155164258E0,2.471923828E-3,7.263183594E-3,-2.716064453E-3
5.160199659E0,2.471923828E-3,6.179809570E-3,-2.716064453E-3
5.165235059E0,2.502441406E-3,5.157470703E-3,-2.716064453E-3
5.170270459E0,3.479003906E-3,5.203247070E-3,-2.868652344E-3
5.175305860E0,2.471923828E-3,6.149291992E-3,-5.844116211E-3
5.180341260E0,2.395629883E-3,5.157470703E-3,-4.852294922E-3
5.185376661E0,1.312255859E-3,5.065917969E-3,-4.760742188E-3
5.190412061E0,4.119873047E-4,4.165649414E-3,-3.784179688E-3
5.195447461E0,1.403808594E-3,5.157470703E-3,-3.784179688E-3
5.200482862E0,1.403808594E-3,5.157470703E-3,-3.677368164E-3
5.205518262E0,1.403808594E-3,5.035400391E-3,-2.716064453E-3
5.210553663E0,1.403808594E-3,4.089355469E-3,-2.578735352E-3
5.215589063E0,1.266479492E-3,3.952026367E-3,-1.647949219E-3
5.220624463E0,6.103515625E-4,3.021240234E-3,-1.647949219E-3
5.225659864E0,2.304077148E-3,3.021240234E-3,-1.647949219E-3
5.230695264E0,1.403808594E-3,2.853393555E-3,-1.800537109E-3
5.235730665E0,1.403808594E-3,2.304077148E-3,-2.532958984E-3
5.240766065E0,1.205444336E-3,4.089355469E-3,-1.647949219E-3
5.245801465E0,3.356933594E-4,4.089355469E-3,-1.831054688E-3
5.250836866E0,3.356933594E-4,4.089355469E-3,-2.502441406E-3
5.255872266E0,5.493164062E-4,3.860473633E-3,-1.647949219E-3
5.260907667E0,1.617431641E-3,3.021240234E-3,-1.861572266E-3
5.265943067E0,2.700805664E-3,3.021240234E-3,-2.471923828E-3
5.270978467E0,3.051757812E-3,3.021240234E-3,-1.403808594E-3
5.276013868E0,1.403808594E-3,2.761840820E-3,-5.798339844E-4
5.281049268E0,1.403808594E-3,2.212524414E-3,-5.798339844E-4
5.286084668E0,1.403808594E-3,2.471923828E-3,-5.798339844E-4
5.291120069E0,1.403808594E-3,5.950927734E-4,-8.544921875E-4
5.296155469E0,1.113891602E-3,9.155273438E-5,-1.647949219E-3
5.301190870E0,6.256103516E-4,1.174926758E-3,-1.052856445E-3
5.306226270E0,1.403808594E-3,1.953125000E-3,4.882812500E-4
5.311261670E0,1.403808594E-3,1.953125000E-3,-1.373291016E-4
5.316297071E0,1.403808594E-3,2.273559570E-3,-1.312255859E-3
5.321332471E0,1.403808594E-3,2.670288086E-3,-5.798339844E-4
5.326367872E0,1.403808594E-3,1.251220703E-3,1.220703125E-4
5.331403272E0,1.037597656E-3,1.678466797E-4,8.544921875E-4
5.336438672E0,3.356933594E-4,1.602172852E-3,-5.798339844E-4
5.341474073E0,7.019042969E-4,2.273559570E-3,-5.798339844E-4
5.346509473E0,1.403808594E-3,8.850097656E-4,-1.831054688E-4
5.351544874E0,1.403808594E-3,8.850097656E-4,1.068115234E-4
5.356580274E0,1.403808594E-3,8.850097656E-4,-1.678466797E-4
5.361615674E0,1.403808594E-3,8.850097656E-4,4.882812500E-4
5.366651075E0,1.403808594E-3,8.850097656E-4,4.882812500E-4
5.371686475E0,1.403808594E-3,8.850097656E-4,1.358032227E-3
5.376721875E0,1.403808594E-3,4.272460938E-4,3.082275391E-3
5.381757276E0,5.035400391E-4,-1.831054688E-4,2.807617188E-3
5.386792676E0,1.831054688E-4,-1.831054688E-4,1.556396484E-3
5.391828077E0,1.403808594E-3,-1.831054688E-4,1.556396484E-3
5.396863477E0,1.403808594E-3,2.899169922E-4,1.556396484E-3
5.401898877E0,1.403808594E-3,3.814697266E-4,1.556396484E-3
5.406934278E0,1.403808594E-3,-6.866455078E-4,1.556396484E-3
5.411969678E0,1.403808594E-3,-1.251220703E-3,2.075195312E-3
5.417005079E0,1.403808594E-3,-7.476806641E-4,2.120971680E-3
5.422040479E0,1.403808594E-3,-1.251220703E-3,2.090454102E-3
5.427075879E0,1.403808594E-3,-1.785278320E-3,2.624511719E-3
5.432111280E0,8.544921875E-4,-1.251220703E-3,2.624511719E-3
5.437146680E0,3.356933594E-4,-1.815795898E-3,2.624511719E-3
5.442182081E0,3.356933594E-4,-2.319335938E-3,2.624511719E-3
5.447217481E0,-2.441406250E-4,-1.174926758E-3,2.059936523E-3
5.452252881E0,-1.525878906E-4,-7.781982422E-4,2.151489258E-3
5.457288282E0,-2.746582031E-4,-1.861572266E-3,2.624511719E-3
5.462323682E0,4.730224609E-4,-2.929687500E-3,2.624511719E-3
5.467359083E0,1.403808594E-3,-3.387451172E-3,3.250122070E-3
5.472394483E0,7.781982422E-4,-3.387451172E-3,4.318237305E-3
5.477429883E0,3.356933594E-4,-3.387451172E-3,4.760742188E-3
5.482465284E0,9.765625000E-4,-2.746582031E-3,4.119873047E-3
5.487500684E0,2.044677734E-3,-2.975463867E-3,3.051757812E-3
5.492536084E0,4.730224609E-4,-3.387451172E-3,2.624511719E-3
5.497571485E0,-7.324218750E-4,-3.387451172E-3,2.624511719E-3
5.502606885E0,-1.419067383E-3,-2.716064453E-3,3.311157227E-3
5.507642286E0,-4.119873047E-4,-3.021240234E-3,3.005981445E-3
5.512677686E0,-3.814697266E-4,-4.104614258E-3,3.341674805E-3
5.517713086E0,-1.449584961E-3,-3.753662109E-3,3.692626953E-3
5.522748487E0,-1.800537109E-3,-2.670288086E-3,3.692626953E-3
5.527783887E0,-1.800537109E-3,-2.319335938E-3,2.960205078E-3
5.532819288E0,-1.800537109E-3,-3.814697266E-3,2.624511719E-3
5.537854688E0,-1.052856445E-3,-3.707885742E-3,3.387451172E-3
5.542890088E0,1.525878906E-5,-3.387451172E-3,2.944946289E-3
5.547925489E0,-4.425048828E-4,-4.165649414E-3,1.861572266E-3
5.552960889E0,-1.525878906E-3,-4.455566406E-3,1.556396484E-3
5.557996290E0,-1.022338867E-3,-3.677368164E-3,7.781982422E-4
5.563031690E0,-7.324218750E-4,-3.387451172E-3,2.090454102E-3
5.568067090E0,-1.541137695E-3,-3.387451172E-3,3.433227539E-3
5.573102491E0,-1.800537109E-3,-4.211425781E-3,2.883911133E-3
5.578137891E0,-1.800537109E-3,-4.455566406E-3,1.800537109E-3
5.583173292E0,-1.373291016E-4,-5.294799805E-3,2.395629883E-3
5.588208692E0,-1.358032227E-3,-5.523681641E-3,2.624511719E-3
5.593244092E0,-1.800537109E-3,-4.684448242E-3,1.785278320E-3
5.598279493E0,-9.460449219E-4,-4.455566406E-3,1.556396484E-3
5.603314893E0,1.373291016E-4,-4.455566406E-3,2.441406250E-3
5.608350293E0,3.356933594E-4,-4.455566406E-3,1.770019531E-3
5.613385694E0,3.356933594E-4,-4.455566406E-3,1.556396484E-3
5.618421094E0,3.356933594E-4,-4.455566406E-3,2.456665039E-3
5.623456495E0,3.356933594E-4,-5.371093750E-3,1.724243164E-3
5.628491895E0,2.166748047E-3,-6.454467773E-3,1.556396484E-3
5.633527295E0,1.541137695E-3,-6.591796875E-3,1.556396484E-3
5.638562696E0,-4.730224609E-4,-4.730224609E-3,6.256103516E-4
5.643598096E0,1.983642578E-4,-5.401611328E-3,4.882812500E-4
5.648633497E0,-6.256103516E-4,-5.523681641E-3,4.882812500E-4
5.653668897E0,2.288818359E-4,-4.562377930E-3,4.882812500E-4
5.658704297E0,1.296997070E-3,-4.455566406E-3,4.882812500E-4
5.663739698E0,1.403808594E-3,-4.455566406E-3,1.480102539E-3
5.668775098E0,1.403808594E-3,-5.462646484E-3,5.645751953E-4
5.673810499E0,1.403808594E-3,-4.531860352E-3,4.882812500E-4
5.678845899E0,-6.256103516E-4,-4.455566406E-3,4.882812500E-4
5.683881299E0,2.746582031E-4,-4.455566406E-3,4.882812500E-4
5.688916700E0,-7.019042969E-4,-4.455566406E-3,-5.340576172E-4
5.693952100E0,-7.324218750E-4,-4.455566406E-3,1.510620117E-3
5.698987500E0,-7.324218750E-4,-5.508422852E-3,-5.340576172E-4
5.704022901E0,3.204345703E-4,-4.470825195E-3,4.882812500E-4
5.709058301E0,3.356933594E-4,-4.455566406E-3,-5.798339844E-4
5.714093702E0,3.356933594E-4,-4.455566406E-3,-5.798339844E-4
5.719129102E0,1.373291016E-3,-3.387451172E-3,-5.950927734E-4
5.724164502E0,3.814697266E-4,-3.417968750E-3,-1.617431641E-3
5.729199903E0,2.380371094E-3,-4.455566406E-3,-5.340576172E-4
5.734235303E0,2.746582031E-4,-4.455566406E-3,4.882812500E-4
5.739270704E0,-6.866455078E-4,-4.409790039E-3,3.814697266E-4
5.744306104E0,3.967285156E-4,-3.387451172E-3,-1.647949219E-3
5.749341504E0,1.480102539E-3,-3.387451172E-3,-1.647949219E-3
5.754376905E0,2.288818359E-3,-3.479003906E-3,-1.647949219E-3
5.759412305E0,2.288818359E-4,-4.455566406E-3,-1.739501953E-3
5.764447706E0,-5.340576172E-4,-4.455566406E-3,-2.609252930E-3
5.769483106E0,1.281738281E-3,-4.348754883E-3,-1.647949219E-3
5.774518506E0,3.356933594E-4,-3.387451172E-3,-1.770019531E-3
5.779553907E0,3.356933594E-4,-3.387451172E-3,-2.441406250E-3
5.784589307E0,4.730224609E-4,-3.387451172E-3,-8.544921875E-4
5.789624708E0,1.541137695E-3,-3.250122070E-3,-2.853393555E-3
5.794660108E0,2.136230469E-3,-2.487182617E-3,-3.616333008E-3
5.799695508E0,3.356933594E-4,-3.387451172E-3,-2.716064453E-3
5.804730909E0,5.035400391E-4,-3.387451172E-3,-3.067016602E-3
5.809766309E0,1.205444336E-3,-3.387451172E-3,-4.653930664E-3
5.814801709E0,9.307861328E-4,-3.189086914E-3,-3.784179688E-3
5.819837110E0,3.112792969E-3,-2.319335938E-3,-3.982543945E-3
5.824872510E0,1.174926758E-3,-2.319335938E-3,-4.623413086E-3
5.829907911E0,5.493164062E-4,-2.548217773E-3,-3.555297852E-3
5.834943311E0,1.861572266E-3,-3.158569336E-3,-2.716064453E-3
5.839978711E0,3.280639648E-3,-2.319335938E-3,-2.960205078E-3
5.845014112E0,2.716064453E-3,-2.075195312E-3,-3.784179688E-3
5.850049512E0,3.265380859E-3,-1.251220703E-3,-3.784179688E-3
5.855084913E0,2.746582031E-3,-1.541137695E-3,-3.784179688E-3
5.860120313E0,3.814697266E-3,-2.319335938E-3,-4.348754883E-3
5.865155713E0,4.013061523E-3,-1.739501953E-3,-5.325317383E-3
5.870191114E0,2.471923828E-3,-1.831054688E-4,-3.784179688E-3
5.875226514E0,2.777099609E-3,-1.831054688E-4,-3.463745117E-3
5.880261915E0,3.540039062E-3,-1.831054688E-4,-2.716064453E-3
5.885297315E0,2.868652344E-3,-1.831054688E-4,-3.372192383E-3
5.890332715E0,1.739501953E-3,-8.850097656E-4,-5.187988281E-3
5.895368116E0,2.471923828E-3,-1.968383789E-3,-5.920410156E-3
5.900403516E0,2.105712891E-3,-9.002685547E-4,-5.187988281E-3
5.905438917E0,1.403808594E-3,-5.645751953E-4,-4.150390625E-3
5.910474317E0,1.403808594E-3,-1.632690430E-3,-4.470825195E-3
5.915509717E0,1.007080078E-3,-1.556396484E-3,-4.165649414E-3
5.920545118E0,7.324218750E-4,2.136230469E-4,-4.043579102E-3
5.925580518E0,1.403808594E-3,8.850097656E-4,-2.716064453E-3
5.930615918E0,1.815795898E-3,1.708984375E-3,-2.288818359E-3
5.935651319E0,2.471923828E-3,2.151489258E-3,-2.075195312E-3
5.940686719E0,2.029418945E-3,0.000000000E0,-3.585815430E-3
5.945722120E0,1.403808594E-3,-8.087158203E-4,-4.394531250E-3
5.950757520E0,1.403808594E-3,-1.831054688E-4,-3.784179688E-3
5.955792920E0,9.307861328E-4,2.746582031E-4,-3.784179688E-3
5.960828321E0,8.087158203E-4,8.850097656E-4,-3.784179688E-3
5.965863721E0,1.876831055E-3,8.850097656E-4,-3.295898438E-3
5.970899122E0,2.471923828E-3,1.861572266E-3,-3.692626953E-3
5.975934522E0,2.471923828E-3,2.502441406E-3,-4.333496094E-3
5.980969922E0,1.953125000E-3,2.456665039E-3,-3.784179688E-3
5.986005323E0,8.697509766E-4,3.021240234E-3,-3.250122070E-3
5.991040723E0,8.697509766E-4,3.021240234E-3,-2.716064453E-3
5.996076124E0,1.937866211E-3,3.021240234E-3,-2.716064453E-3
6.001111524E0,1.907348633E-3,3.021240234E-3,-2.716064453E-3
6.006146924E0,1.953125000E-3,3.021240234E-3,-2.151489258E-3
6.011182325E0,1.892089844E-3,3.585815430E-3,-2.212524414E-3
6.016217725E0,1.983642578E-3,4.089355469E-3,-3.295898438E-3
6.021253125E0,2.471923828E-3,3.479003906E-3,-3.173828125E-3
6.026288526E0,1.861572266E-3,3.021240234E-3,-2.105712891E-3
6.031323926E0,7.781982422E-4,3.021240234E-3,-1.647949219E-3
6.036359327E0,3.356933594E-4,3.021240234E-3,-2.883911133E-3
6.041394727E0,9.460449219E-4,3.021240234E-3,-3.158569336E-3
6.046430127E0,1.403808594E-3,3.021240234E-3,-3.341674805E-3
6.051465528E0,1.403808594E-3,2.365112305E-3,-3.128051758E-3
6.056500928E0,1.403808594E-3,3.250122070E-3,-2.716064453E-3
6.061536329E0,1.403808594E-3,4.745483398E-3,-2.716064453E-3
6.066571729E0,7.171630859E-4,5.828857422E-3,-2.029418945E-3
6.071607129E0,3.356933594E-4,6.896972656E-3,-1.647949219E-3
6.076642530E0,-3.662109375E-4,5.889892578E-3,-9.460449219E-4
6.081677930E0,-3.051757812E-5,4.440307617E-3,-5.798339844E-4
6.086713331E0,3.356933594E-4,4.089355469E-3,-1.998901367E-3
6.091748731E0,3.356933594E-4,4.806518555E-3,-1.983642578E-3
6.096784131E0,1.068115234E-3,5.889892578E-3,-1.678466797E-4
6.101819532E0,1.403808594E-3,6.225585938E-3,-9.918212891E-4
6.106854932E0,1.403808594E-3,6.973266602E-3,-8.850097656E-4
6.111890333E0,1.403808594E-3,5.767822266E-3,-5.798339844E-4
6.116925733E0,-1.525878906E-4,5.157470703E-3,1.983642578E-4
6.121961133E0,-1.525878906E-3,5.935668945E-3,4.882812500E-4
6.126996534E0,-1.022338867E-3,6.225585938E-3,-2.899169922E-4
6.132031934E0,6.103515625E-5,6.225585938E-3,2.288818359E-4
6.137067334E0,-4.730224609E-4,7.019042969E-3,-3.051757812E-4
6.142102735E0,7.629394531E-5,6.469726562E-3,2.441406250E-4
6.147138135E0,-5.035400391E-4,6.225585938E-3,4.882812500E-4
6.152173536E0,-7.324218750E-4,5.386352539E-3,-3.356933594E-4
6.157208936E0,-1.586914062E-3,5.996704102E-3,1.113891602E-3
6.162244336E0,-9.613037109E-4,6.225585938E-3,1.556396484E-3
6.167279737E0,-7.324218750E-4,6.225585938E-3,-1.678466797E-4
6.172315137E0,-7.324218750E-4,5.340576172E-3,-5.798339844E-4
6.177350538E0,1.373291016E-4,6.027221680E-3,-5.798339844E-4
6.182385938E0,-5.645751953E-4,5.325317383E-3,1.205444336E-3
6.187421338E0,-1.647949219E-3,6.057739258E-3,6.561279297E-4
6.192456739E0,-1.800537109E-3,5.310058594E-3,-4.119873047E-4
6.197492139E0,-8.850097656E-4,6.072998047E-3,3.509521484E-4
6.202527540E0,-7.324218750E-4,7.156372070E-3,1.434326172E-3
6.207562940E0,1.983642578E-4,7.293701172E-3,1.556396484E-3
6.212598340E0,3.356933594E-4,7.293701172E-3,-3.356933594E-4
6.217633741E0,1.266479492E-3,7.293701172E-3,3.662109375E-4
6.222669141E0,-5.340576172E-4,7.293701172E-3,1.464843750E-3
6.227704542E0,-7.324218750E-4,7.293701172E-3,1.556396484E-3
6.232739942E0,-7.324218750E-4,5.310058594E-3,1.556396484E-3
6.237775342E0,-7.324218750E-4,6.149291992E-3,2.563476562E-3
6.242810743E0,-7.324218750E-4,7.232666016E-3,1.617431641E-3
6.247846143E0,-7.324218750E-4,7.293701172E-3,1.556396484E-3
6.252881543E0,-7.324218750E-4,6.256103516E-3,2.593994141E-3
6.257916944E0,-1.770019531E-3,6.225585938E-3,1.602172852E-3
6.262952344E0,-7.629394531E-4,6.225585938E-3,1.556396484E-3
6.267987745E0,3.204345703E-4,8.331298828E-3,1.556396484E-3
6.273023145E0,3.356933594E-4,7.293701172E-3,2.624511719E-3
6.278058545E0,-7.324218750E-4,7.293701172E-3,3.692626953E-3
6.283093946E0,-7.324218750E-4,7.293701172E-3,3.692626953E-3
6.288129346E0,-7.171630859E-4,7.293701172E-3,2.624511719E-3
6.293164747E0,3.356933594E-4,7.324218750E-3,2.624511719E-3
6.298200147E0,3.662109375E-4,8.361816406E-3,2.593994141E-3
6.303235547E0,1.403808594E-3,8.300781250E-3,1.617431641E-3
6.308270948E0,1.327514648E-3,7.293701172E-3,2.563476562E-3
6.313306348E0,2.593994141E-4,7.293701172E-3,1.556396484E-3
6.318341749E0,-7.324218750E-4,7.369995117E-3,1.647949219E-3
6.323377149E0,-8.392333984E-4,8.361816406E-3,2.532958984E-3
6.328412549E0,-1.800537109E-3,8.148193359E-3,1.556396484E-3
6.333447950E0,-1.586914062E-3,6.225585938E-3,1.556396484E-3
6.338483350E0,3.356933594E-4,6.225585938E-3,1.693725586E-3
6.343518750E0,1.983642578E-4,6.225585938E-3,2.624511719E-3
6.348554151E0,-5.950927734E-4,6.225585938E-3,2.624511719E-3
6.353589551E0,3.356933594E-4,6.515502930E-3,2.624511719E-3
6.358624952E0,1.678466797E-4,8.193969727E-3,2.624511719E-3
6.363660352E0,-7.324218750E-4,7.293701172E-3,2.456665039E-3
6.368695752E0,-7.324218750E-4,7.110595703E-3,1.556396484E-3
6.373731153E0,-3.662109375E-4,6.408691406E-3,1.373291016E-3
6.378766553E0,1.403808594E-3,7.080078125E-3,4.882812500E-4
6.383801954E0,1.190185547E-3,6.011962891E-3,4.882812500E-4
6.388837354E0,-1.220703125E-4,5.371093750E-3,7.171630859E-4
6.393872754E0,-1.800537109E-3,6.683349609E-3,1.556396484E-3
6.398908155E0,-1.327514648E-3,7.873535156E-3,1.800537109E-3
6.403943555E0,3.356933594E-4,6.225585938E-3,2.380371094E-3
6.408978956E0,6.103515625E-5,6.225585938E-3,1.037597656E-3
6.414014356E0,-7.324218750E-4,6.759643555E-3,-5.798339844E-4
6.419049756E0,-7.324218750E-4,8.071899414E-3,-2.899169922E-4
6.424085157E0,-4.577636719E-4,7.003784180E-3,2.136230469E-4
6.429120557E0,6.256103516E-4,5.920410156E-3,3.051757812E-5
6.434155958E0,1.083374023E-3,5.462646484E-3,1.251220703E-3
6.439191358E0,3.356933594E-4,6.225585938E-3,4.882812500E-4
6.444226758E0,6.561279297E-4,6.546020508E-3,4.882812500E-4
6.449262159E0,1.739501953E-3,7.293701172E-3,1.525878906E-4
6.454297559E0,2.120971680E-3,6.942749023E-3,-2.288818359E-4
6.459332959E0,1.403808594E-3,6.225585938E-3,1.373291016E-4
6.464368360E0,1.754760742E-3,5.859375000E-3,-9.307861328E-4
6.469403760E0,1.724243164E-3,5.157470703E-3,-9.002685547E-4
6.474439161E0,3.356933594E-4,5.538940430E-3,-2.746582031E-4
6.479474561E0,3.356933594E-4,5.813598633E-3,-2.044677734E-3
6.484509961E0,7.324218750E-4,4.745483398E-3,-2.304077148E-3
6.489545362E0,1.815795898E-3,4.501342773E-3,-1.647949219E-3
6.494580762E0,2.029418945E-3,4.714965820E-3,-1.205444336E-3
6.499616163E0,1.403808594E-3,4.516601562E-3,-5.798339844E-4
6.504651563E0,1.403808594E-3,5.599975586E-3,-5.798339844E-4
6.509686963E0,9.460449219E-4,5.767822266E-3,-1.480102539E-3
6.514722364E0,1.251220703E-3,5.157470703E-3,-2.243041992E-3
6.519757764E0,1.998901367E-3,4.684448242E-3,-1.174926758E-3
6.524793165E0,9.307861328E-4,4.089355469E-3,-1.510620117E-3
6.529828565E0,3.356933594E-4,3.585815430E-3,-2.716064453E-3
6.534863965E0,-1.678466797E-4,3.021240234E-3,-2.212524414E-3
6.539899366E0,-7.324218750E-4,3.021240234E-3,-1.647949219E-3
6.544934766E0,-7.324218750E-4,3.021240234E-3,-2.151489258E-3
6.549970167E0,-2.136230469E-4,3.540039062E-3,-2.182006836E-3
6.555005567E0,3.356933594E-4,3.005981445E-3,-2.182006836E-3
6.560040967E0,8.697509766E-4,1.403808594E-3,-3.250122070E-3
6.565076368E0,1.403808594E-3,1.998901367E-3,-3.219604492E-3
6.570111768E0,1.403808594E-3,2.441406250E-3,-2.716064453E-3
6.575147168E0,8.239746094E-4,2.517700195E-3,-2.716064453E-3
6.580182569E0,9.155273438E-4,2.426147461E-3,-2.716064453E-3
6.585217969E0,1.998901367E-3,1.953125000E-3,-2.716064453E-3
6.590253370E0,2.471923828E-3,2.548217773E-3,-2.716064453E-3
6.595288770E0,2.471923828E-3,3.021240234E-3,-2.716064453E-3
6.600324170E0,2.471923828E-3,1.770019531E-3,-2.716064453E-3
6.605359571E0,1.190185547E-3,1.510620117E-3,-3.341674805E-3
6.610394971E0,3.356933594E-4,1.296997070E-3,-5.065917969E-3
6.615430372E0,3.356933594E-4,8.850097656E-4,-4.608154297E-3
6.620465772E0,3.356933594E-4,1.541137695E-3,-4.440307617E-3
6.625501172E0,3.356933594E-4,1.266479492E-3,-4.165649414E-3
6.630536573E0,3.356933594E-4,1.556396484E-3,-3.784179688E-3
6.635571973E0,1.708984375E-3,1.251220703E-3,-3.082275391E-3
6.640607374E0,2.471923828E-3,1.831054688E-4,-3.402709961E-3
6.645642774E0,1.037597656E-3,5.187988281E-4,-3.067016602E-3
6.650678174E0,-3.967285156E-4,8.850097656E-4,-2.716064453E-3
6.655713575E0,1.449584961E-3,1.525878906E-4,-2.716064453E-3
6.660748975E0,1.724243164E-3,-1.831054688E-4,-3.448486328E-3
6.665784375E0,2.899169922E-3,-1.831054688E-4,-3.784179688E-3
6.670819776E0,2.777099609E-3,-1.831054688E-4,-3.784179688E-3
6.675855176E0,9.307861328E-4,-1.831054688E-4,-4.547119141E-3
6.680890577E0,3.356933594E-4,-1.831054688E-4,-4.852294922E-3
6.685925977E0,3.356933594E-4,-1.831054688E-4,-4.852294922E-3
6.690961377E0,1.922607422E-3,6.103515625E-4,-4.852294922E-3
6.695996778E0,1.663208008E-3,7.629394531E-5,-4.043579102E-3
6.701032178E0,5.798339844E-4,-1.007080078E-3,-3.784179688E-3
6.706067579E0,3.356933594E-4,-4.272460938E-4,-3.784179688E-3
6.711102979E0,1.159667969E-3,-1.831054688E-4,-4.608154297E-3
6.716138379E0,1.403808594E-3,-1.037597656E-3,-3.997802734E-3
6.721173780E0,1.403808594E-3,4.425048828E-4,-4.623413086E-3
6.726209180E0,1.403808594E-3,1.525878906E-5,-3.112792969E-3
6.731244581E0,5.187988281E-4,-1.831054688E-4,-2.716064453E-3
6.736279981E0,2.090454102E-3,-1.831054688E-4,-2.716064453E-3
6.741315381E0,2.471923828E-3,-1.083374023E-3,-2.716064453E-3
6.746350782E0,2.471923828E-3,-2.166748047E-3,-2.716064453E-3
6.751386182E0,2.471923828E-3,-2.319335938E-3,-2.716064453E-3
6.756421583E0,-3.051757812E-4,4.425048828E-4,-3.631591797E-3
6.761456983E0,-7.324218750E-4,-6.103515625E-5,-2.838134766E-3
6.766492383E0,-7.324218750E-4,-1.129150391E-3,-3.646850586E-3
6.771527784E0,-7.324218750E-4,-3.051757812E-4,-2.822875977E-3
6.776563184E0,2.136230469E-4,-1.144409180E-3,-1.754760742E-3
6.781598584E0,3.356933594E-4,-2.227783203E-3,-2.609252930E-3
6.786633985E0,1.312255859E-3,-1.342773438E-3,-2.716064453E-3
6.791669385E0,1.403808594E-3,-1.251220703E-3,-2.716064453E-3
6.796704786E0,1.403808594E-3,-3.265380859E-3,-2.716064453E-3
6.801740186E0,3.814697266E-4,-1.373291016E-3,-2.716064453E-3
6.806775586E0,-6.866455078E-4,-1.251220703E-3,-1.693725586E-3
6.811810987E0,2.899169922E-4,-1.251220703E-3,-1.647949219E-3
6.816846387E0,-7.019042969E-4,-2.288818359E-3,-2.670288086E-3
6.821881788E0,-7.324218750E-4,-1.281738281E-3,-1.663208008E-3
6.826917188E0,-7.324218750E-4,-2.304077148E-3,-5.950927734E-4
6.831952588E0,-7.324218750E-4,-2.319335938E-3,-5.798339844E-4
6.836987989E0,-7.324218750E-4,-2.319335938E-3,-5.798339844E-4
6.842023389E0,3.051757812E-4,-2.304077148E-3,-5.798339844E-4
6.847058790E0,-7.324218750E-4,-1.281738281E-3,-5.950927734E-4
6.852094190E0,-7.324218750E-4,-2.319335938E-3,-1.647949219E-3
6.857129590E0,-6.408691406E-4,-2.319335938E-3,-1.647949219E-3
6.862164991E0,1.403808594E-3,-2.319335938E-3,-1.647949219E-3
6.867200391E0,1.403808594E-3,-2.258300781E-3,-1.647949219E-3
6.872235792E0,1.235961914E-3,-1.251220703E-3,-1.556396484E-3
6.877271192E0,-7.324218750E-4,-1.251220703E-3,-7.476806641E-4
6.882306592E0,-5.493164062E-4,-1.159667969E-3,-2.517700195E-3
6.887341993E0,1.296997070E-3,-3.967285156E-4,-4.730224609E-4
6.892377393E0,3.356933594E-4,-2.212524414E-3,3.814697266E-4
6.897412793E0,3.356933594E-4,-1.388549805E-3,-4.425048828E-4
6.902448194E0,3.356933594E-4,-2.456665039E-3,3.662109375E-4
6.907483594E0,3.356933594E-4,-3.250122070E-3,-5.798339844E-4
6.912518995E0,1.678466797E-4,-2.319335938E-3,-4.119873047E-4
6.917554395E0,-9.002685547E-4,-2.319335938E-3,3.356933594E-4
6.922589795E0,-1.983642578E-3,-2.319335938E-3,-5.798339844E-4
6.927625196E0,-2.151489258E-3,-2.151489258E-3,-3.967285156E-4
6.932660596E0,1.403808594E-3,-1.632690430E-3,6.866455078E-4
6.937695997E0,1.403808594E-3,-3.601074219E-3,1.358032227E-3
6.942731397E0,9.613037109E-4,-4.241943359E-3,4.882812500E-4
6.947766797E0,-5.187988281E-4,-3.387451172E-3,4.882812500E-4
6.952802198E0,3.356933594E-4,-3.158569336E-3,9.613037109E-4
6.957837598E0,3.356933594E-4,-2.075195312E-3,2.380371094E-3
6.962872999E0,3.356933594E-4,-1.510620117E-3,1.312255859E-3
6.967908399E0,6.103515625E-5,-2.853393555E-3,4.882812500E-4
6.972943799E0,-7.324218750E-4,-3.921508789E-3,1.037597656E-3
6.977979200E0,-4.577636719E-4,-2.044677734E-3,2.624511719E-3
6.983014600E0,3.356933594E-4,-1.831054688E-3,2.349853516E-3
6.988050000E0,6.256103516E-4,-3.097534180E-3,1.266479492E-3
6.993085401E0,1.083374023E-3,-2.639770508E-3,4.882812500E-4
6.998120801E0,6.408691406E-4,-3.082275391E-3,4.882812500E-4
7.003156202E0,7.476806641E-4,-2.655029297E-3,8.239746094E-4
7.008191602E0,-7.324218750E-4,-3.387451172E-3,1.220703125E-3
7.013227002E0,-1.083374023E-3,-3.051757812E-3,8.392333984E-4
7.018262403E0,-1.800537109E-3,-2.685546875E-3,1.205444336E-3
7.023297803E0,-2.166748047E-3,-3.387451172E-3,4.882812500E-4
7.028333204E0,-2.502441406E-3,-3.768920898E-3,8.697509766E-4
7.033368604E0,-1.800537109E-3,-4.455566406E-3,1.556396484E-3
7.038404004E0,-1.800537109E-3,-4.074096680E-3,1.556396484E-3
7.043439405E0,-1.403808594E-3,-3.387451172E-3,1.968383789E-3
7.048474805E0,-1.159667969E-3,-2.563476562E-3,2.212524414E-3
7.053510206E0,-9.613037109E-4,-1.251220703E-3,1.983642578E-3
7.058545606E0,-1.068115234E-4,-1.693725586E-3,2.624511719E-3
7.063581006E0,-7.324218750E-4,-1.892089844E-3,3.067016602E-3
7.068616407E0,-2.899169922E-4,-1.251220703E-3,3.692626953E-3
7.073651807E0,-1.373291016E-4,-1.724243164E-3,3.692626953E-3
7.078687208E0,-7.324218750E-4,-2.792358398E-3,3.234863281E-3
7.083722608E0,-7.324218750E-4,-3.387451172E-3,2.151489258E-3
7.088758008E0,2.441406250E-4,-3.387451172E-3,2.059936523E-3
7.093793409E0,9.002685547E-4,-2.899169922E-3,3.128051758E-3
7.098828809E0,8.392333984E-4,-2.319335938E-3,3.692626953E-3
7.103864209E0,3.662109375E-4,-2.319335938E-3,3.189086914E-3
7.108899610E0,3.204345703E-4,-1.800537109E-3,2.624511719E-3
7.113935010E0,8.697509766E-4,-7.171630859E-4,3.158569336E-3
7.118970411E0,3.356933594E-4,-1.281738281E-3,4.241943359E-3
7.124005811E0,3.356933594E-4,-1.770019531E-3,4.211425781E-3
7.129041211E0,3.356933594E-4,-7.019042969E-4,3.143310547E-3
7.134076612E0,9.002685547E-4,-1.831054688E-4,3.204345703E-3
7.139112012E0,1.403808594E-3,-7.781982422E-4,3.112792969E-3
7.144147413E0,8.087158203E-4,-1.251220703E-3,2.044677734E-3
7.149182813E0,-2.746582031E-4,-1.251220703E-3,2.166748047E-3
7.154218213E0,4.730224609E-4,-1.861572266E-3,2.029418945E-3
7.159253614E0,1.403808594E-3,-1.708984375E-3,1.556396484E-3
7.164289014E0,2.029418945E-3,-1.251220703E-3,9.307861328E-4
7.169324415E0,2.471923828E-3,-6.256103516E-4,4.882812500E-4
7.174359815E0,1.815795898E-3,-1.831054688E-4,1.144409180E-3
7.179395215E0,7.324218750E-4,4.730224609E-4,2.227783203E-3
7.184430616E0,-3.356933594E-4,2.136230469E-4,2.624511719E-3
7.189466016E0,-7.324218750E-4,-1.831054688E-4,1.953125000E-3
7.194501417E0,-7.324218750E-4,4.882812500E-4,1.556396484E-3
7.199536817E0,6.561279297E-4,8.850097656E-4,2.258300781E-3
7.204572217E0,2.807617188E-3,1.586914062E-3,2.624511719E-3
7.209607618E0,1.388549805E-3,1.235961914E-3,2.624511719E-3
7.214643018E0,3.356933594E-4,8.850097656E-4,2.624511719E-3
7.219678418E0,1.800537109E-3,1.617431641E-3,2.624511719E-3
7.224713819E0,2.471923828E-3,1.953125000E-3,2.624511719E-3
7.229749219E0,9.613037109E-4,1.190185547E-3,1.876831055E-3
7.234784620E0,1.083374023E-3,8.850097656E-4,4.577636719E-5
7.239820020E0,1.403808594E-3,8.850097656E-4,9.765625000E-4
7.244855420E0,6.103515625E-4,1.663208008E-3,0.000000000E0
7.249890821E0,1.113891602E-3,2.731323242E-3,-1.358032227E-3
7.254926221E0,2.197265625E-3,2.212524414E-3,-4.577636719E-5
7.259961622E0,1.647949219E-3,1.953125000E-3,4.882812500E-4
7.264997022E0,2.212524414E-3,1.129150391E-3,4.882812500E-4
7.270032422E0,1.632690430E-3,8.850097656E-4,1.327514648E-3
7.275067823E0,5.493164062E-4,1.724243164E-3,-1.220703125E-4
7.280103223E0,1.174926758E-3,1.953125000E-3,-5.798339844E-4
7.285138624E0,2.258300781E-3,1.953125000E-3,-2.288818359E-3
7.290174024E0,2.471923828E-3,1.068115234E-3,-9.613037109E-4
7.295209424E0,3.341674805E-3,0.000000000E0,3.051757812E-4
7.300244825E0,1.754760742E-3,7.019042969E-4,4.882812500E-4
7.305280225E0,1.403808594E-3,8.850097656E-4,-3.967285156E-4
7.310315625E0,1.403808594E-3,1.785278320E-3,3.356933594E-4
7.315351026E0,2.319335938E-3,1.953125000E-3,4.882812500E-4
7.320386426E0,3.387451172E-3,3.799438477E-3,-4.272460938E-4
7.325421827E0,3.540039062E-3,3.143310547E-3,-1.510620117E-3
7.330457227E0,2.593994141E-3,3.021240234E-3,-7.019042969E-4
7.335492627E0,1.510620117E-3,2.059936523E-3,3.814697266E-4
7.340528028E0,4.272460938E-4,2.914428711E-3,-4.730224609E-4
7.345563428E0,1.296997070E-3,3.021240234E-3,-5.798339844E-4
7.350598829E0,1.403808594E-3,1.052856445E-3,-1.556396484E-3
7.355634229E0,3.387451172E-3,8.850097656E-4,-1.647949219E-3
7.360669629E0,2.532958984E-3,1.876831055E-3,-6.408691406E-4
7.365705030E0,2.471923828E-3,2.960205078E-3,-5.798339844E-4
7.370740430E0,3.494262695E-3,3.021240234E-3,-3.646850586E-3
7.375775831E0,2.502441406E-3,3.021240234E-3,-1.708984375E-3
7.380811231E0,2.471923828E-3,4.058837891E-3,-1.647949219E-3
7.385846631E0,1.419067383E-3,4.089355469E-3,-2.685546875E-3
7.390882032E0,1.403808594E-3,4.089355469E-3,-1.647949219E-3
7.395917432E0,2.471923828E-3,3.021240234E-3,-2.700805664E-3
7.400952833E0,3.540039062E-3,4.089355469E-3,-1.647949219E-3
7.405988233E0,3.494262695E-3,4.058837891E-3,-1.647949219E-3
7.411023633E0,1.358032227E-3,3.021240234E-3,-1.647949219E-3
7.416059034E0,3.662109375E-4,3.021240234E-3,-1.647949219E-3
7.421094434E0,1.449584961E-3,2.960205078E-3,-1.693725586E-3
7.426129834E0,2.395629883E-3,1.953125000E-3,-2.639770508E-3
7.431165235E0,1.403808594E-3,2.014160156E-3,-1.647949219E-3
7.436200635E0,1.403808594E-3,3.021240234E-3,-1.647949219E-3
7.441236036E0,1.495361328E-3,3.021240234E-3,-1.647949219E-3
7.446271436E0,2.471923828E-3,3.021240234E-3,-1.647949219E-3
7.451306836E0,2.471923828E-3,2.792358398E-3,-1.647949219E-3
7.456342237E0,2.334594727E-3,1.007080078E-3,-1.770019531E-3
7.461377637E0,1.525878906E-3,2.075195312E-3,-2.578735352E-3
7.466413038E0,2.182006836E-3,3.021240234E-3,-1.922607422E-3
7.471448438E0,3.356933594E-4,3.021240234E-3,-3.631591797E-3
7.476483838E0,3.356933594E-4,3.341674805E-3,-2.716064453E-3
7.481519239E0,5.035400391E-4,5.157470703E-3,-2.716064453E-3
7.486554639E0,1.403808594E-3,5.157470703E-3,-2.716064453E-3
7.491590040E0,1.586914062E-3,4.776000977E-3,-2.517700195E-3
7.496625440E0,2.471923828E-3,3.402709961E-3,-1.647949219E-3
7.501660840E0,2.258300781E-3,4.943847656E-3,-1.647949219E-3
7.506696241E0,1.403808594E-3,4.302978516E-3,-1.647949219E-3
7.511731641E0,1.174926758E-3,5.371093750E-3,-1.861572266E-3
7.516767042E0,5.645751953E-4,5.981445312E-3,-2.944946289E-3
7.521802442E0,1.403808594E-3,5.157470703E-3,-3.784179688E-3
7.526837842E0,1.403808594E-3,4.898071289E-3,-3.524780273E-3
7.531873243E0,1.403808594E-3,4.089355469E-3,-2.441406250E-3
7.536908643E0,1.663208008E-3,4.089355469E-3,-1.647949219E-3
7.541944043E0,2.471923828E-3,4.364013672E-3,-1.647949219E-3
7.546979444E0,2.471923828E-3,4.852294922E-3,-1.647949219E-3
7.552014844E0,2.471923828E-3,4.379272461E-3,-1.647949219E-3
7.557050245E0,2.151489258E-3,5.157470703E-3,-1.327514648E-3
7.562085645E0,1.403808594E-3,5.462646484E-3,-2.593994141E-4
7.567121045E0,1.068115234E-3,5.569458008E-3,-1.525878906E-4
7.572156446E0,3.356933594E-4,4.089355469E-3,-1.647949219E-3
7.577191846E0,6.713867188E-4,4.425048828E-3,-1.983642578E-3
7.582227247E0,1.037597656E-3,4.791259766E-3,-2.349853516E-3
7.587262647E0,3.356933594E-4,4.440307617E-3,-1.647949219E-3
7.592298047E0,3.356933594E-4,5.157470703E-3,-1.266479492E-3
7.597333448E0,3.356933594E-4,5.157470703E-3,-5.798339844E-4
7.602368848E0,3.356933594E-4,5.157470703E-3,-9.613037109E-4
7.607404249E0,3.356933594E-4,5.554199219E-3,-1.647949219E-3
7.612439649E0,7.476806641E-4,6.225585938E-3,-1.647949219E-3
7.617475049E0,9.765625000E-4,6.225585938E-3,-7.934570312E-4
7.622510450E0,7.629394531E-4,5.783081055E-3,4.882812500E-4
7.627545850E0,5.035400391E-4,5.157470703E-3,4.577636719E-5
7.632581250E0,-1.190185547E-3,4.699707031E-3,-1.022338867E-3
7.637616651E0,-8.850097656E-4,4.547119141E-3,-1.174926758E-3
7.642652051E0,3.356933594E-4,5.157470703E-3,-5.798339844E-4
7.647687452E0,3.356933594E-4,5.157470703E-3,-5.798339844E-4
7.652722852E0,3.356933594E-4,4.653930664E-3,-7.629394531E-5
7.657758252E0,3.356933594E-4,4.577636719E-3,-5.035400391E-4
7.662793653E0,-1.831054688E-4,5.661010742E-3,-1.647949219E-3
7.667829053E0,3.051757812E-4,6.225585938E-3,-1.113891602E-3
7.672864454E0,1.403808594E-3,5.691528320E-3,-5.798339844E-4
7.677899854E0,8.544921875E-4,4.608154297E-3,-5.798339844E-4
7.682935254E0,3.356933594E-4,4.089355469E-3,-1.113891602E-3
7.687970655E0,1.449584961E-3,4.089355469E-3,-1.083374023E-3
7.693006055E0,7.629394531E-4,4.653930664E-3,-5.798339844E-4
7.698041456E0,-1.312255859E-3,5.157470703E-3,-1.144409180E-3
7.703076856E0,-1.800537109E-3,5.157470703E-3,-1.052856445E-3
7.708112256E0,-1.220703125E-3,5.157470703E-3,-5.798339844E-4
7.713147657E0,4.730224609E-4,5.157470703E-3,-5.798339844E-4
7.718183057E0,1.678466797E-4,5.767822266E-3,6.561279297E-4
7.723218458E0,-1.358032227E-3,5.599975586E-3,1.556396484E-3
7.728253858E0,-5.493164062E-4,5.157470703E-3,9.307861328E-4
7.733289258E0,3.356933594E-4,5.157470703E-3,1.785278320E-3
7.738324659E0,-3.204345703E-4,5.157470703E-3,2.624511719E-3
7.743360059E0,-7.324218750E-4,5.157470703E-3,1.312255859E-3
7.748395459E0,-1.403808594E-3,4.486083984E-3,1.159667969E-3
7.753430860E0,-1.129150391E-3,4.760742188E-3,1.556396484E-3
7.758466260E0,-2.120971680E-3,5.157470703E-3,8.697509766E-4
7.763501661E0,-2.182006836E-3,5.157470703E-3,4.882812500E-4
7.768537061E0,-1.098632812E-3,4.440307617E-3,1.922607422E-3
7.773572461E0,-1.449584961E-3,3.372192383E-3,1.922607422E-3
7.778607862E0,-1.083374023E-3,3.021240234E-3,8.392333984E-4
7.783643262E0,0.000000000E0,3.021240234E-3,1.968383789E-3
7.788678663E0,-1.159667969E-3,4.501342773E-3,1.144409180E-3
7.793714063E0,-1.052856445E-3,5.157470703E-3,2.014160156E-3
7.798749463E0,3.051757812E-5,5.157470703E-3,3.356933594E-4
7.803784864E0,-1.220703125E-3,5.157470703E-3,1.983642578E-4
7.808820264E0,-2.288818359E-4,4.364013672E-3,1.281738281E-3
7.813855665E0,-4.730224609E-4,4.089355469E-3,1.556396484E-3
7.818891065E0,-7.324218750E-4,4.089355469E-3,7.629394531E-4
7.823926465E0,-7.324218750E-4,4.898071289E-3,1.312255859E-3
7.828961866E0,-1.556396484E-3,5.157470703E-3,2.380371094E-3
7.833997266E0,-1.373291016E-4,4.318237305E-3,2.624511719E-3
7.839032667E0,-5.187988281E-4,3.234863281E-3,2.624511719E-3
7.844068067E0,1.068115234E-4,2.166748047E-3,2.624511719E-3
7.849103467E0,3.356933594E-4,2.807617188E-3,2.624511719E-3
7.854138868E0,-5.493164062E-4,3.890991211E-3,2.624511719E-3
7.859174268E0,-1.617431641E-3,3.204345703E-3,2.624511719E-3
7.864209668E0,-9.155273438E-4,3.021240234E-3,2.624511719E-3
7.869245069E0,1.052856445E-3,3.021240234E-3,2.624511719E-3
7.874280469E0,4.882812500E-4,3.021240234E-3,2.624511719E-3
7.879315870E0,-5.950927734E-4,3.021240234E-3,2.624511719E-3
7.884351270E0,-7.324218750E-4,3.021240234E-3,2.624511719E-3
7.889386670E0,-7.324218750E-4,3.952026367E-3,2.624511719E-3
7.894422071E0,2.136230469E-4,2.182006836E-3,2.624511719E-3
7.899457471E0,3.356933594E-4,1.953125000E-3,1.663208008E-3
7.904492872E0,3.356933594E-4,2.914428711E-3,1.556396484E-3
7.909528272E0,3.356933594E-4,2.029418945E-3,2.548217773E-3
7.914563672E0,3.356933594E-4,3.921508789E-3,2.624511719E-3
7.919599073E0,3.356933594E-4,4.089355469E-3,1.632690430E-3
7.924634473E0,3.356933594E-4,3.067016602E-3,-4.577636719E-4
7.929669874E0,3.356933594E-4,3.021240234E-3,2.487182617E-3
7.934705274E0,3.356933594E-4,3.021240234E-3,2.624511719E-3
7.939740674E0,3.356933594E-4,3.021240234E-3,1.586914062E-3
7.944776075E0,-7.171630859E-4,1.968383789E-3,2.609252930E-3
7.949811475E0,-7.324218750E-4,8.850097656E-4,2.624511719E-3
7.954846875E0,3.356933594E-4,8.850097656E-4,1.556396484E-3
7.959882276E0,2.471923828E-3,1.937866211E-3,1.571655273E-3
7.964917676E0,2.471923828E-3,8.697509766E-4,2.624511719E-3
7.969953077E0,2.441406250E-3,-1.678466797E-4,1.556396484E-3
7.974988477E0,1.403808594E-3,8.850097656E-4,1.556396484E-3
7.980023877E0,1.434326172E-3,8.850097656E-4,1.556396484E-3
7.985059278E0,2.410888672E-3,9.307861328E-4,1.510620117E-3
7.990094678E0,1.403808594E-3,1.953125000E-3,5.493164062E-4
7.995130079E0,1.464843750E-3,1.953125000E-3,1.495361328E-3
8.000165479E0,2.380371094E-3,1.861572266E-3,4.119873047E-4
8.005200879E0,1.403808594E-3,7.934570312E-4,-4.882812500E-4
8.010236280E0,1.495361328E-3,-1.831054688E-4,3.967285156E-4
8.015271680E0,2.349853516E-3,-7.629394531E-5,-5.798339844E-4
8.020307081E0,1.403808594E-3,9.918212891E-4,-6.866455078E-4
8.025342481E0,1.525878906E-3,2.075195312E-3,-1.510620117E-3
8.030377881E0,2.334594727E-3,2.746582031E-3,-4.425048828E-4
8.035413282E0,1.403808594E-3,1.022338867E-3,4.882812500E-4
8.040448682E0,1.403808594E-3,1.785278320E-3,3.356933594E-4
8.045484083E0,1.251220703E-3,7.324218750E-4,-5.798339844E-4
8.050519483E0,3.356933594E-4,-1.831054688E-4,-5.798339844E-4
8.055554883E0,5.035400391E-4,-1.525878906E-5,-5.798339844E-4
8.060590284E0,1.403808594E-3,8.850097656E-4,-3.814697266E-4
8.065625684E0,1.602172852E-3,1.083374023E-3,4.882812500E-4
8.070661084E0,2.670288086E-3,2.151489258E-3,2.899169922E-4
8.075696485E0,3.311157227E-3,2.792358398E-3,-3.509521484E-4
8.080731885E0,2.227783203E-3,1.480102539E-3,4.882812500E-4
8.085767286E0,1.403808594E-3,-4.272460938E-4,1.525878906E-5
8.090802686E0,1.144409180E-3,-1.007080078E-3,-1.892089844E-3
8.095838086E0,3.356933594E-4,7.629394531E-5,-2.182006836E-3
8.100873487E0,5.950927734E-4,6.103515625E-4,-3.051757812E-4
8.105908887E0,1.403808594E-3,-1.831054688E-4,-6.103515625E-5
8.110944288E0,1.678466797E-3,9.155273438E-5,-1.922607422E-3
8.115979688E0,2.166748047E-3,8.850097656E-4,-2.105712891E-3
8.121015088E0,1.403808594E-3,5.645751953E-4,-5.798339844E-4
8.126050489E0,1.708984375E-3,-1.831054688E-4,-8.850097656E-4
8.131085889E0,2.471923828E-3,4.577636719E-4,-1.647949219E-3
8.136121290E0,2.792358398E-3,1.953125000E-3,-1.968383789E-3
8.141156690E0,3.189086914E-3,9.155273438E-4,-2.716064453E-3
8.146192090E0,2.471923828E-3,-1.983642578E-4,-2.716064453E-3
8.151227491E0,2.471923828E-3,1.586914062E-3,-2.349853516E-3
8.156262891E0,3.204345703E-3,5.035400391E-4,-1.647949219E-3
8.161298292E0,4.608154297E-3,1.983642578E-4,-2.029418945E-3
8.166333692E0,4.211425781E-3,1.663208008E-3,-2.716064453E-3
8.171369092E0,3.540039062E-3,2.609252930E-3,-2.304077148E-3
8.176404493E0,3.128051758E-3,1.541137695E-3,-2.044677734E-3
8.181439893E0,2.471923828E-3,4.577636719E-4,-1.876831055E-3
8.186475293E0,2.471923828E-3,-6.256103516E-4,-1.007080078E-3
8.191510694E0,2.471923828E-3,-8.239746094E-4,-1.647949219E-3
8.196546094E0,2.471923828E-3,-1.831054688E-4,-1.647949219E-3
8.201581495E0,1.998901367E-3,-6.561279297E-4,-2.105712891E-3
8.206616895E0,1.861572266E-3,-7.934570312E-4,-2.716064453E-3
8.211652295E0,2.944946289E-3,-6.713867188E-4,-2.716064453E-3
8.216687696E0,3.036499023E-3,-1.251220703E-3,-2.212524414E-3
8.221723096E0,2.471923828E-3,-2.746582031E-4,-1.647949219E-3
8.226758497E0,2.975463867E-3,-1.373291016E-4,-2.151489258E-3
8.231793897E0,3.021240234E-3,-1.251220703E-3,-2.197265625E-3
8.236829297E0,2.471923828E-3,-7.324218750E-4,-2.166748047E-3
8.241864698E0,2.471923828E-3,-1.831054688E-4,-3.234863281E-3
8.246900098E0,1.922607422E-3,-1.831054688E-4,-2.685546875E-3
8.251935499E0,8.392333984E-4,-7.476806641E-4,-1.647949219E-3
8.256970899E0,1.449584961E-3,-7.019042969E-4,-2.197265625E-3
8.262006299E0,3.036499023E-3,3.814697266E-4,-3.280639648E-3
8.267041700E0,2.960205078E-3,1.449584961E-3,-2.624511719E-3
8.272077100E0,1.876831055E-3,1.358032227E-3,-1.647949219E-3
8.277112500E0,1.403808594E-3,2.746582031E-4,-1.647949219E-3
8.282147901E0,1.403808594E-3,-1.831054688E-4,-2.853393555E-3
8.287183301E0,7.781982422E-4,-8.087158203E-4,-3.158569336E-3
8.292218702E0,9.613037109E-4,-1.251220703E-3,-2.716064453E-3
8.297254102E0,1.403808594E-3,-6.256103516E-4,-2.075195312E-3
8.302289502E0,2.044677734E-3,-1.831054688E-4,-2.288818359E-3
8.307324903E0,1.144409180E-3,-1.831054688E-4,-2.716064453E-3
8.312360303E0,3.356933594E-4,4.730224609E-4,-2.716064453E-3
8.317395704E0,1.007080078E-3,1.983642578E-4,-3.387451172E-3
8.322431104E0,1.403808594E-3,5.035400391E-4,-2.395629883E-3
8.327466504E0,1.403808594E-3,8.850097656E-4,-1.647949219E-3
8.332501905E0,2.105712891E-3,-5.340576172E-4,-2.349853516E-3
8.337537305E0,1.754760742E-3,-1.968383789E-3,-2.716064453E-3
8.342572706E0,1.403808594E-3,-1.602172852E-3,-2.716064453E-3
8.347608106E0,1.403808594E-3,-5.340576172E-4,-1.983642578E-3
8.352643506E0,1.403808594E-3,-1.831054688E-4,-2.380371094E-3
8.357678907E0,6.408691406E-4,-9.460449219E-4,-2.716064453E-3
8.362714307E0,-4.425048828E-4,2.746582031E-4,-2.716064453E-3
8.367749708E0,8.087158203E-4,1.647949219E-3,-2.716064453E-3
8.372785108E0,-1.831054688E-4,1.159667969E-3,-1.922607422E-3
8.377820508E0,6.103515625E-5,7.629394531E-5,-2.441406250E-3
8.382855909E0,3.356933594E-4,-1.831054688E-4,-2.716064453E-3
8.387891309E0,-4.882812500E-4,-1.831054688E-4,-2.716064453E-3
8.392926709E0,9.155273438E-5,1.464843750E-3,-1.876831055E-3
8.397962110E0,3.356933594E-4,1.953125000E-3,-2.471923828E-3
8.402997510E0,1.174926758E-3,2.593994141E-4,-1.861572266E-3
8.408032911E0,-3.051757812E-4,6.561279297E-4,-1.647949219E-3
8.413068311E0,-7.324218750E-4,1.739501953E-3,-1.647949219E-3
8.418103711E0,-1.617431641E-3,1.068115234E-3,-1.647949219E-3
8.423139112E0,-1.800537109E-3,1.754760742E-3,-1.647949219E-3
8.428174512E0,-1.800537109E-3,1.953125000E-3,-1.647949219E-3
8.433209913E0,-1.525878906E-5,1.953125000E-3,-7.476806641E-4
8.438245313E0,3.356933594E-4,1.037597656E-3,-5.798339844E-4
8.443280713E0,-5.950927734E-4,8.850097656E-4,-2.410888672E-3
8.448316114E0,-1.663208008E-3,8.850097656E-4,-2.716064453E-3
8.453351514E0,-1.800537109E-3,1.815795898E-3,-8.392333984E-4
8.458386915E0,-8.697509766E-4,1.007080078E-3,-5.798339844E-4
8.463422315E0,2.136230469E-4,-1.037597656E-3,-5.798339844E-4
8.468457715E0,3.356933594E-4,6.713867188E-4,-5.798339844E-4
8.473493116E0,1.296997070E-3,1.846313477E-3,3.967285156E-4
8.478528516E0,4.119873047E-4,1.953125000E-3,4.882812500E-4
8.483563917E0,-6.713867188E-4,-4.577636719E-5,-5.035400391E-4
8.488599317E0,-7.324218750E-4,1.815795898E-3,-5.798339844E-4
8.493634717E0,2.746582031E-4,2.960205078E-3,4.425048828E-4
8.498670118E0,3.356933594E-4,9.765625000E-4,4.882812500E-4
8.503705518E0,3.356933594E-4,8.850097656E-4,1.525878906E-3
8.508740918E0,3.356933594E-4,8.850097656E-4,-1.556396484E-3
8.513776319E0,3.356933594E-4,1.922607422E-3,-5.950927734E-4
8.518811719E0,3.356933594E-4,1.953125000E-3,1.556396484E-3
8.523847120E0,-7.324218750E-4,1.953125000E-3,1.556396484E-3
8.528882520E0,-1.800537109E-3,8.850097656E-4,2.624511719E-3
8.533917920E0,-1.754760742E-3,8.239746094E-4,2.624511719E-3
8.538953321E0,2.593994141E-4,-1.220703125E-3,2.624511719E-3
8.543988721E0,-1.846313477E-3,-1.525878906E-4,2.593994141E-3
8.549024122E0,-2.868652344E-3,9.307861328E-4,1.617431641E-3
8.554059522E0,-2.822875977E-3,1.953125000E-3,2.578735352E-3
8.559094922E0,-1.800537109E-3,1.953125000E-3,1.495361328E-3
8.564130323E0,-1.892089844E-3,2.029418945E-3,5.798339844E-4
8.569165723E0,-2.960205078E-3,3.021240234E-3,1.556396484E-3
8.574201124E0,-3.646850586E-3,2.822875977E-3,1.464843750E-3
8.579236524E0,-7.324218750E-4,9.918212891E-4,4.882812500E-4
8.584271924E0,-8.544921875E-4,2.182006836E-3,4.882812500E-4
8.589307325E0,-1.800537109E-3,3.707885742E-3,6.256103516E-4
8.594342725E0,-1.678466797E-3,1.007080078E-3,1.556396484E-3
8.599378125E0,-8.850097656E-4,1.953125000E-3,1.556396484E-3
8.604413526E0,-1.800537109E-3,1.953125000E-3,1.556396484E-3
8.609448926E0,-1.647949219E-3,1.953125000E-3,1.556396484E-3
8.614484327E0,-9.155273438E-4,2.120971680E-3,1.739501953E-3
8.619519727E0,-1.800537109E-3,3.021240234E-3,2.258300781E-3
8.624555127E0,-1.800537109E-3,3.021240234E-3,4.882812500E-4
8.629590528E0,-1.602172852E-3,3.021240234E-3,4.882812500E-4
8.634625928E0,-7.324218750E-4,2.792358398E-3,7.171630859E-4
8.639661329E0,-7.324218750E-4,1.953125000E-3,1.785278320E-3
8.644696729E0,-9.765625000E-4,2.410888672E-3,2.395629883E-3
8.649732129E0,-1.800537109E-3,4.089355469E-3,1.327514648E-3
8.654767530E0,-1.327514648E-3,3.601074219E-3,9.765625000E-4
8.659802930E0,5.950927734E-4,1.419067383E-3,2.624511719E-3
8.664838331E0,8.544921875E-4,3.509521484E-4,2.624511719E-3
8.669873731E0,-4.577636719E-4,1.663208008E-3,2.914428711E-3
8.674909131E0,6.256103516E-4,1.174926758E-3,3.112792969E-3
8.679944532E0,1.403808594E-3,2.243041992E-3,1.266479492E-3
8.684979932E0,1.083374023E-3,2.700805664E-3,4.882812500E-4
8.690015333E0,3.356933594E-4,2.593994141E-3,4.882812500E-4
8.695050733E0,3.356933594E-4,3.753662109E-3,8.239746094E-4
8.700086133E0,-1.525878906E-5,2.670288086E-3,1.556396484E-3
8.705121534E0,-7.324218750E-4,2.288818359E-3,1.556396484E-3
8.710156934E0,-3.814697266E-4,2.655029297E-3,1.556396484E-3
8.715192334E0,3.356933594E-4,1.953125000E-3,8.239746094E-4
8.720227735E0,3.356933594E-4,2.700805664E-3,-1.983642578E-4
8.725263135E0,-6.103515625E-5,3.692626953E-3,1.068115234E-4
8.730298536E0,-7.324218750E-4,3.021240234E-3,-1.678466797E-4
8.735333936E0,7.629394531E-5,3.417968750E-3,9.002685547E-4
8.740369336E0,1.815795898E-3,4.501342773E-3,1.556396484E-3
8.745404737E0,1.617431641E-3,4.730224609E-3,1.144409180E-3
8.750440137E0,-1.068115234E-4,4.516601562E-3,4.882812500E-4
8.755475538E0,1.525878906E-4,5.157470703E-3,4.882812500E-4
8.760510938E0,1.846313477E-3,4.241943359E-3,4.882812500E-4
8.765546338E0,1.998901367E-3,3.021240234E-3,4.882812500E-4
8.770581739E0,1.876831055E-3,3.494262695E-3,4.882812500E-4
8.775617139E0,1.495361328E-3,4.089355469E-3,4.882812500E-4
8.780652540E0,8.239746094E-4,4.089355469E-3,4.882812500E-4
8.785687940E0,1.907348633E-3,4.089355469E-3,1.007080078E-3
8.790723340E0,2.471923828E-3,4.089355469E-3,1.052856445E-3
8.795758741E0,1.937866211E-3,4.608154297E-3,1.022338867E-3
8.800794141E0,1.403808594E-3,5.157470703E-3,1.556396484E-3
8.805829542E0,1.403808594E-3,5.157470703E-3,1.556396484E-3
8.810864942E0,1.953125000E-3,4.592895508E-3,1.007080078E-3
8.815900342E0,2.471923828E-3,4.089355469E-3,1.052856445E-3
8.820935743E0,1.892089844E-3,4.653930664E-3,2.136230469E-3
8.825971143E0,1.403808594E-3,6.332397461E-3,1.449584961E-3
8.831006543E0,1.998901367E-3,5.493164062E-3,-7.019042969E-4
8.836041944E0,2.471923828E-3,4.089355469E-3,-1.037597656E-3
8.841077344E0,3.082275391E-3,4.699707031E-3,4.577636719E-5
8.846112745E0,2.899169922E-3,3.890991211E-3,-7.629394531E-4
8.851148145E0,2.471923828E-3,3.021240234E-3,-3.662109375E-4
8.856183545E0,3.112792969E-3,4.318237305E-3,1.144409180E-3
8.861218946E0,2.212524414E-3,5.157470703E-3,2.441406250E-4
8.866254346E0,1.403808594E-3,4.486083984E-3,-5.798339844E-4
8.871289747E0,2.075195312E-3,4.760742188E-3,1.068115234E-4
8.876325147E0,2.471923828E-3,4.455566406E-3,-1.983642578E-4
8.881360547E0,2.471923828E-3,4.776000977E-3,-5.798339844E-4
8.886395948E0,1.754760742E-3,5.157470703E-3,1.373291016E-4
8.891431348E0,1.403808594E-3,5.157470703E-3,-2.136230469E-4
8.896466749E0,1.403808594E-3,5.157470703E-3,-5.798339844E-4
8.901502149E0,1.403808594E-3,4.409790039E-3,-5.798339844E-4
8.906537549E0,1.403808594E-3,4.089355469E-3,-1.312255859E-3
8.911572950E0,2.151489258E-3,4.089355469E-3,-1.647949219E-3
8.916608350E0,2.471923828E-3,4.089355469E-3,-2.395629883E-3
8.921643750E0,1.693725586E-3,4.852294922E-3,-1.937866211E-3
8.926679151E0,1.403808594E-3,5.157470703E-3,-8.544921875E-4
8.931714551E0,2.182006836E-3,3.570556641E-3,2.136230469E-4
8.936749952E0,2.471923828E-3,3.021240234E-3,-3.051757812E-4
8.941785352E0,2.471923828E-3,3.814697266E-3,-1.373291016E-3
8.946820752E0,3.280639648E-3,4.898071289E-3,-3.280639648E-3
8.951856153E0,3.540039062E-3,5.981445312E-3,-3.784179688E-3
8.956891553E0,2.716064453E-3,6.225585938E-3,-3.784179688E-3
8.961926954E0,3.311157227E-3,4.531860352E-3,-3.784179688E-3
8.966962354E0,4.394531250E-3,3.219604492E-3,-2.059936523E-3
8.971997754E0,2.868652344E-3,3.021240234E-3,-1.647949219E-3
8.977033155E0,2.471923828E-3,1.251220703E-3,-2.517700195E-3
8.982068555E0,2.471923828E-3,3.540039062E-3,-2.716064453E-3
8.987103956E0,2.471923828E-3,3.189086914E-3,-2.716064453E-3
8.992139356E0,1.556396484E-3,3.921508789E-3,-2.716064453E-3
8.997174756E0,1.403808594E-3,3.173828125E-3,-3.616333008E-3
9.002210157E0,3.250122070E-3,3.021240234E-3,-1.922607422E-3
9.007245557E0,1.663208008E-3,3.021240234E-3,-1.647949219E-3
9.012280958E0,4.577636719E-4,3.952026367E-3,-1.647949219E-3
9.017316358E0,3.204345703E-3,5.035400391E-3,-1.647949219E-3
9.022351758E0,3.540039062E-3,5.157470703E-3,-3.570556641E-3
9.027387159E0,2.563476562E-3,4.180908203E-3,-3.784179688E-3
9.032422559E0,2.471923828E-3,4.089355469E-3,-2.792358398E-3
9.037457959E0,3.448486328E-3,3.097534180E-3,-2.716064453E-3
9.042493360E0,1.525878906E-3,4.013061523E-3,-4.714965820E-3
9.047528760E0,1.403808594E-3,4.089355469E-3,-4.852294922E-3
9.052564161E0,1.403808594E-3,4.089355469E-3,-4.852294922E-3
9.057599561E0,1.403808594E-3,3.051757812E-3,-3.814697266E-3
9.062634961E0,1.403808594E-3,3.021240234E-3,-1.693725586E-3
9.067670362E0,3.509521484E-4,1.968383789E-3,-2.685546875E-3
9.072705762E0,1.388549805E-3,1.953125000E-3,-2.716064453E-3
9.077741163E0,-7.324218750E-4,8.850097656E-4,-3.784179688E-3
9.082776563E0,-7.171630859E-4,1.953125000E-3,-3.784179688E-3
9.087811963E0,1.373291016E-3,1.968383789E-3,-3.753662109E-3
9.092847364E0,3.356933594E-4,3.051757812E-3,-2.670288086E-3
9.097882764E0,4.119873047E-4,4.043579102E-3,-1.647949219E-3
9.102918165E0,2.410888672E-3,2.960205078E-3,-1.693725586E-3
9.107953565E0,1.266479492E-3,1.953125000E-3,-2.578735352E-3
9.112988965E0,-7.324218750E-4,1.953125000E-3,-7.171630859E-4
9.118024366E0,-6.561279297E-4,1.953125000E-3,-2.624511719E-3
9.123059766E0,4.272460938E-4,2.044677734E-3,-1.739501953E-3
9.128095167E0,1.296997070E-3,3.021240234E-3,-2.609252930E-3
9.133130567E0,1.068115234E-4,3.021240234E-3,-1.647949219E-3
9.138165967E0,-1.693725586E-3,2.777099609E-3,-1.403808594E-3
9.143201368E0,-7.324218750E-4,1.007080078E-3,3.662109375E-4
9.148236768E0,-7.324218750E-4,2.090454102E-3,-8.544921875E-4
9.153272168E0,-5.950927734E-4,2.868652344E-3,-2.853393555E-3
9.158307569E0,1.678466797E-4,2.105712891E-3,-3.616333008E-3
9.163342969E0,-7.324218750E-4,2.670288086E-3,-2.365112305E-3
9.168378370E0,-7.324218750E-4,8.850097656E-4,-5.798339844E-4
9.173413770E0,-7.324218750E-4,1.068115234E-3,-7.629394531E-4
9.178449170E0,-7.324218750E-4,1.953125000E-3,-1.449584961E-3
9.183484571E0,-9.460449219E-4,2.151489258E-3,-5.798339844E-4
9.188519971E0,-1.586914062E-3,2.792358398E-3,-5.798339844E-4
9.193555372E0,-7.324218750E-4,1.953125000E-3,-5.798339844E-4
9.198590772E0,-5.035400391E-4,1.708984375E-3,-5.798339844E-4
9.203626172E0,7.629394531E-5,1.129150391E-3,-3.204345703E-4
9.208661573E0,-9.918212891E-4,2.197265625E-3,4.882812500E-4
9.213696973E0,-2.075195312E-3,3.021240234E-3,2.288818359E-4
9.218732374E0,-2.319335938E-3,3.021240234E-3,-2.899169922E-4
9.223767774E0,-1.022338867E-3,2.441406250E-3,4.882812500E-4
9.228803174E0,-1.800537109E-3,1.174926758E-3,4.882812500E-4
9.233838575E0,-1.495361328E-3,1.953125000E-3,4.882812500E-4
9.238873975E0,-7.324218750E-4,1.953125000E-3,8.087158203E-4
9.243909375E0,-4.119873047E-4,1.617431641E-3,1.235961914E-3
9.248944776E0,0.000000000E0,1.205444336E-3,1.678466797E-4
9.253980176E0,-7.324218750E-4,1.953125000E-3,-5.798339844E-4
9.259015577E0,-7.324218750E-4,1.953125000E-3,-2.288818359E-4
9.264050977E0,-7.324218750E-4,1.953125000E-3,8.544921875E-4
9.269086377E0,-1.113891602E-3,1.953125000E-3,1.190185547E-3
9.274121778E0,-1.800537109E-3,1.556396484E-3,8.850097656E-4
9.279157178E0,-1.800537109E-3,8.850097656E-4,1.556396484E-3
9.284192579E0,-1.403808594E-3,8.850097656E-4,1.556396484E-3
9.289227979E0,-7.324218750E-4,1.708984375E-3,1.983642578E-3
9.294263379E0,-3.204345703E-4,3.021240234E-3,2.624511719E-3
9.299298780E0,3.356933594E-4,3.021240234E-3,2.197265625E-3
9.304334180E0,-1.220703125E-4,2.563476562E-3,2.014160156E-3
9.309369581E0,-1.205444336E-3,1.480102539E-3,2.166748047E-3
9.314404981E0,-1.800537109E-3,1.815795898E-3,6.256103516E-4
9.319440381E0,-1.800537109E-3,3.021240234E-3,-5.798339844E-4
9.324475782E0,-2.304077148E-3,3.021240234E-3,-5.798339844E-4
9.329511182E0,-2.380371094E-3,2.014160156E-3,4.272460938E-4
9.334546583E0,-7.934570312E-4,1.388549805E-3,1.556396484E-3
9.339581983E0,-1.831054688E-4,2.456665039E-3,1.556396484E-3
9.344617383E0,-1.266479492E-3,3.021240234E-3,2.090454102E-3
9.349652784E0,-1.800537109E-3,2.471923828E-3,2.090454102E-3
9.354688184E0,-1.266479492E-3,1.953125000E-3,1.022338867E-3
9.359723584E0,-1.831054688E-4,1.953125000E-3,1.052856445E-3
9.364758985E0,-2.288818359E-4,2.502441406E-3,1.556396484E-3
9.369794385E0,-1.312255859E-3,2.441406250E-3,9.918212891E-4
9.374829786E0,-1.235961914E-3,3.097534180E-3,1.068115234E-3
9.379865186E0,-7.324218750E-4,3.494262695E-3,2.151489258E-3
9.384900586E0,-7.324218750E-4,3.021240234E-3,2.624511719E-3
9.389935987E0,-1.373291016E-4,2.410888672E-3,1.419067383E-3
9.394971387E0,3.356933594E-4,1.953125000E-3,4.882812500E-4
9.400006788E0,-9.307861328E-4,2.578735352E-3,-1.373291016E-4
9.405042188E0,-1.800537109E-3,3.021240234E-3,-5.798339844E-4
9.410077588E0,-5.187988281E-4,3.021240234E-3,7.171630859E-4
9.415112989E0,-3.204345703E-4,3.021240234E-3,1.556396484E-3
9.420148389E0,5.950927734E-4,3.677368164E-3,9.002685547E-4
9.425183790E0,1.403808594E-3,2.059936523E-3,1.174926758E-3
9.430219190E0,7.171630859E-4,1.556396484E-3,1.556396484E-3
9.435254590E0,1.022338867E-3,1.953125000E-3,1.556396484E-3
9.440289991E0,6.866455078E-4,2.655029297E-3,8.544921875E-4
9.445325391E0,-3.814697266E-4,2.304077148E-3,1.205444336E-3
9.450360792E0,-7.324218750E-4,1.220703125E-3,2.288818359E-3
9.455396192E0,0.000000000E0,1.617431641E-3,2.624511719E-3
9.460431592E0,1.068115234E-3,1.953125000E-3,2.624511719E-3
9.465466993E0,6.408691406E-4,1.953125000E-3,1.876831055E-3
9.470502393E0,3.356933594E-4,1.953125000E-3,1.556396484E-3
9.475537793E0,3.356933594E-4,1.953125000E-3,7.934570312E-4
9.480573194E0,3.356933594E-4,1.953125000E-3,1.281738281E-3
9.485608594E0,1.113891602E-3,1.953125000E-3,1.556396484E-3
9.490643995E0,2.990722656E-3,1.953125000E-3,1.556396484E-3
9.495679395E0,3.540039062E-3,1.953125000E-3,7.629394531E-4
9.500714795E0,2.716064453E-3,1.129150391E-3,4.882812500E-4
9.505750196E0,1.632690430E-3,1.708984375E-3,4.882812500E-4
9.510785596E0,2.227783203E-3,1.953125000E-3,1.327514648E-3
9.515820997E0,2.471923828E-3,1.098632812E-3,2.410888672E-3
9.520856397E0,1.602172852E-3,1.525878906E-5,1.770019531E-3
9.525891797E0,1.403808594E-3,1.541137695E-3,1.556396484E-3
9.530927198E0,-3.662109375E-4,1.068115234E-3,1.556396484E-3
9.535962598E0,1.922607422E-3,8.850097656E-4,1.556396484E-3
9.540997999E0,3.356933594E-3,8.850097656E-4,1.556396484E-3
9.546033399E0,3.540039062E-3,1.785278320E-3,1.556396484E-3
9.551068799E0,3.540039062E-3,1.953125000E-3,1.556396484E-3
9.556104200E0,2.609252930E-3,1.022338867E-3,-2.899169922E-4
9.561139600E0,2.471923828E-3,1.815795898E-3,3.662109375E-4
9.566175000E0,2.471923828E-3,2.883911133E-3,-4.425048828E-4
9.571210401E0,2.471923828E-3,3.021240234E-3,3.814697266E-4
9.576245801E0,2.471923828E-3,3.982543945E-3,-1.434326172E-3
9.581281202E0,3.433227539E-3,3.112792969E-3,-6.713867188E-4
9.586316602E0,3.540039062E-3,3.997802734E-3,4.119873047E-4
9.591352002E0,2.532958984E-3,3.082275391E-3,-5.035400391E-4
9.596387403E0,2.471923828E-3,2.014160156E-3,4.272460938E-4
9.601422803E0,2.471923828E-3,2.960205078E-3,-5.187988281E-4
9.606458204E0,2.471923828E-3,3.021240234E-3,-5.798339844E-4
9.611493604E0,3.494262695E-3,3.021240234E-3,-5.798339844E-4
9.616529004E0,2.487182617E-3,1.968383789E-3,-5.798339844E-4
9.621564405E0,3.509521484E-3,2.990722656E-3,-5.798339844E-4
9.626599805E0,3.540039062E-3,1.953125000E-3,4.882812500E-4
9.631635206E0,3.540039062E-3,1.953125000E-3,-5.798339844E-4
9.636670606E0,1.403808594E-3,4.074096680E-3,-5.645751953E-4
9.641706006E0,2.471923828E-3,2.990722656E-3,4.425048828E-4
9.646741407E0,2.426147461E-3,1.953125000E-3,-1.647949219E-3
9.651776807E0,1.434326172E-3,1.953125000E-3,-1.602172852E-3
9.656812208E0,2.517700195E-3,1.998901367E-3,-5.798339844E-4
9.661847608E0,3.540039062E-3,3.021240234E-3,-6.256103516E-4
9.666883008E0,3.540039062E-3,3.021240234E-3,-1.647949219E-3
9.671918409E0,3.448486328E-3,3.021240234E-3,-1.647949219E-3
9.676953809E0,2.471923828E-3,3.021240234E-3,-1.647949219E-3
9.681989209E0,2.563476562E-3,3.021240234E-3,-1.647949219E-3
9.687024610E0,3.540039062E-3,2.899169922E-3,-1.754760742E-3
9.692060010E0,3.417968750E-3,1.953125000E-3,-2.593994141E-3
9.697095411E0,2.593994141E-3,2.075195312E-3,-1.770019531E-3
9.702130811E0,3.540039062E-3,2.883911133E-3,-2.578735352E-3
9.707166211E0,3.540039062E-3,1.800537109E-3,-1.785278320E-3
9.712201612E0,3.540039062E-3,8.850097656E-4,-2.548217773E-3
9.717237012E0,3.372192383E-3,8.850097656E-4,-1.480102539E-3
9.722272413E0,2.288818359E-3,1.052856445E-3,-5.798339844E-4
9.727307813E0,1.403808594E-3,2.136230469E-3,-5.798339844E-4
9.732343213E0,1.586914062E-3,3.021240234E-3,-7.629394531E-4
9.737378614E0,2.471923828E-3,2.609252930E-3,-1.846313477E-3
9.742414014E0,2.243041992E-3,1.312255859E-3,-2.487182617E-3
9.747449415E0,1.403808594E-3,3.234863281E-3,-1.419067383E-3
9.752484815E0,1.403808594E-3,3.845214844E-3,-8.087158203E-4
9.757520215E0,1.403808594E-3,3.021240234E-3,-1.647949219E-3
9.762555616E0,1.907348633E-3,2.761840820E-3,-1.388549805E-3
9.767591016E0,3.265380859E-3,1.953125000E-3,-8.392333984E-4
9.772626417E0,2.471923828E-3,2.212524414E-3,-1.647949219E-3
9.777661817E0,2.471923828E-3,2.456665039E-3,-1.922607422E-3
9.782697217E0,2.471923828E-3,1.174926758E-3,-2.716064453E-3
9.787732618E0,2.166748047E-3,2.243041992E-3,-2.716064453E-3
9.792768018E0,1.083374023E-3,3.326416016E-3,-3.021240234E-3
9.797803418E0,6.408691406E-4,4.394531250E-3,-3.143310547E-3
9.802838819E0,1.403808594E-3,4.501342773E-3,-1.968383789E-3
9.807874219E0,1.403808594E-3,2.349853516E-3,-2.380371094E-3
9.812909620E0,1.739501953E-3,1.556396484E-3,-1.647949219E-3
9.817945020E0,2.105712891E-3,3.372192383E-3,-1.647949219E-3
9.822980420E0,1.037597656E-3,4.089355469E-3,-2.365112305E-3
9.828015821E0,1.068115234E-3,4.089355469E-3,-3.036499023E-3
9.833051221E0,2.853393555E-3,3.311157227E-3,-2.029418945E-3
9.838086622E0,2.746582031E-3,1.953125000E-3,-3.097534180E-3
9.843122022E0,1.403808594E-3,2.349853516E-3,-3.372192383E-3
9.848157422E0,1.815795898E-3,3.021240234E-3,-1.876831055E-3
9.853192823E0,2.883911133E-3,3.021240234E-3,-9.918212891E-4
9.858228223E0,3.097534180E-3,3.021240234E-3,-1.647949219E-3
9.863263624E0,2.029418945E-3,3.021240234E-3,-2.517700195E-3
9.868299024E0,9.460449219E-4,3.021240234E-3,-3.326416016E-3
9.873334424E0,7.781982422E-4,3.021240234E-3,-2.258300781E-3
9.878369825E0,4.577636719E-4,3.021240234E-3,-2.105712891E-3
9.883405225E0,-2.593994141E-4,3.494262695E-3,-2.227783203E-3
9.888440625E0,-1.678466797E-4,4.577636719E-3,-1.647949219E-3
9.893476026E0,-7.324218750E-4,4.653930664E-3,-2.136230469E-3
9.898511426E0,-2.288818359E-4,3.570556641E-3,-2.197265625E-3
9.903546827E0,-1.831054688E-4,3.021240234E-3,-1.129150391E-3
9.908582227E0,-2.136230469E-4,3.021240234E-3,-1.098632812E-3
9.913617627E0,8.697509766E-4,2.487182617E-3,-1.647949219E-3
9.918653028E0,8.544921875E-4,2.487182617E-3,-1.098632812E-3
9.923688428E0,3.356933594E-4,3.570556641E-3,-1.129150391E-3
9.928723829E0,3.356933594E-4,4.638671875E-3,-1.647949219E-3
9.933759229E0,9.002685547E-4,4.577636719E-3,-4.882812500E-4
9.938794629E0,1.403808594E-3,4.669189453E-3,-6.713867188E-4
9.943830030E0,1.403808594E-3,3.967285156E-3,-2.227783203E-3
9.948865430E0,1.403808594E-3,3.616333008E-3,-2.105712891E-3
9.953900831E0,7.781982422E-4,4.699707031E-3,-2.258300781E-3
9.958936231E0,-2.899169922E-4,5.157470703E-3,-1.464843750E-3
9.963971631E0,5.187988281E-4,5.157470703E-3,-5.798339844E-4
9.969007032E0,7.476806641E-4,5.157470703E-3,-1.220703125E-3
9.974042432E0,-9.765625000E-4,5.157470703E-3,-1.647949219E-3
9.979077833E0,-1.144409180E-3,5.813598633E-3,-9.765625000E-4
9.984113233E0,-7.324218750E-4,5.554199219E-3,-1.235961914E-3
9.989148633E0,6.103515625E-4,5.157470703E-3,-2.319335938E-3
9.994184034E0,7.019042969E-4,5.157470703E-3,-2.014160156E-3
9.999219434E0,-3.662109375E-4,5.157470703E-3,-9.460449219E-4
1.000425483E1,-7.324218750E-4,4.440307617E-3,8.544921875E-4
1.000929024E1,-3.051757812E-5,4.089355469E-3,1.556396484E-3
1.001432564E1,-3.967285156E-4,4.806518555E-3,8.392333984E-4
1.001936104E1,0.000000000E0,4.409790039E-3,4.882812500E-4
1.002439644E1,1.068115234E-3,3.341674805E-3,4.882812500E-4
1.002943184E1,6.408691406E-4,3.768920898E-3,-1.022338867E-3
1.003446724E1,-4.425048828E-4,6.378173828E-3,-1.647949219E-3
1.003950264E1,-7.324218750E-4,7.293701172E-3,-1.647949219E-3
1.004453804E1,4.577636719E-5,5.722045898E-3,-1.647949219E-3
1.004957344E1,3.356933594E-4,5.157470703E-3,-8.544921875E-4
1.005460884E1,-4.730224609E-4,5.157470703E-3,-5.798339844E-4
1.005964424E1,-7.324218750E-4,4.333496094E-3,-5.798339844E-4
1.006467964E1,7.629394531E-5,4.089355469E-3,-5.798339844E-4
1.006971504E1,-1.342773438E-3,4.913330078E-3,-5.798339844E-4
1.007475044E1,-2.655029297E-3,5.996704102E-3,2.746582031E-4
1.007978584E1,-2.868652344E-3,5.371093750E-3,-3.509521484E-4
1.008482124E1,-2.899169922E-4,3.433227539E-3,2.899169922E-4
1.008985664E1,-5.493164062E-4,3.021240234E-3,-3.814697266E-4
1.009489204E1,-1.617431641E-3,4.776000977E-3,1.190185547E-3
1.009992744E1,-9.155273438E-4,6.042480469E-3,6.713867188E-4
1.010496284E1,-7.324218750E-4,5.325317383E-3,-3.967285156E-4
1.010999824E1,1.678466797E-4,4.241943359E-3,1.251220703E-3
1.011503364E1,3.356933594E-4,6.835937500E-3,1.556396484E-3
1.012006904E1,3.356933594E-4,7.293701172E-3,1.556396484E-3
1.012510444E1,3.356933594E-4,6.347656250E-3,1.556396484E-3
1.013013984E1,1.281738281E-3,4.318237305E-3,1.556396484E-3
1.013517525E1,1.403808594E-3,5.035400391E-3,1.556396484E-3
1.014021064E1,4.272460938E-4,7.080078125E-3,5.950927734E-4
1.014524604E1,1.296997070E-3,7.293701172E-3,4.882812500E-4
1.015028145E1,4.119873047E-4,7.293701172E-3,-4.882812500E-4
1.015531685E1,3.356933594E-4,6.286621094E-3,4.272460938E-4
1.016035225E1,1.327514648E-3,7.217407227E-3,4.882812500E-4
1.016538765E1,-6.408691406E-4,7.293701172E-3,2.532958984E-3
1.017042305E1,-7.324218750E-4,6.256103516E-3,1.602172852E-3
1.017545845E1,2.899169922E-4,5.187988281E-3,1.556396484E-3
1.018049385E1,1.373291016E-3,5.157470703E-3,5.187988281E-4
1.018552925E1,3.356933594E-4,5.157470703E-3,4.882812500E-4
1.019056465E1,3.356933594E-4,6.210327148E-3,2.624511719E-3
1.019560005E1,3.356933594E-4,6.225585938E-3,1.556396484E-3
1.020063545E1,1.373291016E-3,7.278442383E-3,1.556396484E-3
1.020567085E1,-7.171630859E-4,6.225585938E-3,5.187988281E-4
1.021070625E1,3.356933594E-4,6.225585938E-3,1.602172852E-3
1.021574165E1,3.662109375E-4,6.225585938E-3,2.624511719E-3
1.022077705E1,1.342773438E-3,6.225585938E-3,2.578735352E-3
1.022581245E1,3.356933594E-4,6.332397461E-3,1.617431641E-3
1.023084785E1,3.356933594E-4,8.209228516E-3,2.563476562E-3
1.023588325E1,4.119873047E-4,6.225585938E-3,1.647949219E-3
1.024091865E1,1.403808594E-3,6.225585938E-3,2.624511719E-3
1.024595405E1,1.296997070E-3,6.225585938E-3,2.624511719E-3
1.025098945E1,3.356933594E-4,6.103515625E-3,2.746582031E-3
1.025602485E1,4.577636719E-4,5.279541016E-3,3.570556641E-3
1.026106025E1,1.403808594E-3,6.347656250E-3,2.624511719E-3
1.026609566E1,1.403808594E-3,7.293701172E-3,2.624511719E-3
1.027113106E1,1.403808594E-3,7.293701172E-3,2.777099609E-3
1.027616646E1,1.403808594E-3,6.973266602E-3,3.540039062E-3
1.028120186E1,1.403808594E-3,5.310058594E-3,2.792358398E-3
1.028623726E1,1.220703125E-3,6.393432617E-3,3.173828125E-3
1.029127266E1,5.187988281E-4,7.293701172E-3,4.882812500E-4
1.029630806E1,1.403808594E-3,7.293701172E-3,6.866455078E-4
1.030134346E1,1.190185547E-3,7.080078125E-3,1.358032227E-3
1.030637886E1,3.356933594E-4,6.225585938E-3,4.882812500E-4
1.031141426E1,3.356933594E-4,6.225585938E-3,7.171630859E-4
1.031644966E1,5.645751953E-4,6.225585938E-3,1.800537109E-3
1.032148506E1,1.159667969E-3,6.225585938E-3,2.624511719E-3
1.032652046E1,8.239746094E-4,6.225585938E-3,2.624511719E-3
1.033155586E1,2.471923828E-3,6.225585938E-3,2.624511719E-3
1.033659126E1,2.197265625E-3,5.950927734E-3,2.624511719E-3
1.034162666E1,1.678466797E-3,5.157470703E-3,2.624511719E-3
1.034666206E1,2.471923828E-3,5.157470703E-3,2.349853516E-3
1.035169746E1,2.166748047E-3,5.447387695E-3,1.556396484E-3
1.035673286E1,1.403808594E-3,5.905151367E-3,1.556396484E-3
1.036176826E1,1.708984375E-3,5.157470703E-3,1.556396484E-3
1.036680366E1,2.471923828E-3,5.477905273E-3,1.556396484E-3
1.037183906E1,2.136230469E-3,5.889892578E-3,1.556396484E-3
1.037687446E1,2.090454102E-3,5.157470703E-3,1.556396484E-3
1.038190986E1,3.173828125E-3,5.157470703E-3,1.205444336E-3
1.038694526E1,1.739501953E-3,4.791259766E-3,4.882812500E-4
1.039198066E1,7.019042969E-4,4.455566406E-3,8.697509766E-4
1.039701606E1,1.785278320E-3,5.157470703E-3,1.953125000E-3
1.040205147E1,2.075195312E-3,5.157470703E-3,2.243041992E-3
1.040708687E1,1.403808594E-3,5.157470703E-3,1.159667969E-3
