"Time (s)","Acceleration x (m/s^2)","Acceleration y (m/s^2)","Acceleration z (m/s^2)"
5.746676500E-2,2.421569824E-2,9.583648682E0,-7.773651123E0
6.250216600E-2,4.043579102E-3,9.573181152E0,-7.802673340E0
6.753756600E-2,-1.933288574E-2,9.584091187E0,-7.808654785E0
7.257296600E-2,-8.877563477E-2,9.566421509E0,-7.854949951E0
7.760836700E-2,-1.437530518E-1,9.556610107E0,-7.847244263E0
8.264376700E-2,-1.411895752E-1,9.570587158E0,-7.866226196E0
8.767916800E-2,-1.931457520E-1,9.541793823E0,-7.901901245E0
9.271456800E-2,-2.449035645E-1,9.535858154E0,-7.879501343E0
9.774996800E-2,-2.884674072E-1,9.569030762E0,-7.860565186E0
1.027853690E-1,-2.452545166E-1,9.581787109E0,-7.920089722E0
1.078207690E-1,-2.122192383E-1,9.567489624E0,-7.949859619E0
1.128561700E-1,-2.172546387E-1,9.550140381E0,-7.982269287E0
1.178915700E-1,-3.146514893E-1,9.562942505E0,-8.050323486E0
1.229269700E-1,-3.961791992E-1,9.600387573E0,-8.008224487E0
1.279623710E-1,-4.238433838E-1,9.606597900E0,-8.092407227E0
1.329977710E-1,-5.426635742E-1,9.589996338E0,-8.134811401E0
1.380331720E-1,-5.323333740E-1,9.591781616E0,-8.128219604E0
1.430685720E-1,-5.245971680E-1,9.536499023E0,-8.144073486E0
1.481039720E-1,-4.566802979E-1,9.606582642E0,-8.248214722E0
1.531393730E-1,-4.437255859E-1,9.609313965E0,-8.204895020E0
1.581747730E-1,-4.814147949E-1,9.586486816E0,-8.299606323E0
1.632101730E-1,-4.882202148E-1,9.621612549E0,-8.273529053E0
1.682455740E-1,-6.107177734E-1,9.579406738E0,-8.292861938E0
1.732809740E-1,-6.522064209E-1,9.570968628E0,-8.270019531E0
1.783163750E-1,-6.574249268E-1,9.601837158E0,-8.279251099E0
1.833517750E-1,-6.747131348E-1,9.466552734E0,-8.459976196E0
1.883871750E-1,-7.210235596E-1,9.501739502E0,-8.440322876E0
1.934225760E-1,-6.196136475E-1,9.575820923E0,-8.267929077E0
1.984579760E-1,-5.237121582E-1,9.631195068E0,-8.337402344E0
2.034933770E-1,-5.947113037E-1,9.602600098E0,-8.403106689E0
2.085287770E-1,-5.617065430E-1,9.582305908E0,-8.494461060E0
2.135641770E-1,-6.785888672E-1,9.603332520E0,-8.409988403E0
2.185995780E-1,-5.531158447E-1,9.601791382E0,-8.532714844E0
2.236349780E-1,-6.758575439E-1,9.645523071E0,-8.425888062E0
2.286703790E-1,-5.832519531E-1,9.562393188E0,-8.547607422E0
2.337057790E-1,-6.658782959E-1,9.638473511E0,-8.498596191E0
2.387411790E-1,-6.450653076E-1,9.595535278E0,-8.493515015E0
2.437765800E-1,-7.056427002E-1,9.555679321E0,-8.451812744E0
2.488119800E-1,-7.183837891E-1,9.576995850E0,-8.423507690E0
2.538473810E-1,-7.041320801E-1,9.595291138E0,-8.436569214E0
2.588827810E-1,-6.971740723E-1,9.607635498E0,-8.500091553E0
2.639181810E-1,-7.803344727E-1,9.619720459E0,-8.494323730E0
2.689535820E-1,-6.878509521E-1,9.648254395E0,-8.489959717E0
2.739889820E-1,-7.436828613E-1,9.636123657E0,-8.487899780E0
2.790243820E-1,-7.785644531E-1,9.589660645E0,-8.440307617E0
2.840597830E-1,-7.006835938E-1,9.580688477E0,-8.526535034E0
2.890951830E-1,-6.730194092E-1,9.585144043E0,-8.552093506E0
2.941305840E-1,-6.446228027E-1,9.586853027E0,-8.541534424E0
2.991659840E-1,-6.161651611E-1,9.556594849E0,-8.531570435E0
3.042013840E-1,-6.207733154E-1,9.580413818E0,-8.554107666E0
3.092367850E-1,-6.197509766E-1,9.574371338E0,-8.638290405E0
3.142721850E-1,-6.101684570E-1,9.569976807E0,-8.624816895E0
3.193075860E-1,-5.807189941E-1,9.579483032E0,-8.694915771E0
3.243429860E-1,-5.731353760E-1,9.583755493E0,-8.629776001E0
3.293783860E-1,-5.505065918E-1,9.555572510E0,-8.718048096E0
3.344137870E-1,-5.549316406E-1,9.536544800E0,-8.725601196E0
3.394491870E-1,-5.272521973E-1,9.565826416E0,-8.661743164E0
3.444845880E-1,-5.414733887E-1,9.558029175E0,-8.635681152E0
3.495199880E-1,-5.141754150E-1,9.586624146E0,-8.757934570E0
3.545553880E-1,-3.826141357E-1,9.607666016E0,-8.847579956E0
3.595907890E-1,-3.694000244E-1,9.589935303E0,-8.837448120E0
3.646261890E-1,-3.942260742E-1,9.585678101E0,-8.832199097E0
3.696615900E-1,-4.667205811E-1,9.621917725E0,-8.744369507E0
3.746969900E-1,-4.474487305E-1,9.612930298E0,-8.659866333E0
3.797323900E-1,-4.532470703E-1,9.605789185E0,-8.689727783E0
3.847677910E-1,-4.548187256E-1,9.602188110E0,-8.747131348E0
3.898031910E-1,-4.588317871E-1,9.580215454E0,-8.709747314E0
3.948385910E-1,-4.252319336E-1,9.603195190E0,-8.763214111E0
3.998739920E-1,-4.006805420E-1,9.583816528E0,-8.798065186E0
4.049093920E-1,-4.128570557E-1,9.585800171E0,-8.787460327E0
4.099447930E-1,-3.918609619E-1,9.589675903E0,-8.780395508E0
4.149801930E-1,-3.618011475E-1,9.601470947E0,-8.782150269E0
4.200155930E-1,-3.304595947E-1,9.625671387E0,-8.727371216E0
4.250509940E-1,-3.388671875E-1,9.593872070E0,-8.706298828E0
4.300863940E-1,-3.894958496E-1,9.590591431E0,-8.710098267E0
4.351217950E-1,-3.583679199E-1,9.600463867E0,-8.694839478E0
4.401571950E-1,-2.867736816E-1,9.606994629E0,-8.671432495E0
4.451925950E-1,-2.653045654E-1,9.568664551E0,-8.694656372E0
4.502279960E-1,-2.129974365E-1,9.555999756E0,-8.680389404E0
4.552633960E-1,-2.211456299E-1,9.551132202E0,-8.770385742E0
4.602987970E-1,-1.844482422E-1,9.580993652E0,-8.663299561E0
4.653341970E-1,-1.869049072E-1,9.582397461E0,-8.750610352E0
4.703695970E-1,-1.755828857E-1,9.591888428E0,-8.705444336E0
4.754049980E-1,-2.050628662E-1,9.559509277E0,-8.645248413E0
4.804403980E-1,-1.070404053E-1,9.581634521E0,-8.620407104E0
4.854757980E-1,-1.388702393E-1,9.611877441E0,-8.629425049E0
4.905111990E-1,-1.315612793E-1,9.587280273E0,-8.588302612E0
4.955465990E-1,-9.140014648E-2,9.599487305E0,-8.591995239E0
5.005820000E-1,-8.190917969E-2,9.597595215E0,-8.553222656E0
5.056174000E-1,-6.195068359E-2,9.599227905E0,-8.563339233E0
5.106528000E-1,-2.272033691E-2,9.584121704E0,-8.538604736E0
5.156882010E-1,-4.612731934E-2,9.616088867E0,-8.491928101E0
5.207236010E-1,1.724243164E-3,9.634338379E0,-8.484191895E0
5.257590020E-1,8.895874023E-3,9.619110107E0,-8.438095093E0
5.307944020E-1,9.033203125E-2,9.597595215E0,-8.417770386E0
5.358298020E-1,6.652832031E-2,9.629989624E0,-8.337371826E0
5.408652030E-1,6.903076172E-2,9.597030640E0,-8.377105713E0
5.459006030E-1,1.431121826E-1,9.589752197E0,-8.419860840E0
5.509360040E-1,1.830596924E-1,9.581359863E0,-8.428543091E0
5.559714040E-1,1.903839111E-1,9.610946655E0,-8.406143188E0
5.610068040E-1,1.996459961E-1,9.601837158E0,-8.365753174E0
5.660422050E-1,1.994323730E-1,9.602706909E0,-8.315414429E0
5.710776050E-1,1.769866943E-1,9.612503052E0,-8.438644409E0
5.761130060E-1,2.629241943E-1,9.599700928E0,-8.405349731E0
5.811484060E-1,2.418670654E-1,9.601272583E0,-8.339630127E0
5.861838060E-1,3.012237549E-1,9.596755981E0,-8.308654785E0
5.912192070E-1,3.633880615E-1,9.597061157E0,-8.301330566E0
5.962546070E-1,3.786926270E-1,9.606414795E0,-8.311737061E0
6.012900070E-1,4.032745361E-1,9.588577271E0,-8.284439087E0
6.063254080E-1,4.490814209E-1,9.628448486E0,-8.342636108E0
6.113608080E-1,4.655914307E-1,9.620758057E0,-8.286865234E0
6.163962090E-1,4.582824707E-1,9.586868286E0,-8.284683228E0
6.214316090E-1,4.845886230E-1,9.603454590E0,-8.249191284E0
6.264670090E-1,5.289611816E-1,9.604965210E0,-8.187286377E0
6.315024100E-1,5.488739014E-1,9.591690063E0,-8.213211060E0
6.365378100E-1,5.554504395E-1,9.601989746E0,-8.208633423E0
6.415732110E-1,5.751953125E-1,9.626052856E0,-8.187271118E0
6.466086110E-1,6.043395996E-1,9.611709595E0,-8.170547485E0
6.516440110E-1,6.065826416E-1,9.632919312E0,-8.149505615E0
6.566794120E-1,6.703948975E-1,9.611755371E0,-8.113983154E0
6.617148120E-1,6.495666504E-1,9.585296631E0,-8.066589355E0
6.667502130E-1,6.938476562E-1,9.582504272E0,-8.084487915E0
6.717856130E-1,7.433471680E-1,9.570236206E0,-8.110122681E0
6.768210130E-1,7.720031738E-1,9.604553223E0,-8.116210938E0
6.818564140E-1,8.013458252E-1,9.602386475E0,-8.139923096E0
6.868918140E-1,8.005981445E-1,9.601119995E0,-8.101165771E0
6.919272150E-1,8.623657227E-1,9.622802734E0,-8.114837646E0
6.969626150E-1,8.890075684E-1,9.644546509E0,-8.123840332E0
7.019980150E-1,8.594970703E-1,9.636047363E0,-8.075820923E0
7.070334160E-1,9.202423096E-1,9.598037720E0,-8.088821411E0
7.120688160E-1,9.500274658E-1,9.577087402E0,-8.077423096E0
7.171042160E-1,9.161987305E-1,9.582641602E0,-8.001541138E0
7.221396170E-1,9.247894287E-1,9.592269897E0,-7.952224731E0
7.271750170E-1,9.753875732E-1,9.581237793E0,-7.978591919E0
7.322104180E-1,9.775695801E-1,9.595001221E0,-8.009292603E0
7.372458180E-1,9.693603516E-1,9.586135864E0,-8.036117554E0
7.422812180E-1,1.012817383E0,9.590606689E0,-7.975067139E0
7.473166190E-1,1.023300171E0,9.605865479E0,-7.948272705E0
7.523520190E-1,1.019668579E0,9.589141846E0,-7.991394043E0
7.573874200E-1,1.021148682E0,9.591964722E0,-8.002105713E0
7.624228200E-1,1.044891357E0,9.624526978E0,-7.909866333E0
7.674582200E-1,1.033950806E0,9.623260498E0,-7.890350342E0
7.724936210E-1,1.044662476E0,9.588958740E0,-7.930404663E0
7.775290210E-1,1.080902100E0,9.594573975E0,-7.893920898E0
7.825644220E-1,1.109924316E0,9.628448486E0,-7.976486206E0
7.875998220E-1,1.116668701E0,9.608566284E0,-8.013717651E0
7.926352220E-1,1.147857666E0,9.593002319E0,-7.974288940E0
7.976706230E-1,1.140670776E0,9.607681274E0,-8.018371582E0
8.027060230E-1,1.113372803E0,9.599746704E0,-7.924057007E0
8.077414230E-1,1.142059326E0,9.571533203E0,-7.944076538E0
8.127768240E-1,1.144973755E0,9.572799683E0,-7.941497803E0
8.178122240E-1,1.140289307E0,9.564605713E0,-7.912002563E0
8.228476250E-1,1.141632080E0,9.612136841E0,-7.969467163E0
8.278830250E-1,1.155517578E0,9.610336304E0,-7.940551758E0
8.329184250E-1,1.135482788E0,9.616302490E0,-7.972061157E0
8.379538260E-1,1.146087646E0,9.606597900E0,-7.971786499E0
8.429892260E-1,1.169418335E0,9.588088989E0,-7.971817017E0
8.480246270E-1,1.158767700E0,9.605606079E0,-7.986480713E0
8.530600270E-1,1.168853760E0,9.623489380E0,-7.951507568E0
8.580954270E-1,1.151657104E0,9.619293213E0,-7.933303833E0
8.631308280E-1,1.192199707E0,9.592727661E0,-8.000396729E0
8.681662280E-1,1.188171387E0,9.568161011E0,-8.005706787E0
8.732016290E-1,1.107482910E0,9.586090088E0,-8.029907227E0
8.782370290E-1,1.119659424E0,9.601043701E0,-8.087905884E0
8.832724290E-1,1.173095703E0,9.633728027E0,-8.120803833E0
8.883078300E-1,1.129302979E0,9.607467651E0,-8.043685913E0
8.933432300E-1,1.149002075E0,9.625396729E0,-8.067062378E0
8.983786310E-1,1.151657104E0,9.601837158E0,-8.057876587E0
9.034140310E-1,1.062423706E0,9.606506348E0,-8.007064819E0
9.084494310E-1,1.160003662E0,9.599090576E0,-8.131362915E0
9.134848320E-1,1.122772217E0,9.587951660E0,-8.125717163E0
9.185202320E-1,1.115158081E0,9.598648071E0,-8.201904297E0
9.235556320E-1,1.100860596E0,9.621597290E0,-8.137634277E0
9.285910330E-1,1.087097168E0,9.569183350E0,-8.093307495E0
9.336264330E-1,1.055313110E0,9.601837158E0,-8.142822266E0
9.386618340E-1,1.027526855E0,9.606765747E0,-8.155761719E0
9.436972340E-1,1.058761597E0,9.640090942E0,-8.135848999E0
9.487326340E-1,1.023086548E0,9.584823608E0,-8.125717163E0
9.537680350E-1,1.028259277E0,9.576583862E0,-8.205810547E0
9.588034350E-1,9.778900146E-1,9.557388306E0,-8.204666138E0
9.638388360E-1,9.691162109E-1,9.632339478E0,-8.197982788E0
9.688742360E-1,9.396209717E-1,9.632263184E0,-8.240173340E0
9.739096360E-1,9.644775391E-1,9.628494263E0,-8.242935181E0
9.789450370E-1,9.077911377E-1,9.585693359E0,-8.231643677E0
9.839804370E-1,8.783111572E-1,9.593246460E0,-8.236190796E0
9.890158380E-1,8.505401611E-1,9.614944458E0,-8.248886108E0
9.940512380E-1,8.597869873E-1,9.616790771E0,-8.263763428E0
9.990866380E-1,8.567199707E-1,9.607086182E0,-8.329116821E0
1.004122039E0,8.004608154E-1,9.627853394E0,-8.336212158E0
1.009157439E0,7.584075928E-1,9.584625244E0,-8.292984009E0
1.014192840E0,7.142181396E-1,9.587142944E0,-8.290176392E0
1.019228240E0,7.223968506E-1,9.620071411E0,-8.291152954E0
1.024263640E0,6.919097900E-1,9.636230469E0,-8.286026001E0
1.029299041E0,6.651000977E-1,9.607498169E0,-8.330612183E0
1.034334441E0,6.907196045E-1,9.596786499E0,-8.411483765E0
1.039369841E0,6.522979736E-1,9.609817505E0,-8.479858398E0
1.044405242E0,5.858001709E-1,9.613677979E0,-8.467330933E0
1.049440642E0,5.408020020E-1,9.607589722E0,-8.438903809E0
1.054476043E0,5.328674316E-1,9.592376709E0,-8.426437378E0
1.059511443E0,5.220184326E-1,9.594345093E0,-8.387573242E0
1.064546843E0,4.817199707E-1,9.603546143E0,-8.420211792E0
1.069582244E0,4.783325195E-1,9.584899902E0,-8.416839600E0
1.074617644E0,4.760894775E-1,9.592254639E0,-8.434356689E0
1.079653045E0,4.565887451E-1,9.576721191E0,-8.484054565E0
1.084688445E0,4.541320801E-1,9.579833984E0,-8.494491577E0
1.089723845E0,4.066009521E-1,9.593170166E0,-8.502532959E0
1.094759246E0,3.493194580E-1,9.596603394E0,-8.523956299E0
1.099794646E0,3.378448486E-1,9.582946777E0,-8.524917603E0
1.104830047E0,3.032684326E-1,9.591934204E0,-8.506072998E0
1.109865447E0,2.896270752E-1,9.612747192E0,-8.505630493E0
1.114900847E0,3.066253662E-1,9.592269897E0,-8.513946533E0
1.119936248E0,2.748718262E-1,9.613067627E0,-8.570388794E0
1.124971648E0,2.354888916E-1,9.599411011E0,-8.575561523E0
1.130007048E0,2.088775635E-1,9.602478027E0,-8.586776733E0
1.135042449E0,2.073211670E-1,9.603607178E0,-8.582656860E0
1.140077849E0,1.921844482E-1,9.576248169E0,-8.640899658E0
1.145113250E0,1.517639160E-1,9.616821289E0,-8.648208618E0
1.150148650E0,1.709136963E-1,9.639923096E0,-8.627975464E0
1.155184050E0,1.987762451E-1,9.634826660E0,-8.646423340E0
1.160219451E0,1.336059570E-1,9.606933594E0,-8.641555786E0
1.165255146E0,5.906677246E-2,9.598831177E0,-8.645111084E0
1.170290547E0,9.089660645E-2,9.590469360E0,-8.599700928E0
1.175325947E0,6.468200684E-2,9.580245972E0,-8.666076660E0
1.180361347E0,8.363342285E-2,9.581756592E0,-8.707839966E0
1.185396748E0,5.821228027E-2,9.613159180E0,-8.702972412E0
1.190432148E0,2.447509766E-2,9.632431030E0,-8.742980957E0
1.195467549E0,3.816223145E-2,9.588195801E0,-8.739242554E0
1.200502949E0,4.240417480E-2,9.562042236E0,-8.824203491E0
1.205538349E0,7.284545898E-2,9.589431763E0,-8.859283447E0
1.210573750E0,2.456665039E-2,9.576156616E0,-8.862442017E0
1.215609150E0,-2.763366699E-2,9.598327637E0,-8.851989746E0
1.220644551E0,2.551269531E-2,9.595474243E0,-8.831481934E0
1.225679951E0,2.639770508E-3,9.611968994E0,-8.820465088E0
1.230715351E0,6.118774414E-3,9.594009399E0,-8.813018799E0
1.235750752E0,2.902221680E-2,9.563278198E0,-8.843719482E0
1.240786152E0,1.239013672E-2,9.593048096E0,-8.877456665E0
1.245821552E0,2.050781250E-2,9.610549927E0,-8.901748657E0
1.250856953E0,-2.243041992E-3,9.609024048E0,-8.935394287E0
1.255892353E0,1.846313477E-2,9.623168945E0,-8.919662476E0
1.260927754E0,5.915832520E-2,9.599639893E0,-8.886322021E0
1.265963154E0,7.545471191E-2,9.629776001E0,-8.900650024E0
1.270998554E0,6.048583984E-2,9.598617554E0,-8.907592773E0
1.276033955E0,2.990722656E-2,9.646118164E0,-8.903182983E0
1.281069355E0,2.122497559E-2,9.625381470E0,-8.868423462E0
1.286104756E0,5.738830566E-2,9.585525513E0,-8.959671021E0
1.291140156E0,8.224487305E-3,9.589935303E0,-8.953079224E0
1.296175556E0,2.534484863E-2,9.591659546E0,-8.933944702E0
1.301210957E0,4.072570801E-2,9.608810425E0,-8.949722290E0
1.306246357E0,2.597045898E-2,9.615509033E0,-8.917785645E0
1.311281758E0,1.618957520E-2,9.551818848E0,-8.979110718E0
1.316317158E0,4.136657715E-2,9.581161499E0,-8.932815552E0
1.321352558E0,2.539062500E-2,9.583938599E0,-8.924621582E0
1.326387959E0,3.306579590E-2,9.578903198E0,-8.960098267E0
1.331423359E0,1.771545410E-2,9.582321167E0,-8.917541504E0
1.336458760E0,8.590698242E-3,9.580413818E0,-8.950500488E0
1.341494160E0,6.230163574E-2,9.587966919E0,-8.941619873E0
1.346529560E0,6.819152832E-2,9.606857300E0,-8.997055054E0
1.351564961E0,5.621337891E-2,9.593750000E0,-8.979461670E0
1.356600361E0,7.371520996E-2,9.604354858E0,-8.965164185E0
1.361635761E0,7.687377930E-2,9.575531006E0,-8.973693848E0
1.366671162E0,4.248046875E-2,9.593811035E0,-8.965667725E0
1.371706562E0,2.796936035E-2,9.588592529E0,-8.986526489E0
1.376741963E0,3.674316406E-2,9.601943970E0,-8.977340698E0
1.381777363E0,4.478454590E-2,9.585037231E0,-8.937255859E0
1.386812763E0,4.986572266E-2,9.586975098E0,-8.966644287E0
1.391848164E0,5.906677246E-2,9.614364624E0,-8.978698730E0
1.396883564E0,5.725097656E-2,9.598678589E0,-8.947280884E0
1.401918965E0,4.869079590E-2,9.575225830E0,-8.915634155E0
1.406954365E0,5.262756348E-2,9.570892334E0,-8.921157837E0
1.411989765E0,4.879760742E-2,9.553756714E0,-8.870773315E0
1.417025166E0,4.969787598E-2,9.582260132E0,-8.960159302E0
1.422060566E0,5.245971680E-2,9.624771118E0,-9.017471313E0
1.427095967E0,-3.437805176E-2,9.605789185E0,-8.923263550E0
1.432131367E0,-3.924560547E-2,9.623046875E0,-8.903549194E0
1.437166767E0,5.371093750E-2,9.616256714E0,-8.931640625E0
1.442202168E0,1.079711914E-1,9.595718384E0,-8.931732178E0
1.447237568E0,1.013946533E-1,9.609893799E0,-8.915954590E0
1.452272968E0,1.166839600E-1,9.622772217E0,-8.933090210E0
1.457308369E0,1.269073486E-1,9.620040894E0,-8.941848755E0
1.462343769E0,1.524658203E-1,9.617874146E0,-8.866134644E0
1.467379170E0,1.077117920E-1,9.601379395E0,-8.822616577E0
1.472414570E0,1.135406494E-1,9.590896606E0,-8.928207397E0
1.477449970E0,1.904144287E-1,9.601486206E0,-8.926254272E0
1.482485371E0,1.931304932E-1,9.588317871E0,-8.829513550E0
1.487520771E0,1.578979492E-1,9.613250732E0,-8.806564331E0
1.492556172E0,2.064666748E-1,9.615097046E0,-8.840927124E0
1.497591572E0,2.115783691E-1,9.594741821E0,-8.804046631E0
1.502626972E0,1.858825684E-1,9.593139648E0,-8.767105103E0
1.507662373E0,1.690063477E-1,9.622497559E0,-8.809890747E0
1.512697773E0,2.475433350E-1,9.601654053E0,-8.814743042E0
1.517733174E0,2.657318115E-1,9.568756104E0,-8.824768066E0
1.522768574E0,2.659606934E-1,9.610015869E0,-8.803680420E0
1.527803974E0,2.845306396E-1,9.588897705E0,-8.782730103E0
1.532839375E0,3.316040039E-1,9.610046387E0,-8.735656738E0
1.537874775E0,3.538970947E-1,9.595108032E0,-8.705429077E0
1.542910176E0,3.715667725E-1,9.621200562E0,-8.726745605E0
1.547945576E0,3.662719727E-1,9.622894287E0,-8.662628174E0
1.552980976E0,3.308715820E-1,9.618942261E0,-8.674392700E0
1.558016377E0,3.587646484E-1,9.624404907E0,-8.699264526E0
1.563051777E0,4.621582031E-1,9.617630005E0,-8.692947388E0
1.568087177E0,4.967193604E-1,9.616119385E0,-8.639984131E0
1.573122578E0,4.828338623E-1,9.595367432E0,-8.656417847E0
1.578157978E0,4.803924561E-1,9.579696655E0,-8.632766724E0
1.583193379E0,5.640563965E-1,9.588745117E0,-8.622726440E0
1.588228779E0,5.536346436E-1,9.574691772E0,-8.587203979E0
1.593264179E0,5.275421143E-1,9.595321655E0,-8.539825439E0
1.598299580E0,5.457153320E-1,9.585891724E0,-8.518447876E0
1.603334980E0,5.629730225E-1,9.667160034E0,-8.512725830E0
1.608370381E0,6.352233887E-1,9.573959351E0,-8.542510986E0
1.613405781E0,6.258087158E-1,9.598922729E0,-8.457015991E0
1.618441181E0,6.565399170E-1,9.604217529E0,-8.498245239E0
1.623476582E0,5.969848633E-1,9.566619873E0,-8.519607544E0
1.628511982E0,7.828369141E-1,9.606948853E0,-8.515258789E0
1.633547383E0,6.959533691E-1,9.618423462E0,-8.525802612E0
1.638582783E0,7.230682373E-1,9.564010620E0,-8.443145752E0
1.643618183E0,6.772613525E-1,9.569305420E0,-8.316894531E0
1.648653584E0,6.445159912E-1,9.581024170E0,-8.344940186E0
1.653688984E0,7.513885498E-1,9.585906982E0,-8.357833862E0
1.658724385E0,8.054809570E-1,9.574829102E0,-8.331909180E0
1.663759785E0,7.465972900E-1,9.600418091E0,-8.304138184E0
1.668795185E0,7.848510742E-1,9.564331055E0,-8.348114014E0
1.673830586E0,7.350616455E-1,9.604415894E0,-8.258010864E0
1.678865986E0,7.795257568E-1,9.578018188E0,-8.239578247E0
1.683901386E0,7.455444336E-1,9.630523682E0,-8.208709717E0
1.688936787E0,7.815399170E-1,9.595718384E0,-8.213531494E0
1.693972187E0,8.180847168E-1,9.589843750E0,-8.219833374E0
1.699007588E0,7.914123535E-1,9.616638184E0,-8.219741821E0
1.704042988E0,8.066558838E-1,9.590866089E0,-8.182418823E0
1.709078388E0,8.314514160E-1,9.610168457E0,-8.185913086E0
1.714113789E0,8.148956299E-1,9.608703613E0,-8.220199585E0
1.719149189E0,8.283081055E-1,9.594024658E0,-8.157180786E0
1.724184590E0,8.527069092E-1,9.602127075E0,-8.112503052E0
1.729219990E0,8.449554443E-1,9.621246338E0,-8.155654907E0
1.734255390E0,8.358306885E-1,9.613647461E0,-8.120147705E0
1.739290791E0,8.719787598E-1,9.617691040E0,-8.089218140E0
1.744326191E0,9.248199463E-1,9.620269775E0,-8.136322021E0
1.749361592E0,8.762664795E-1,9.609054565E0,-8.102432251E0
1.754396992E0,8.478393555E-1,9.581878662E0,-8.096572876E0
1.759432392E0,8.640136719E-1,9.608963013E0,-8.068710327E0
1.764467793E0,8.741607666E-1,9.635162354E0,-8.012680054E0
1.769503193E0,8.717498779E-1,9.617279053E0,-8.018859863E0
1.774538593E0,8.677215576E-1,9.598434448E0,-8.078231812E0
1.779573994E0,8.392944336E-1,9.598129272E0,-8.030364990E0
1.784609394E0,7.982177734E-1,9.584259033E0,-7.935592651E0
1.789644795E0,8.271331787E-1,9.605148315E0,-7.905868530E0
1.794680195E0,8.747100830E-1,9.626968384E0,-7.951156616E0
1.799715595E0,8.777160645E-1,9.595718384E0,-7.940078735E0
1.804750996E0,8.629150391E-1,9.601547241E0,-7.910415649E0
1.809786396E0,8.779144287E-1,9.588943481E0,-7.864395142E0
1.814821797E0,9.074707031E-1,9.577545166E0,-7.848022461E0
1.819857197E0,9.379425049E-1,9.602096558E0,-7.846282959E0
1.824892597E0,9.408111572E-1,9.600128174E0,-7.872848511E0
1.829927998E0,9.078826904E-1,9.590133667E0,-7.880142212E0
1.834963398E0,8.793487549E-1,9.570907593E0,-7.849395752E0
1.839998799E0,8.565368652E-1,9.596405029E0,-7.860397339E0
1.845034199E0,8.088378906E-1,9.587219238E0,-7.856109619E0
1.850069599E0,8.129577637E-1,9.586502075E0,-7.797119141E0
1.855105000E0,8.464813232E-1,9.589340210E0,-7.825546265E0
1.860140400E0,8.421630859E-1,9.586761475E0,-7.892150879E0
1.865175801E0,8.447875977E-1,9.576202393E0,-7.882736206E0
1.870211201E0,8.394470215E-1,9.590682983E0,-7.853317261E0
1.875246601E0,8.165893555E-1,9.589370728E0,-7.804031372E0
1.880282002E0,8.157501221E-1,9.602355957E0,-7.870742798E0
1.885317402E0,8.306579590E-1,9.598449707E0,-7.852325439E0
1.890352802E0,8.154602051E-1,9.601821899E0,-7.816299438E0
1.895388203E0,7.906494141E-1,9.620605469E0,-7.812133789E0
1.900423603E0,8.073272705E-1,9.601516724E0,-7.808975220E0
1.905459004E0,8.173980713E-1,9.638015747E0,-7.749526978E0
1.910494404E0,7.897033691E-1,9.613082886E0,-7.839355469E0
1.915529804E0,7.729187012E-1,9.586624146E0,-7.802520752E0
1.920565205E0,7.707977295E-1,9.574844360E0,-7.786895752E0
1.925600605E0,7.667541504E-1,9.603500366E0,-7.752243042E0
1.930636006E0,7.599029541E-1,9.598754883E0,-7.805328369E0
1.935671406E0,7.067260742E-1,9.588729858E0,-7.858886719E0
1.940706806E0,7.565460205E-1,9.581192017E0,-7.875640869E0
1.945742207E0,6.863708496E-1,9.636215210E0,-7.853347778E0
1.950777607E0,7.151794434E-1,9.605072021E0,-7.852966309E0
1.955813008E0,7.250823975E-1,9.599609375E0,-7.866470337E0
1.960848408E0,6.985778809E-1,9.594955444E0,-7.831451416E0
1.965883808E0,7.129516602E-1,9.599243164E0,-7.808853149E0
1.970919209E0,6.259765625E-1,9.580993652E0,-7.918685913E0
1.975954609E0,6.208496094E-1,9.582763672E0,-7.959808350E0
1.980990010E0,6.970062256E-1,9.582794189E0,-7.929336548E0
1.986025410E0,5.898284912E-1,9.585250854E0,-7.903259277E0
1.991060810E0,5.863494873E-1,9.591430664E0,-7.914199829E0
1.996096211E0,6.310272217E-1,9.558334351E0,-7.972412109E0
2.001131611E0,5.387115479E-1,9.597076416E0,-7.925354004E0
2.006167011E0,5.144500732E-1,9.598037720E0,-7.934677124E0
2.011202412E0,4.624023438E-1,9.609252930E0,-7.880401611E0
2.016237812E0,5.078887939E-1,9.591476440E0,-7.927978516E0
2.021273213E0,5.531768799E-1,9.645751953E0,-8.004959106E0
2.026308613E0,4.705200195E-1,9.615814209E0,-8.016571045E0
2.031344013E0,4.812622070E-1,9.610168457E0,-7.994247437E0
2.036379414E0,4.620513916E-1,9.584259033E0,-8.010406494E0
2.041414814E0,4.828186035E-1,9.572036743E0,-8.069030762E0
2.046450215E0,4.407043457E-1,9.600128174E0,-8.042938232E0
2.051485615E0,4.492797852E-1,9.590438843E0,-8.098007202E0
2.056521015E0,3.739471436E-1,9.589248657E0,-8.080307007E0
2.061556416E0,3.478851318E-1,9.613204956E0,-8.114471436E0
2.066591816E0,3.406219482E-1,9.607360840E0,-8.074584961E0
2.071627217E0,3.303985596E-1,9.601867676E0,-8.112014771E0
2.076662617E0,2.935333252E-1,9.616348267E0,-8.115890503E0
2.081698017E0,2.304534912E-1,9.597076416E0,-8.151367188E0
2.086733418E0,2.435607910E-1,9.586715698E0,-8.215499878E0
2.091768818E0,2.625274658E-1,9.565750122E0,-8.186767578E0
2.096804218E0,2.054901123E-1,9.573364258E0,-8.081207275E0
2.101839619E0,1.114349365E-1,9.582778931E0,-8.126907349E0
2.106875019E0,7.580566406E-2,9.607192993E0,-8.160766602E0
2.111910420E0,1.311645508E-1,9.597732544E0,-8.252731323E0
2.116945820E0,1.319122314E-1,9.598251343E0,-8.220016479E0
2.121981220E0,1.356353760E-1,9.594024658E0,-8.258605957E0
2.127016621E0,8.859252930E-2,9.589584351E0,-8.299301147E0
2.132052021E0,8.702087402E-2,9.607589722E0,-8.315750122E0
2.137087422E0,7.571411133E-2,9.595687866E0,-8.351379395E0
2.142122822E0,5.351257324E-2,9.588607788E0,-8.403015137E0
2.147158222E0,3.324890137E-2,9.596359253E0,-8.415878296E0
2.152193623E0,4.255676270E-2,9.586593628E0,-8.360809326E0
2.157229023E0,5.218505859E-3,9.590805054E0,-8.299972534E0
2.162264424E0,-5.520629883E-2,9.581481934E0,-8.331893921E0
2.167299824E0,-5.757141113E-2,9.582138062E0,-8.369476318E0
2.172335224E0,-1.110839844E-2,9.586883545E0,-8.404006958E0
2.177370625E0,1.885986328E-2,9.576934814E0,-8.408782959E0
2.182406025E0,-4.010009766E-2,9.592636108E0,-8.362991333E0
2.187441426E0,-4.368591309E-2,9.609649658E0,-8.387664795E0
2.192476826E0,-2.265930176E-2,9.608184814E0,-8.377075195E0
2.197512226E0,1.876831055E-3,9.609909058E0,-8.410980225E0
2.202547627E0,-1.846313477E-2,9.596206665E0,-8.431106567E0
2.207583027E0,-1.350402832E-2,9.567291260E0,-8.499237061E0
2.212618427E0,-2.778625488E-2,9.573410034E0,-8.505432129E0
2.217653828E0,-3.942871094E-2,9.609344482E0,-8.456573486E0
2.222689228E0,8.407592773E-3,9.596191406E0,-8.433944702E0
2.227724629E0,7.101440430E-2,9.637893677E0,-8.447036743E0
2.232760029E0,7.339477539E-2,9.645462036E0,-8.443771362E0
2.237795429E0,-3.250122070E-3,9.630752563E0,-8.416702271E0
2.242830830E0,-3.829956055E-3,9.638351440E0,-8.478439331E0
2.247866230E0,-2.151489258E-2,9.619369507E0,-8.448959351E0
2.252901631E0,2.249145508E-2,9.607757568E0,-8.441787720E0
2.257937031E0,-9.277343750E-3,9.601119995E0,-8.507934570E0
2.262972431E0,-2.796936035E-2,9.605010986E0,-8.539779663E0
2.268007832E0,-6.271362305E-3,9.602798462E0,-8.585159302E0
2.273043232E0,1.304626465E-2,9.576766968E0,-8.547637939E0
2.278078633E0,2.600097656E-2,9.600234985E0,-8.530456543E0
2.283114033E0,4.598999023E-2,9.598648071E0,-8.477539062E0
2.288149433E0,-3.968811035E-2,9.603149414E0,-8.513931274E0
2.293184834E0,-5.783081055E-3,9.577438354E0,-8.610580444E0
2.298220234E0,-2.313232422E-2,9.594146729E0,-8.645278931E0
2.303255635E0,-2.024841309E-2,9.611984253E0,-8.543807983E0
2.308291035E0,5.183410645E-2,9.592117310E0,-8.594238281E0
2.313326435E0,4.591369629E-2,9.589935303E0,-8.583068848E0
2.318361836E0,9.262084961E-3,9.592147827E0,-8.568237305E0
2.323397236E0,1.401977539E-1,9.608154297E0,-8.594421387E0
2.328432636E0,2.790832520E-2,9.625015259E0,-8.552276611E0
2.333468037E0,-2.308654785E-2,9.588485718E0,-8.476303101E0
2.338503437E0,7.983398438E-2,9.615936279E0,-8.573791504E0
2.343538838E0,3.990173340E-2,9.599456787E0,-8.556945801E0
2.348574238E0,2.154541016E-2,9.599792480E0,-8.428970337E0
2.353609638E0,5.287170410E-2,9.618347168E0,-8.544708252E0
2.358645039E0,8.566284180E-2,9.611038208E0,-8.584747314E0
2.363680439E0,1.364898682E-1,9.561614990E0,-8.604095459E0
2.368715840E0,8.444213867E-2,9.602005005E0,-8.644760132E0
2.373751240E0,1.030578613E-1,9.600509644E0,-8.477462769E0
2.378786640E0,1.034088135E-1,9.569061279E0,-8.451095581E0
2.383822041E0,2.091064453E-1,9.629043579E0,-8.590164185E0
2.388857441E0,1.407012939E-1,9.591735840E0,-8.529495239E0
2.393892842E0,1.670227051E-1,9.648666382E0,-8.514038086E0
2.398928242E0,1.941833496E-1,9.622039795E0,-8.427734375E0
2.403963642E0,1.882476807E-1,9.583343506E0,-8.524108887E0
2.408999043E0,2.890167236E-1,9.608093262E0,-8.596847534E0
2.414034443E0,2.609558105E-1,9.602798462E0,-8.565887451E0
2.419069843E0,2.617492676E-1,9.603195190E0,-8.539367676E0
2.424105244E0,3.147277832E-1,9.624008179E0,-8.501480103E0
2.429140644E0,3.446044922E-1,9.626464844E0,-8.501129150E0
2.434176045E0,3.428039551E-1,9.644592285E0,-8.467926025E0
2.439211445E0,3.148498535E-1,9.619400024E0,-8.468460083E0
2.444246845E0,3.214569092E-1,9.600234985E0,-8.454605103E0
2.449282246E0,3.661193848E-1,9.580139160E0,-8.485275269E0
2.454317646E0,4.010467529E-1,9.577804565E0,-8.509796143E0
2.459353047E0,3.863220215E-1,9.561370850E0,-8.514389038E0
2.464388447E0,4.114379883E-1,9.576629639E0,-8.503799438E0
2.469423847E0,4.289855957E-1,9.605758667E0,-8.450103760E0
2.474459248E0,4.281463623E-1,9.598083496E0,-8.350021362E0
2.479494648E0,4.378509521E-1,9.602035522E0,-8.368423462E0
2.484530049E0,4.648284912E-1,9.620956421E0,-8.382293701E0
2.489565449E0,4.614562988E-1,9.616622925E0,-8.363006592E0
2.494600849E0,4.816131592E-1,9.621871948E0,-8.372161865E0
2.499636250E0,5.147857666E-1,9.596298218E0,-8.382522583E0
2.504671650E0,5.459747314E-1,9.583755493E0,-8.366989136E0
2.509707051E0,5.755157471E-1,9.608047485E0,-8.387542725E0
2.514742451E0,5.873870850E-1,9.591674805E0,-8.430038452E0
2.519777851E0,5.659942627E-1,9.582702637E0,-8.408355713E0
2.524813252E0,5.612640381E-1,9.621078491E0,-8.369659424E0
2.529848652E0,5.677490234E-1,9.645614624E0,-8.329437256E0
2.534884052E0,5.688476562E-1,9.632476807E0,-8.294494629E0
2.539919453E0,5.643615723E-1,9.626708984E0,-8.298950195E0
2.544954853E0,6.053924561E-1,9.612350464E0,-8.305435181E0
2.549990254E0,6.218566895E-1,9.597747803E0,-8.346176147E0
2.555025654E0,6.192626953E-1,9.583526611E0,-8.396377563E0
2.560061054E0,6.561279297E-1,9.594253540E0,-8.390121460E0
2.565096455E0,6.721191406E-1,9.606597900E0,-8.403121948E0
2.570131855E0,6.669311523E-1,9.612579346E0,-8.397201538E0
2.575167256E0,6.859893799E-1,9.622238159E0,-8.350250244E0
2.580202656E0,6.891784668E-1,9.606887817E0,-8.326919556E0
2.585238056E0,7.187347412E-1,9.608276367E0,-8.281234741E0
2.590273457E0,7.203674316E-1,9.618637085E0,-8.309265137E0
2.595308857E0,7.186584473E-1,9.614212036E0,-8.275009155E0
2.600344258E0,7.343597412E-1,9.597793579E0,-8.282867432E0
2.605379658E0,7.571868896E-1,9.581909180E0,-8.365264893E0
2.610415058E0,7.777862549E-1,9.567428589E0,-8.387588501E0
2.615450459E0,8.024444580E-1,9.592483521E0,-8.382766724E0
2.620485859E0,7.960968018E-1,9.638336182E0,-8.314056396E0
2.625521260E0,7.884826660E-1,9.604644775E0,-8.224487305E0
2.630556660E0,7.703704834E-1,9.571426392E0,-8.344039917E0
2.635592060E0,8.759002686E-1,9.637451172E0,-8.325241089E0
2.640627461E0,8.430023193E-1,9.595489502E0,-8.304748535E0
2.645662861E0,8.522796631E-1,9.570800781E0,-8.235107422E0
2.650698261E0,8.747558594E-1,9.613159180E0,-8.285034180E0
2.655733662E0,8.531951904E-1,9.602340698E0,-8.295913696E0
2.660769062E0,8.724517822E-1,9.649871826E0,-8.264389038E0
2.665804463E0,7.945098877E-1,9.635253906E0,-8.268722534E0
2.670839863E0,8.650360107E-1,9.557128906E0,-8.330245972E0
2.675875263E0,8.840942383E-1,9.562606812E0,-8.410842896E0
2.680910664E0,8.872680664E-1,9.621459961E0,-8.264144897E0
2.685946064E0,9.236297607E-1,9.582641602E0,-8.246276855E0
2.690981465E0,9.048767090E-1,9.598754883E0,-8.264266968E0
2.696016865E0,8.785552979E-1,9.604095459E0,-8.209228516E0
2.701052265E0,9.014129639E-1,9.618316650E0,-8.238403320E0
2.706087666E0,8.634185791E-1,9.608947754E0,-8.316986084E0
2.711123066E0,8.313446045E-1,9.604873657E0,-8.262100220E0
2.716158467E0,8.877258301E-1,9.638961792E0,-8.236328125E0
2.721193867E0,8.953094482E-1,9.608505249E0,-8.234130859E0
2.726229267E0,8.681488037E-1,9.597991943E0,-8.234054565E0
2.731264668E0,9.332122803E-1,9.578094482E0,-8.197082520E0
2.736300068E0,8.784332275E-1,9.612060547E0,-8.191314697E0
2.741335468E0,8.546447754E-1,9.642944336E0,-8.294265747E0
2.746370869E0,8.197784424E-1,9.627731323E0,-8.286788940E0
2.751406269E0,8.296813965E-1,9.621627808E0,-8.170227051E0
2.756441670E0,8.331604004E-1,9.591918945E0,-8.098068237E0
2.761477070E0,8.743591309E-1,9.581329346E0,-8.143325806E0
2.766512470E0,8.438873291E-1,9.614135742E0,-8.244949341E0
2.771547871E0,8.103637695E-1,9.609985352E0,-8.225234985E0
2.776583271E0,8.708801270E-1,9.586547852E0,-8.249389648E0
2.781618672E0,8.245086670E-1,9.602340698E0,-8.197280884E0
2.786654072E0,7.864837646E-1,9.611236572E0,-8.161956787E0
2.791689472E0,7.691345215E-1,9.635726929E0,-8.145263672E0
2.796724873E0,8.149871826E-1,9.631515503E0,-8.163955688E0
2.801760273E0,8.675994873E-1,9.611801147E0,-8.192794800E0
2.806795674E0,8.865203857E-1,9.609970093E0,-8.187286377E0
2.811831074E0,8.393402100E-1,9.612045288E0,-8.239242554E0
2.816866474E0,7.924652100E-1,9.598556519E0,-8.232986450E0
2.821901875E0,7.320098877E-1,9.608795166E0,-8.241928101E0
2.826937275E0,7.946472168E-1,9.623260498E0,-8.236312866E0
2.831972676E0,7.773132324E-1,9.626602173E0,-8.231323242E0
2.837008076E0,7.121734619E-1,9.617874146E0,-8.219390869E0
2.842043476E0,6.805419922E-1,9.606887817E0,-8.197982788E0
2.847078877E0,6.779479980E-1,9.619949341E0,-8.227401733E0
2.852114277E0,7.075958252E-1,9.613998413E0,-8.247100830E0
2.857149677E0,7.065887451E-1,9.600814819E0,-8.331344604E0
2.862185078E0,6.799621582E-1,9.596923828E0,-8.277221680E0
2.867220478E0,7.041473389E-1,9.627044678E0,-8.181549072E0
2.872255879E0,6.930389404E-1,9.609130859E0,-8.215911865E0
2.877291279E0,6.598358154E-1,9.595199585E0,-8.267257690E0
2.882326679E0,6.668701172E-1,9.603942871E0,-8.307693481E0
2.887362080E0,7.006378174E-1,9.619567871E0,-8.305206299E0
2.892397480E0,6.631774902E-1,9.596359253E0,-8.253799438E0
2.897432881E0,5.872344971E-1,9.585525513E0,-8.259536743E0
2.902468281E0,6.014862061E-1,9.563644409E0,-8.337966919E0
2.907503681E0,5.619506836E-1,9.569183350E0,-8.326400757E0
2.912539082E0,5.580902100E-1,9.574829102E0,-8.350173950E0
2.917574482E0,5.377197266E-1,9.551132202E0,-8.352844238E0
2.922609883E0,5.148315430E-1,9.579757690E0,-8.383514404E0
2.927645283E0,5.294647217E-1,9.616012573E0,-8.376342773E0
2.932680683E0,5.198364258E-1,9.600692749E0,-8.334732056E0
2.937716084E0,4.859466553E-1,9.596801758E0,-8.356170654E0
2.942751484E0,4.819030762E-1,9.595520020E0,-8.406768799E0
2.947786885E0,4.650421143E-1,9.585876465E0,-8.392318726E0
2.952822285E0,4.787292480E-1,9.615493774E0,-8.479873657E0
2.957857685E0,4.748382568E-1,9.585174561E0,-8.436355591E0
2.962893086E0,4.770202637E-1,9.607131958E0,-8.442687988E0
2.967928486E0,4.421539307E-1,9.611083984E0,-8.441040039E0
2.972963886E0,4.350891113E-1,9.597747803E0,-8.396865845E0
2.977999287E0,4.050140381E-1,9.610946655E0,-8.355056763E0
2.983034687E0,3.744506836E-1,9.619796753E0,-8.312774658E0
2.988070088E0,3.143005371E-1,9.609649658E0,-8.411468506E0
2.993105488E0,2.956542969E-1,9.591308594E0,-8.521331787E0
2.998140888E0,3.219146729E-1,9.606964111E0,-8.414840698E0
3.003176289E0,3.004455566E-1,9.587692261E0,-8.413955688E0
3.008211689E0,2.447052002E-1,9.606796265E0,-8.447692871E0
3.013247090E0,2.433319092E-1,9.593078613E0,-8.487518311E0
3.018282490E0,2.882385254E-1,9.556777954E0,-8.460327148E0
3.023317890E0,2.400360107E-1,9.577072144E0,-8.518478394E0
3.028353291E0,2.200317383E-1,9.629440308E0,-8.411666870E0
3.033388691E0,2.250671387E-1,9.624282837E0,-8.456970215E0
3.038424092E0,2.146606445E-1,9.627670288E0,-8.425048828E0
3.043459492E0,1.914367676E-1,9.621307373E0,-8.428771973E0
3.048494892E0,2.195892334E-1,9.627700806E0,-8.438323975E0
3.053530293E0,1.793975830E-1,9.602630615E0,-8.491790771E0
3.058565693E0,1.804199219E-1,9.639221191E0,-8.463104248E0
3.063601093E0,1.454010010E-1,9.644592285E0,-8.455520630E0
3.068636494E0,1.614227295E-1,9.634872437E0,-8.483993530E0
3.073671894E0,1.625671387E-1,9.589340210E0,-8.489929199E0
3.078707295E0,1.138916016E-1,9.568756104E0,-8.440856934E0
3.083742695E0,1.182861328E-1,9.634140015E0,-8.374069214E0
3.088778095E0,1.563873291E-1,9.570709229E0,-8.415191650E0
3.093813496E0,1.186523438E-1,9.606292725E0,-8.455398560E0
3.098848896E0,1.484527588E-1,9.627761841E0,-8.454513550E0
3.103884297E0,1.569213867E-1,9.602584839E0,-8.449111938E0
3.108919697E0,1.171112061E-1,9.602844238E0,-8.474777222E0
3.113955097E0,9.991455078E-2,9.565093994E0,-8.462722778E0
3.118990498E0,6.298828125E-2,9.597549438E0,-8.464477539E0
3.124025898E0,9.420776367E-2,9.565063477E0,-8.377700806E0
3.129061299E0,6.414794922E-2,9.599533081E0,-8.353240967E0
3.134096699E0,5.339050293E-2,9.601394653E0,-8.290771484E0
3.139132099E0,4.713439941E-2,9.566207886E0,-8.373184204E0
3.144167500E0,4.734802246E-2,9.595199585E0,-8.420364380E0
3.149202900E0,8.612060547E-2,9.602508545E0,-8.375503540E0
3.154238301E0,9.188842773E-2,9.619125366E0,-8.287338257E0
3.159273701E0,7.449340820E-2,9.610671997E0,-8.342178345E0
3.164309101E0,6.643676758E-2,9.594711304E0,-8.404464722E0
3.169344502E0,6.459045410E-2,9.588684082E0,-8.410461426E0
3.174379902E0,7.998657227E-2,9.612289429E0,-8.331192017E0
3.179415302E0,5.146789551E-2,9.590072632E0,-8.325576782E0
3.184450703E0,5.085754395E-2,9.589813232E0,-8.200225830E0
3.189486103E0,7.575988770E-2,9.603485107E0,-8.236358643E0
3.194521504E0,8.132934570E-2,9.596954346E0,-8.284149170E0
3.199556904E0,8.287048340E-2,9.579650879E0,-8.387100220E0
3.204592304E0,8.287048340E-2,9.594696045E0,-8.380722046E0
3.209627705E0,5.465698242E-2,9.592803955E0,-8.329467773E0
3.214663105E0,3.102111816E-2,9.576232910E0,-8.297729492E0
3.219698506E0,7.920837402E-2,9.568695068E0,-8.281433105E0
3.224733906E0,1.264953613E-1,9.611251831E0,-8.296264648E0
3.229769306E0,1.399993896E-1,9.636032104E0,-8.336380005E0
3.234804707E0,1.201629639E-1,9.613418579E0,-8.310852051E0
3.239840107E0,5.343627930E-2,9.582366943E0,-8.318069458E0
3.244875508E0,3.437805176E-2,9.599960327E0,-8.315734863E0
3.249910908E0,9.129333496E-2,9.642349243E0,-8.301025391E0
3.254946308E0,1.119384766E-1,9.643325806E0,-8.346603394E0
3.259981709E0,1.042785645E-1,9.623397827E0,-8.305389404E0
3.265017109E0,7.202148438E-2,9.601165771E0,-8.243743896E0
3.270052510E0,1.446380615E-1,9.634796143E0,-8.208618164E0
3.275087910E0,1.853179932E-1,9.604324341E0,-8.223114014E0
3.280123310E0,1.521606445E-1,9.589828491E0,-8.284744263E0
3.285158711E0,1.337280273E-1,9.581115723E0,-8.265548706E0
3.290194111E0,1.870880127E-1,9.601181030E0,-8.209854126E0
3.295229511E0,2.052612305E-1,9.622619629E0,-8.211593628E0
3.300264912E0,1.932067871E-1,9.605545044E0,-8.269653320E0
3.305300312E0,2.095489502E-1,9.595504761E0,-8.316223145E0
3.310335713E0,2.057342529E-1,9.578674316E0,-8.216339111E0
3.315371113E0,1.815032959E-1,9.603591919E0,-8.134796143E0
3.320406513E0,1.633300781E-1,9.640136719E0,-8.155441284E0
3.325441914E0,1.861419678E-1,9.630798340E0,-8.176528931E0
3.330477314E0,2.630004883E-1,9.593780518E0,-8.174072266E0
3.335512715E0,2.345581055E-1,9.582794189E0,-8.188034058E0
3.340548115E0,2.161712646E-1,9.606140137E0,-8.148651123E0
3.345583515E0,1.960906982E-1,9.589996338E0,-8.093887329E0
3.350618916E0,2.310333252E-1,9.592117310E0,-8.083541870E0
3.355654316E0,2.917022705E-1,9.581405640E0,-8.114425659E0
3.360689717E0,2.907409668E-1,9.616577148E0,-8.170333862E0
3.365725117E0,2.643737793E-1,9.596633911E0,-8.083053589E0
3.370760517E0,2.709655762E-1,9.601882935E0,-8.060256958E0
3.375795918E0,2.631378174E-1,9.585937500E0,-8.007476807E0
3.380831318E0,3.173217773E-1,9.574493408E0,-8.033584595E0
3.385866718E0,2.941131592E-1,9.625839233E0,-8.072479248E0
3.390902119E0,3.091430664E-1,9.639175415E0,-8.104629517E0
3.395937519E0,2.789611816E-1,9.585876465E0,-7.988983154E0
3.400972920E0,2.558441162E-1,9.593627930E0,-7.979141235E0
3.406008320E0,2.587127686E-1,9.594696045E0,-7.963684082E0
3.411043720E0,3.359680176E-1,9.601486206E0,-7.933227539E0
3.416079121E0,3.284759521E-1,9.604125977E0,-7.993606567E0
3.421114521E0,3.070220947E-1,9.573837280E0,-7.946914673E0
3.426149922E0,2.545776367E-1,9.604019165E0,-7.856094360E0
3.431185322E0,2.801361084E-1,9.613433838E0,-7.934143066E0
3.436220722E0,2.341156006E-1,9.567352295E0,-7.942611694E0
3.441256123E0,2.861633301E-1,9.616378784E0,-7.899642944E0
3.446291523E0,3.091583252E-1,9.623138428E0,-7.813888550E0
3.451326924E0,2.662963867E-1,9.618377686E0,-7.929473877E0
3.456362324E0,2.732696533E-1,9.581161499E0,-7.932083130E0
3.461397724E0,3.308868408E-1,9.591018677E0,-7.938003540E0
3.466433125E0,3.592376709E-1,9.600341797E0,-7.945678711E0
3.471468525E0,3.463897705E-1,9.585052490E0,-7.864242554E0
3.476503926E0,2.411499023E-1,9.572906494E0,-7.730834961E0
3.481539326E0,3.167266846E-1,9.624801636E0,-7.735488892E0
3.486574726E0,4.212799072E-1,9.655258179E0,-7.807144165E0
3.491610127E0,3.806762695E-1,9.612548828E0,-7.867553711E0
3.496645527E0,3.912200928E-1,9.572219849E0,-7.917007446E0
3.501680927E0,2.842254639E-1,9.623794556E0,-7.824478149E0
3.506716328E0,3.075256348E-1,9.637008667E0,-7.794677734E0
3.511751728E0,4.239959717E-1,9.605712891E0,-7.826217651E0
3.516787129E0,4.529724121E-1,9.598770142E0,-7.846923828E0
3.521822529E0,3.440856934E-1,9.604568481E0,-7.863388062E0
3.526857929E0,3.144226074E-1,9.593048096E0,-7.775665283E0
3.531893330E0,3.867187500E-1,9.620590210E0,-7.775650024E0
3.536928730E0,4.082031250E-1,9.617492676E0,-7.842086792E0
3.541964131E0,3.570709229E-1,9.583541870E0,-7.962036133E0
3.546999531E0,4.141540527E-1,9.598114014E0,-7.926208496E0
3.552034931E0,4.664611816E-1,9.582336426E0,-7.887908936E0
3.557070332E0,4.814300537E-1,9.614379883E0,-7.845611572E0
3.562105732E0,4.528808594E-1,9.639831543E0,-7.873168945E0
3.567141133E0,4.276428223E-1,9.650894165E0,-7.884765625E0
3.572176533E0,4.071197510E-1,9.632354736E0,-7.918853760E0
3.577211933E0,4.199676514E-1,9.606597900E0,-7.899810791E0
3.582247334E0,4.641265869E-1,9.609634399E0,-7.886749268E0
3.587282734E0,4.844207764E-1,9.624252319E0,-7.955718994E0
3.592318135E0,5.072479248E-1,9.626724243E0,-8.012435913E0
3.597353535E0,4.717407227E-1,9.611495972E0,-7.969467163E0
3.602388935E0,4.796600342E-1,9.622817993E0,-7.944473267E0
3.607424336E0,4.840850830E-1,9.644638062E0,-7.922393799E0
3.612459736E0,4.758453369E-1,9.626358032E0,-7.904617310E0
3.617495136E0,4.800262451E-1,9.614318848E0,-7.918563843E0
3.622530537E0,4.976654053E-1,9.611495972E0,-8.002243042E0
3.627565937E0,5.132141113E-1,9.602081299E0,-8.023269653E0
3.632601338E0,5.116424561E-1,9.610931396E0,-7.973632812E0
3.637636738E0,5.178527832E-1,9.605056763E0,-8.032333374E0
3.642672138E0,5.279388428E-1,9.589981079E0,-8.067962646E0
3.647707539E0,5.327606201E-1,9.601074219E0,-8.047241211E0
3.652742939E0,5.062103271E-1,9.621673584E0,-8.018173218E0
3.657778340E0,5.110931396E-1,9.617416382E0,-7.946472168E0
3.662813740E0,5.309753418E-1,9.595870972E0,-7.946716309E0
3.667849140E0,5.289001465E-1,9.593780518E0,-8.014892578E0
3.672884541E0,5.818481445E-1,9.593856812E0,-8.065307617E0
3.677919941E0,6.204833984E-1,9.598907471E0,-8.109909058E0
3.682955342E0,5.886383057E-1,9.633743286E0,-8.092605591E0
3.687990742E0,5.458831787E-1,9.609466553E0,-8.060501099E0
3.693026142E0,5.577239990E-1,9.599899292E0,-8.133041382E0
3.698061543E0,5.891876221E-1,9.610717773E0,-8.098602295E0
3.703096943E0,6.151275635E-1,9.619171143E0,-8.123992920E0
3.708132343E0,5.745391846E-1,9.593109131E0,-8.157318115E0
3.713167744E0,4.784240723E-1,9.596466064E0,-8.119277954E0
3.718203144E0,4.718780518E-1,9.589889526E0,-8.119338989E0
3.723238545E0,5.610809326E-1,9.606964111E0,-8.149337769E0
3.728273945E0,6.020507812E-1,9.611358643E0,-8.155471802E0
3.733309345E0,5.179748535E-1,9.647583008E0,-8.191696167E0
3.738344746E0,5.018157959E-1,9.586730957E0,-8.155380249E0
3.743380146E0,4.955902100E-1,9.648223877E0,-8.129653931E0
3.748415547E0,4.925689697E-1,9.627410889E0,-8.225738525E0
3.753450947E0,4.729766846E-1,9.588928223E0,-8.223754883E0
3.758486347E0,4.534606934E-1,9.626510620E0,-8.152481079E0
3.763521748E0,4.407958984E-1,9.612747192E0,-8.185638428E0
3.768557148E0,4.064025879E-1,9.582305908E0,-8.271453857E0
3.773592549E0,3.905487061E-1,9.580413818E0,-8.229034424E0
3.778627949E0,3.691711426E-1,9.580413818E0,-8.240722656E0
3.783663349E0,4.082336426E-1,9.589752197E0,-8.229476929E0
3.788698750E0,3.995056152E-1,9.618316650E0,-8.267105103E0
3.793734150E0,3.723602295E-1,9.595062256E0,-8.260406494E0
3.798769551E0,3.011779785E-1,9.624984741E0,-8.277679443E0
3.803804951E0,3.699035645E-1,9.599273682E0,-8.310104370E0
3.808840351E0,4.014282227E-1,9.596679688E0,-8.308273315E0
3.813875752E0,3.039398193E-1,9.635482788E0,-8.317810059E0
3.818911152E0,3.326110840E-1,9.635177612E0,-8.324478149E0
3.823946552E0,3.302001953E-1,9.585479736E0,-8.324905396E0
3.828981953E0,3.248901367E-1,9.627792358E0,-8.333969116E0
3.834017353E0,3.015136719E-1,9.575805664E0,-8.373825073E0
3.839052754E0,3.129272461E-1,9.630584717E0,-8.380584717E0
3.844088154E0,2.905731201E-1,9.643173218E0,-8.355850220E0
3.849123554E0,2.804412842E-1,9.618499756E0,-8.421707153E0
3.854158955E0,2.867889404E-1,9.615066528E0,-8.380218506E0
3.859194355E0,3.048248291E-1,9.640625000E0,-8.310073853E0
3.864229756E0,2.605133057E-1,9.584243774E0,-8.316802979E0
3.869265156E0,2.693634033E-1,9.589935303E0,-8.331710815E0
3.874300556E0,2.448883057E-1,9.598800659E0,-8.431106567E0
3.879335957E0,2.352294922E-1,9.616851807E0,-8.454772949E0
3.884371357E0,2.129974365E-1,9.587814331E0,-8.460784912E0
3.889406758E0,1.801300049E-1,9.612350464E0,-8.463195801E0
3.894442158E0,2.015228271E-1,9.625503540E0,-8.454620361E0
3.899477558E0,1.983337402E-1,9.585601807E0,-8.418411255E0
3.904512959E0,2.005615234E-1,9.593872070E0,-8.373764038E0
3.909548359E0,1.931152344E-1,9.613052368E0,-8.371826172E0
3.914583760E0,2.165985107E-1,9.567504883E0,-8.447250366E0
3.919619160E0,2.227325439E-1,9.563491821E0,-8.453582764E0
3.924654560E0,1.968078613E-1,9.587219238E0,-8.495529175E0
3.929689961E0,2.198944092E-1,9.601074219E0,-8.507537842E0
3.934725361E0,2.399597168E-1,9.583709717E0,-8.502548218E0
3.939760761E0,2.417602539E-1,9.606628418E0,-8.497619629E0
3.944796162E0,2.307434082E-1,9.642272949E0,-8.437973022E0
3.949831562E0,2.047576904E-1,9.620101929E0,-8.418960571E0
3.954866963E0,2.005310059E-1,9.612854004E0,-8.462326050E0
3.959902363E0,2.022094727E-1,9.606719971E0,-8.504272461E0
3.964937763E0,1.954650879E-1,9.604217529E0,-8.524002075E0
3.969973164E0,1.991577148E-1,9.594802856E0,-8.505294800E0
3.975008564E0,2.014007568E-1,9.586380005E0,-8.487060547E0
3.980043965E0,2.133789062E-1,9.602615356E0,-8.465042114E0
3.985079365E0,2.252655029E-1,9.634109497E0,-8.483993530E0
3.990114765E0,2.381896973E-1,9.627090454E0,-8.483779907E0
3.995150166E0,2.745819092E-1,9.607620239E0,-8.463943481E0
4.000185566E0,2.370300293E-1,9.583007812E0,-8.455001831E0
4.005220967E0,2.311706543E-1,9.580291748E0,-8.468597412E0
4.010256367E0,2.350311279E-1,9.608718872E0,-8.489318848E0
4.015291767E0,1.959991455E-1,9.614929199E0,-8.479537964E0
4.020327168E0,1.947784424E-1,9.615905762E0,-8.477264404E0
4.025362568E0,1.996154785E-1,9.595275879E0,-8.469192505E0
4.030397968E0,2.161560059E-1,9.585952759E0,-8.489501953E0
4.035433369E0,2.775573730E-1,9.590789795E0,-8.444641113E0
4.040468769E0,2.556457520E-1,9.622009277E0,-8.475067139E0
4.045504170E0,1.915435791E-1,9.620040894E0,-8.468704224E0
4.050539570E0,1.784667969E-1,9.591384888E0,-8.448516846E0
4.055574970E0,2.084960938E-1,9.605560303E0,-8.479171753E0
4.060610371E0,2.381439209E-1,9.601257324E0,-8.548110962E0
4.065645771E0,2.266235352E-1,9.620605469E0,-8.491210938E0
4.070681172E0,2.153778076E-1,9.600250244E0,-8.441375732E0
4.075716572E0,1.874084473E-1,9.599838257E0,-8.398178101E0
4.080751972E0,2.129821777E-1,9.622879028E0,-8.448043823E0
4.085787373E0,2.675323486E-1,9.600814819E0,-8.417861938E0
4.090822773E0,2.046661377E-1,9.634353638E0,-8.433563232E0
4.095858174E0,2.081146240E-1,9.624160767E0,-8.414550781E0
4.100893574E0,2.073211670E-1,9.590209961E0,-8.477630615E0
4.105928974E0,2.273864746E-1,9.628707886E0,-8.480422974E0
4.110964375E0,2.452545166E-1,9.626693726E0,-8.468612671E0
4.115999775E0,2.492523193E-1,9.574111938E0,-8.462997437E0
4.121035176E0,1.994476318E-1,9.627258301E0,-8.449478149E0
4.126070576E0,2.701721191E-1,9.628341675E0,-8.417190552E0
4.131105976E0,2.689208984E-1,9.605529785E0,-8.430664062E0
4.136141377E0,2.776489258E-1,9.597381592E0,-8.433868408E0
4.141176777E0,2.942047119E-1,9.601684570E0,-8.498565674E0
4.146212177E0,2.665100098E-1,9.580673218E0,-8.366607666E0
4.151247578E0,2.994842529E-1,9.654205322E0,-8.367324829E0
4.156282978E0,3.257141113E-1,9.608703613E0,-8.365585327E0
4.161318379E0,3.297119141E-1,9.588668823E0,-8.415771484E0
4.166353779E0,3.038940430E-1,9.631042480E0,-8.358886719E0
4.171389179E0,3.468322754E-1,9.594406128E0,-8.432540894E0
4.176424580E0,3.044433594E-1,9.629104614E0,-8.369903564E0
4.181459980E0,3.356475830E-1,9.607666016E0,-8.405197144E0
4.186495381E0,2.957916260E-1,9.572235107E0,-8.400680542E0
4.191530781E0,3.491973877E-1,9.605010986E0,-8.375534058E0
4.196566181E0,3.482513428E-1,9.597854614E0,-8.348815918E0
4.201601582E0,3.566131592E-1,9.634948730E0,-8.371963501E0
4.206636982E0,3.566131592E-1,9.615570068E0,-8.375411987E0
4.211672383E0,3.735656738E-1,9.598663330E0,-8.315338135E0
4.216707783E0,4.436187744E-1,9.594696045E0,-8.325424194E0
4.221743183E0,3.840179443E-1,9.597488403E0,-8.367233276E0
4.226778584E0,4.235534668E-1,9.613937378E0,-8.365509033E0
4.231813984E0,4.044952393E-1,9.632247925E0,-8.285858154E0
4.236849385E0,4.032135010E-1,9.627044678E0,-8.281219482E0
4.241884785E0,4.382171631E-1,9.619110107E0,-8.297241211E0
4.246920185E0,4.827728271E-1,9.627380371E0,-8.352615356E0
4.251955586E0,4.729156494E-1,9.617095947E0,-8.295654297E0
4.256990986E0,4.449920654E-1,9.608505249E0,-8.265975952E0
4.262026386E0,4.486846924E-1,9.636459351E0,-8.233581543E0
4.267061787E0,4.837646484E-1,9.623260498E0,-8.297851562E0
4.272097187E0,4.899139404E-1,9.631973267E0,-8.304641724E0
4.277132588E0,4.399719238E-1,9.637237549E0,-8.273788452E0
4.282167988E0,4.438171387E-1,9.631820679E0,-8.262664795E0
4.287203388E0,4.618988037E-1,9.638778687E0,-8.237274170E0
4.292238789E0,4.770812988E-1,9.587814331E0,-8.246047974E0
4.297274189E0,4.764251709E-1,9.580978394E0,-8.223358154E0
4.302309590E0,5.200653076E-1,9.595291138E0,-8.227508545E0
4.307344990E0,5.113067627E-1,9.612731934E0,-8.231231689E0
4.312380390E0,4.933471680E-1,9.644149780E0,-8.173721313E0
4.317415791E0,4.990539551E-1,9.630676270E0,-8.152374268E0
4.322451191E0,5.098114014E-1,9.599182129E0,-8.177429199E0
4.327486592E0,5.543975830E-1,9.593765259E0,-8.213760376E0
4.332521992E0,5.635070801E-1,9.594757080E0,-8.153900146E0
4.337557392E0,5.499267578E-1,9.613952637E0,-8.135284424E0
4.342592793E0,5.987243652E-1,9.615844727E0,-8.165710449E0
4.347628193E0,5.932769775E-1,9.624206543E0,-8.168121338E0
4.352663593E0,5.822143555E-1,9.623260498E0,-8.146469116E0
4.357698994E0,5.725708008E-1,9.613739014E0,-8.126220703E0
4.362734394E0,5.611114502E-1,9.604019165E0,-8.162582397E0
4.367769795E0,6.045532227E-1,9.599914551E0,-8.133666992E0
4.372805195E0,5.996856689E-1,9.600372314E0,-8.048690796E0
4.377840595E0,6.041870117E-1,9.583068848E0,-8.074005127E0
4.382875996E0,6.047821045E-1,9.614273071E0,-8.153411865E0
4.387911396E0,5.720977783E-1,9.629745483E0,-8.168365479E0
4.392946797E0,6.019134521E-1,9.619262695E0,-8.180114746E0
4.397982197E0,5.907897949E-1,9.599899292E0,-8.174194336E0
4.403017597E0,5.541534424E-1,9.638519287E0,-8.140960693E0
4.408052998E0,6.190032959E-1,9.621780396E0,-8.176589966E0
4.413088398E0,6.580047607E-1,9.604873657E0,-8.159744263E0
4.418123799E0,6.701049805E-1,9.627136230E0,-8.098342896E0
4.423159199E0,6.211090088E-1,9.608215332E0,-8.117599487E0
4.428194599E0,5.950317383E-1,9.599456787E0,-8.111022949E0
4.433230000E0,5.978240967E-1,9.621704102E0,-8.137008667E0
4.438265400E0,6.050567627E-1,9.628021240E0,-8.170425415E0
4.443300801E0,5.815277100E-1,9.610687256E0,-8.159561157E0
4.448336201E0,5.775604248E-1,9.606597900E0,-8.165252686E0
4.453371601E0,5.402374268E-1,9.586730957E0,-8.101821899E0
4.458407002E0,5.347747803E-1,9.576736450E0,-8.167404175E0
4.463442402E0,5.330810547E-1,9.604446411E0,-8.142562866E0
4.468477802E0,5.264892578E-1,9.606887817E0,-8.163574219E0
4.473513203E0,5.531463623E-1,9.610824585E0,-8.141952515E0
4.478548603E0,4.895935059E-1,9.639434814E0,-8.037277222E0
4.483584004E0,5.156250000E-1,9.587539673E0,-8.158355713E0
4.488619404E0,4.674224854E-1,9.591659546E0,-8.171966553E0
4.493654804E0,4.839630127E-1,9.583312988E0,-8.145141602E0
4.498690205E0,4.851531982E-1,9.601119995E0,-8.134399414E0
4.503725605E0,4.387054443E-1,9.597183228E0,-8.094573975E0
4.508761006E0,4.492950439E-1,9.604125977E0,-8.154708862E0
4.513796406E0,4.611511230E-1,9.609024048E0,-8.147949219E0
4.518831806E0,4.294738770E-1,9.618103027E0,-8.087402344E0
4.523867207E0,3.801116943E-1,9.597869873E0,-8.138504028E0
4.528902607E0,3.710937500E-1,9.622329712E0,-8.123413086E0
4.533938008E0,3.744812012E-1,9.600814819E0,-8.000030518E0
4.538973408E0,3.585357666E-1,9.588500977E0,-8.098159790E0
4.544008808E0,3.815612793E-1,9.624664307E0,-8.092483521E0
4.549044209E0,3.687438965E-1,9.568206787E0,-8.053604126E0
4.554079609E0,3.711700439E-1,9.607025146E0,-8.040054321E0
4.559115010E0,3.631439209E-1,9.593536377E0,-8.065246582E0
4.564150410E0,2.943725586E-1,9.609268188E0,-8.060531616E0
4.569185810E0,2.987823486E-1,9.647369385E0,-8.114440918E0
4.574221211E0,3.340148926E-1,9.614578247E0,-8.081985474E0
4.579256611E0,3.333129883E-1,9.631637573E0,-8.051147461E0
4.584292011E0,3.013916016E-1,9.625305176E0,-7.994720459E0
4.589327412E0,3.030548096E-1,9.586883545E0,-7.961669922E0
4.594362812E0,3.074951172E-1,9.626388550E0,-8.052108765E0
4.599398213E0,2.740631104E-1,9.617462158E0,-8.104904175E0
4.604433613E0,2.511444092E-1,9.617431641E0,-8.112136841E0
4.609469013E0,2.305603027E-1,9.636581421E0,-8.104110718E0
4.614504414E0,2.673797607E-1,9.607879639E0,-8.021682739E0
4.619539814E0,2.778930664E-1,9.626052856E0,-8.050735474E0
4.624575215E0,2.434692383E-1,9.622482300E0,-8.055877686E0
4.629610615E0,2.589569092E-1,9.613388062E0,-8.081329346E0
4.634646015E0,2.469024658E-1,9.634262085E0,-8.106216431E0
4.639681416E0,2.154541016E-1,9.616821289E0,-8.074203491E0
4.644716816E0,2.150726318E-1,9.613739014E0,-8.063980103E0
4.649752217E0,2.099304199E-1,9.611007690E0,-8.119079590E0
4.654787617E0,1.936492920E-1,9.601913452E0,-8.126129150E0
4.659823017E0,1.796722412E-1,9.595657349E0,-8.128540039E0
4.664858418E0,1.995086670E-1,9.606063843E0,-8.115936279E0
4.669893818E0,2.223052979E-1,9.615386963E0,-8.141494751E0
4.674929218E0,2.294769287E-1,9.608154297E0,-8.138809204E0
4.679964619E0,2.117309570E-1,9.582305908E0,-8.170562744E0
4.685000019E0,2.199096680E-1,9.612045288E0,-8.197647095E0
4.690035420E0,1.799468994E-1,9.644027710E0,-8.189910889E0
4.695070820E0,1.459655762E-1,9.604156494E0,-8.189956665E0
4.700106220E0,1.569213867E-1,9.590988159E0,-8.192581177E0
4.705141621E0,1.676025391E-1,9.585006714E0,-8.184341431E0
4.710177021E0,1.683349609E-1,9.593185425E0,-8.144836426E0
4.715212422E0,1.594848633E-1,9.609848022E0,-8.119461060E0
4.720247822E0,1.254425049E-1,9.618850708E0,-8.122863770E0
4.725283222E0,1.729736328E-1,9.605453491E0,-8.126907349E0
4.730318623E0,2.066192627E-1,9.597549438E0,-8.139785767E0
4.735354023E0,1.603851318E-1,9.589157104E0,-8.138031006E0
4.740389424E0,1.466369629E-1,9.579772949E0,-8.149703979E0
4.745424824E0,1.488342285E-1,9.590286255E0,-8.128021240E0
4.750460224E0,1.455688477E-1,9.603317261E0,-8.127426147E0
4.755495625E0,1.735839844E-1,9.622604370E0,-8.107589722E0
4.760531025E0,1.892395020E-1,9.605865479E0,-8.157363892E0
4.765566426E0,1.733245850E-1,9.586364746E0,-8.114822388E0
4.770601826E0,1.255187988E-1,9.591262817E0,-8.139953613E0
4.775637226E0,1.333160400E-1,9.596420288E0,-8.166076660E0
4.780672627E0,1.352996826E-1,9.597076416E0,-8.139099121E0
4.785708027E0,1.526031494E-1,9.607849121E0,-8.134674072E0
4.790743427E0,1.498565674E-1,9.622375488E0,-8.143768311E0
4.795778828E0,1.658325195E-1,9.621887207E0,-8.147811890E0
4.800814228E0,1.747283936E-1,9.588592529E0,-8.127441406E0
4.805849629E0,2.144927979E-1,9.605621338E0,-8.118255615E0
4.810885029E0,1.937255859E-1,9.617263794E0,-8.105545044E0
4.815920429E0,1.815948486E-1,9.606491089E0,-8.151107788E0
4.820955830E0,2.129364014E-1,9.594055176E0,-8.146011353E0
4.825991230E0,2.247161865E-1,9.614959717E0,-8.116790771E0
4.831026631E0,2.298889160E-1,9.582778931E0,-8.152542114E0
4.836062031E0,2.624206543E-1,9.620666504E0,-8.119461060E0
4.841097431E0,2.834472656E-1,9.610504150E0,-8.164703369E0
4.846132832E0,2.085266113E-1,9.613357544E0,-8.220123291E0
4.851168232E0,2.867584229E-1,9.611495972E0,-8.177597046E0
4.856203633E0,2.447967529E-1,9.663406372E0,-8.194885254E0
4.861239033E0,2.767333984E-1,9.595031738E0,-8.166122437E0
4.866274433E0,3.037567139E-1,9.608657837E0,-8.150970459E0
4.871309834E0,2.640228271E-1,9.599502563E0,-8.169631958E0
4.876345234E0,3.302917480E-1,9.585418701E0,-8.174743652E0
4.881380635E0,3.087615967E-1,9.625457764E0,-8.212738037E0
4.886416035E0,2.732696533E-1,9.597290039E0,-8.237716675E0
4.891451435E0,3.436889648E-1,9.606781006E0,-8.276321411E0
4.896486836E0,2.784881592E-1,9.653366089E0,-8.220321655E0
4.901522236E0,2.894287109E-1,9.607376099E0,-8.227676392E0
4.906557636E0,3.388214111E-1,9.644210815E0,-8.214614868E0
4.911593037E0,3.084564209E-1,9.618835449E0,-8.276412964E0
4.916628437E0,3.463745117E-1,9.636184692E0,-8.231079102E0
4.921663838E0,3.558959961E-1,9.595474243E0,-8.221328735E0
4.926699238E0,3.379821777E-1,9.626815796E0,-8.190689087E0
4.931734638E0,3.553619385E-1,9.594589233E0,-8.231536865E0
4.936770039E0,3.576660156E-1,9.600006104E0,-8.251770020E0
4.941805439E0,3.331604004E-1,9.575744629E0,-8.294769287E0
4.946840840E0,3.109893799E-1,9.610931396E0,-8.290435791E0
4.951876240E0,3.298492432E-1,9.617721558E0,-8.220825195E0
4.956911640E0,3.079681396E-1,9.596496582E0,-8.265106201E0
4.961947041E0,3.192749023E-1,9.639511108E0,-8.303802490E0
4.966982441E0,3.039855957E-1,9.605911255E0,-8.285446167E0
4.972017842E0,3.452758789E-1,9.604782104E0,-8.308898926E0
4.977053242E0,3.580169678E-1,9.631042480E0,-8.297988892E0
4.982088642E0,3.368530273E-1,9.627502441E0,-8.300704956E0
4.987124043E0,3.567810059E-1,9.588287354E0,-8.361831665E0
4.992159443E0,3.956451416E-1,9.603164673E0,-8.361434937E0
4.997194843E0,3.837585449E-1,9.641845703E0,-8.315917969E0
5.002230244E0,3.879089355E-1,9.656936646E0,-8.335327148E0
5.007265644E0,3.677673340E-1,9.636795044E0,-8.350662231E0
5.012301045E0,3.697052002E-1,9.638732910E0,-8.340637207E0
5.017336445E0,3.927917480E-1,9.636199951E0,-8.338714600E0
5.022371845E0,3.781890869E-1,9.590774536E0,-8.374847412E0
5.027407246E0,3.774871826E-1,9.592224121E0,-8.385803223E0
5.032442646E0,3.921508789E-1,9.625823975E0,-8.367904663E0
5.037478047E0,3.730621338E-1,9.630645752E0,-8.344192505E0
5.042513447E0,3.714141846E-1,9.602798462E0,-8.366760254E0
5.047548847E0,3.689422607E-1,9.592742920E0,-8.374618530E0
5.052584248E0,3.849792480E-1,9.582763672E0,-8.365905762E0
5.057619648E0,4.112701416E-1,9.579055786E0,-8.405441284E0
5.062655049E0,4.127960205E-1,9.572128296E0,-8.368057251E0
5.067690449E0,3.737487793E-1,9.606506348E0,-8.355895996E0
5.072725849E0,3.811798096E-1,9.620697021E0,-8.357116699E0
5.077761250E0,4.453582764E-1,9.600906372E0,-8.358596802E0
5.082796650E0,4.854431152E-1,9.622314453E0,-8.392791748E0
5.087832051E0,4.541015625E-1,9.608306885E0,-8.400695801E0
5.092867451E0,4.275970459E-1,9.586608887E0,-8.368408203E0
5.097902851E0,4.643249512E-1,9.618515015E0,-8.419982910E0
5.102938252E0,4.987640381E-1,9.617858887E0,-8.436798096E0
5.107973652E0,5.096588135E-1,9.628265381E0,-8.415878296E0
5.113009052E0,5.270996094E-1,9.600479126E0,-8.403076172E0
5.118044453E0,5.076599121E-1,9.601425171E0,-8.367553711E0
5.123079853E0,5.078735352E-1,9.616302490E0,-8.392639160E0
5.128115254E0,4.902038574E-1,9.640319824E0,-8.463897705E0
5.133150654E0,5.130462646E-1,9.628814697E0,-8.393508911E0
5.138186054E0,4.905700684E-1,9.631393433E0,-8.410369873E0
5.143221455E0,4.940338135E-1,9.617340088E0,-8.423858643E0
5.148256855E0,5.428924561E-1,9.600479126E0,-8.431121826E0
5.153292256E0,5.639190674E-1,9.619155884E0,-8.406372070E0
5.158327656E0,5.040130615E-1,9.627517700E0,-8.396377563E0
5.163363056E0,5.028228760E-1,9.628021240E0,-8.428405762E0
5.168398457E0,4.813232422E-1,9.612472534E0,-8.469360352E0
5.173433857E0,4.776000977E-1,9.638717651E0,-8.423263550E0
5.178469258E0,5.082397461E-1,9.640640259E0,-8.440765381E0
5.183504658E0,4.773559570E-1,9.581344604E0,-8.457992554E0
5.188540058E0,5.370941162E-1,9.597793579E0,-8.447738647E0
5.193575459E0,5.279998779E-1,9.608169556E0,-8.431060791E0
5.198610859E0,5.578155518E-1,9.596084595E0,-8.495758057E0
5.203646260E0,5.613250732E-1,9.620803833E0,-8.483413696E0
5.208681660E0,4.969787598E-1,9.625473022E0,-8.401702881E0
5.213717060E0,5.755004883E-1,9.623382568E0,-8.443115234E0
5.218752461E0,5.689697266E-1,9.620971680E0,-8.416259766E0
5.223787861E0,5.893554688E-1,9.625518799E0,-8.426528931E0
5.228823261E0,6.016387939E-1,9.635040283E0,-8.436233521E0
5.233858662E0,6.589202881E-1,9.604217529E0,-8.462539673E0
5.238894062E0,6.609649658E-1,9.609024048E0,-8.412277222E0
5.243929463E0,6.354675293E-1,9.613906860E0,-8.392242432E0
5.248964863E0,6.490783691E-1,9.622207642E0,-8.439010620E0
5.254000263E0,6.388397217E-1,9.646697998E0,-8.498901367E0
5.259035664E0,5.873107910E-1,9.565933228E0,-8.502868652E0
5.264071064E0,6.804656982E-1,9.656631470E0,-8.398529053E0
5.269106465E0,6.539611816E-1,9.603546143E0,-8.355087280E0
5.274141865E0,6.303558350E-1,9.581161499E0,-8.401657104E0
5.279177265E0,6.329956055E-1,9.624450684E0,-8.439437866E0
5.284212666E0,6.517791748E-1,9.616455078E0,-8.381210327E0
5.289248066E0,6.524963379E-1,9.617401123E0,-8.407424927E0
5.294283467E0,6.691436768E-1,9.615692139E0,-8.397918701E0
5.299318867E0,7.152404785E-1,9.638381958E0,-8.358474731E0
5.304354267E0,6.159515381E-1,9.638565063E0,-8.358123779E0
5.309389668E0,5.450134277E-1,9.618759155E0,-8.400238037E0
5.314425068E0,5.640411377E-1,9.601287842E0,-8.427825928E0
5.319460468E0,5.401611328E-1,9.593185425E0,-8.368759155E0
5.324495869E0,5.720825195E-1,9.594223022E0,-8.347061157E0
5.329531269E0,5.819549561E-1,9.643386841E0,-8.331344604E0
5.334566670E0,5.478210449E-1,9.608566284E0,-8.318649292E0
5.339602070E0,5.621490479E-1,9.605316162E0,-8.320693970E0
5.344637470E0,5.382690430E-1,9.596847534E0,-8.320983887E0
5.349672871E0,5.207519531E-1,9.624008179E0,-8.307205200E0
5.354708271E0,5.129241943E-1,9.643875122E0,-8.265747070E0
5.359743672E0,4.991760254E-1,9.648757935E0,-8.290176392E0
5.364779072E0,5.027618408E-1,9.601989746E0,-8.312362671E0
5.369814472E0,4.690704346E-1,9.609802246E0,-8.288085938E0
5.374849873E0,4.651641846E-1,9.597824097E0,-8.234878540E0
5.379885273E0,4.666137695E-1,9.610839844E0,-8.215606689E0
5.384920674E0,4.728546143E-1,9.599639893E0,-8.237991333E0
5.389956074E0,4.735717773E-1,9.594039917E0,-8.242507935E0
5.394991474E0,4.506072998E-1,9.606918335E0,-8.248626709E0
5.400026875E0,4.168701172E-1,9.617202759E0,-8.243576050E0
5.405062275E0,3.851013184E-1,9.601516724E0,-8.206512451E0
5.410097676E0,3.800506592E-1,9.597976685E0,-8.233093262E0
5.415133076E0,3.742980957E-1,9.623306274E0,-8.255264282E0
5.420168476E0,3.592834473E-1,9.607009888E0,-8.255096436E0
5.425203877E0,3.773040771E-1,9.601623535E0,-8.290420532E0
5.430239277E0,3.709411621E-1,9.601684570E0,-8.254318237E0
5.435274677E0,3.377227783E-1,9.606155396E0,-8.227981567E0
5.440310078E0,3.426361084E-1,9.615432739E0,-8.225524902E0
5.445345478E0,3.617706299E-1,9.621124268E0,-8.235504150E0
5.450380879E0,3.394165039E-1,9.638031006E0,-8.199645996E0
5.455416279E0,2.926177979E-1,9.615463257E0,-8.184890747E0
5.460451679E0,2.852783203E-1,9.598571777E0,-8.183944702E0
5.465487080E0,2.647399902E-1,9.608642578E0,-8.195281982E0
5.470522480E0,2.807464600E-1,9.596542358E0,-8.166381836E0
5.475557881E0,2.923278809E-1,9.620971680E0,-8.203247070E0
5.480593281E0,2.491760254E-1,9.595123291E0,-8.215332031E0
5.485628681E0,2.337341309E-1,9.603607178E0,-8.202896118E0
5.490664082E0,2.014923096E-1,9.626220703E0,-8.188888550E0
5.495699482E0,1.563873291E-1,9.606124878E0,-8.194427490E0
5.500734883E0,1.447601318E-1,9.597076416E0,-8.196548462E0
5.505770283E0,1.699066162E-1,9.618621826E0,-8.212097168E0
5.510805683E0,1.762542725E-1,9.665786743E0,-8.241088867E0
5.515841084E0,1.607666016E-1,9.605224609E0,-8.166198730E0
5.520876484E0,1.566619873E-1,9.602249146E0,-8.172042847E0
5.525911885E0,1.701507568E-1,9.589248657E0,-8.188903809E0
5.530947285E0,1.418151855E-1,9.571380615E0,-8.202987671E0
5.535982685E0,1.432342529E-1,9.588516235E0,-8.179443359E0
5.541018086E0,1.488189697E-1,9.620727539E0,-8.251647949E0
5.546053486E0,1.577453613E-1,9.598861694E0,-8.273193359E0
5.551088886E0,1.926574707E-1,9.588378906E0,-8.196746826E0
5.556124287E0,1.566162109E-1,9.621658325E0,-8.105392456E0
5.561159687E0,9.570312500E-2,9.640762329E0,-8.128372192E0
5.566195088E0,1.009521484E-1,9.602859497E0,-8.177658081E0
5.571230488E0,1.331787109E-1,9.608383179E0,-8.145919800E0
5.576265888E0,1.533355713E-1,9.563705444E0,-8.127716064E0
5.581301289E0,1.290588379E-1,9.620971680E0,-8.181930542E0
5.586336689E0,1.023864746E-1,9.592880249E0,-8.181686401E0
5.591372090E0,1.042785645E-1,9.630157471E0,-8.160354614E0
5.596407490E0,1.563262939E-1,9.592376709E0,-8.207809448E0
5.601442890E0,1.046752930E-1,9.604995728E0,-8.203247070E0
5.606478291E0,1.252746582E-1,9.645385742E0,-8.212600708E0
5.611513691E0,1.176605225E-1,9.602767944E0,-8.208160400E0
5.616549092E0,1.878356934E-1,9.618972778E0,-8.127105713E0
5.621584492E0,1.205139160E-1,9.590454102E0,-8.199905396E0
5.626619892E0,1.480407715E-1,9.597732544E0,-8.159347534E0
5.631655293E0,1.809539795E-1,9.604949951E0,-8.154678345E0
5.636690693E0,1.827087402E-1,9.610794067E0,-8.185165405E0
5.641726093E0,1.660461426E-1,9.604980469E0,-8.167800903E0
5.646761494E0,1.780090332E-1,9.596786499E0,-8.219726562E0
5.651796894E0,1.736602783E-1,9.611251831E0,-8.157913208E0
5.656832295E0,2.256927490E-1,9.619171143E0,-8.196334839E0
5.661867695E0,2.230377197E-1,9.601654053E0,-8.200515747E0
5.666903095E0,2.167053223E-1,9.607971191E0,-8.203948975E0
5.671938496E0,2.324829102E-1,9.597747803E0,-8.188980103E0
5.676973896E0,2.137908936E-1,9.610061646E0,-8.226669312E0
5.682009297E0,2.149505615E-1,9.607299805E0,-8.231674194E0
5.687044697E0,2.308044434E-1,9.595520020E0,-8.225723267E0
5.692080097E0,2.667999268E-1,9.607574463E0,-8.222824097E0
5.697115498E0,2.692108154E-1,9.582077026E0,-8.208831787E0
5.702150898E0,2.673339844E-1,9.591598511E0,-8.227371216E0
5.707186299E0,2.575225830E-1,9.599609375E0,-8.204498291E0
5.712221699E0,2.542572021E-1,9.611587524E0,-8.137924194E0
5.717257099E0,2.768707275E-1,9.606857300E0,-8.223144531E0
5.722292500E0,2.853240967E-1,9.629226685E0,-8.236434937E0
5.727327900E0,2.349395752E-1,9.600097656E0,-8.200073242E0
5.732363301E0,2.945404053E-1,9.583984375E0,-8.189086914E0
5.737398701E0,3.518524170E-1,9.606124878E0,-8.186965942E0
5.742434101E0,3.097686768E-1,9.594985962E0,-8.168869019E0
5.747469502E0,2.484741211E-1,9.590209961E0,-8.237609863E0
5.752504902E0,2.823638916E-1,9.613662720E0,-8.259002686E0
5.757540302E0,3.312530518E-1,9.628723145E0,-8.221649170E0
5.762575703E0,3.429565430E-1,9.594238281E0,-8.195800781E0
5.767611103E0,3.028717041E-1,9.611587524E0,-8.197814941E0
5.772646504E0,2.658386230E-1,9.647369385E0,-8.222427368E0
5.777681904E0,3.081207275E-1,9.646057129E0,-8.211471558E0
5.782717304E0,3.129425049E-1,9.634033203E0,-8.219833374E0
5.787752705E0,2.671051025E-1,9.621520996E0,-8.203292847E0
5.792788105E0,2.967071533E-1,9.615951538E0,-8.200653076E0
5.797823506E0,3.477020264E-1,9.642135620E0,-8.195129395E0
5.802858906E0,3.339996338E-1,9.614212036E0,-8.215972900E0
5.807894306E0,3.152923584E-1,9.601730347E0,-8.236953735E0
5.812929707E0,3.113861084E-1,9.598922729E0,-8.281250000E0
5.817965107E0,2.878723145E-1,9.598953247E0,-8.262603760E0
5.823000508E0,2.913360596E-1,9.605957031E0,-8.237655640E0
5.828035908E0,3.325195312E-1,9.601150513E0,-8.265686035E0
5.833071308E0,3.432159424E-1,9.599456787E0,-8.221435547E0
5.838106709E0,3.303375244E-1,9.617065430E0,-8.200775146E0
5.843142109E0,3.273010254E-1,9.638717651E0,-8.239791870E0
5.848177510E0,2.980804443E-1,9.616378784E0,-8.252105713E0
5.853212910E0,2.852020264E-1,9.605911255E0,-8.240447998E0
5.858248310E0,2.991027832E-1,9.611801147E0,-8.152984619E0
5.863283711E0,3.590087891E-1,9.601364136E0,-8.157485962E0
5.868319111E0,3.097686768E-1,9.600662231E0,-8.214645386E0
5.873354511E0,3.003540039E-1,9.638336182E0,-8.242034912E0
5.878389912E0,3.490295410E-1,9.653167725E0,-8.272048950E0
5.883425312E0,3.309936523E-1,9.646606445E0,-8.227981567E0
5.888460713E0,2.866516113E-1,9.598419189E0,-8.218826294E0
5.893496113E0,3.524169922E-1,9.611022949E0,-8.258865356E0
5.898531513E0,3.744964600E-1,9.594131470E0,-8.175415039E0
5.903566914E0,4.040679932E-1,9.622406006E0,-8.230926514E0
5.908602314E0,3.801422119E-1,9.656845093E0,-8.190002441E0
5.913637715E0,3.484954834E-1,9.661346436E0,-8.246383667E0
5.918673115E0,3.255310059E-1,9.629379272E0,-8.227737427E0
5.923708515E0,3.838043213E-1,9.616989136E0,-8.278533936E0
5.928743916E0,3.548889160E-1,9.570114136E0,-8.227050781E0
5.933779316E0,4.228820801E-1,9.632720947E0,-8.222122192E0
5.938814717E0,3.556060791E-1,9.605850220E0,-8.206268311E0
5.943850117E0,3.999938965E-1,9.631729126E0,-8.187103271E0
5.948885517E0,3.809356689E-1,9.637420654E0,-8.225875854E0
5.953920918E0,3.968658447E-1,9.583465576E0,-8.203369141E0
5.958956318E0,3.948059082E-1,9.630416870E0,-8.191787720E0
5.963991718E0,4.140014648E-1,9.634582520E0,-8.291183472E0
5.969027119E0,4.275817871E-1,9.604507446E0,-8.292495728E0
5.974062519E0,4.150238037E-1,9.613739014E0,-8.254714966E0
5.979097920E0,4.403533936E-1,9.614746094E0,-8.151092529E0
5.984133320E0,4.460144043E-1,9.628646851E0,-8.197402954E0
5.989168720E0,4.370727539E-1,9.605972290E0,-8.249191284E0
5.994204121E0,4.825286865E-1,9.596389771E0,-8.284713745E0
5.999239521E0,4.709472656E-1,9.575439453E0,-8.282546997E0
6.004274922E0,4.022064209E-1,9.630157471E0,-8.221343994E0
6.009310322E0,4.151611328E-1,9.635269165E0,-8.245269775E0
6.014345722E0,3.848114014E-1,9.585739136E0,-8.233123779E0
6.019381123E0,4.110107422E-1,9.624328613E0,-8.271423340E0
6.024416523E0,4.230651855E-1,9.603088379E0,-8.291152954E0
6.029451924E0,4.365386963E-1,9.596954346E0,-8.274215698E0
6.034487324E0,4.405822754E-1,9.621871948E0,-8.213623047E0
6.039522724E0,4.075622559E-1,9.578674316E0,-8.245697021E0
6.044558125E0,4.345855713E-1,9.608459473E0,-8.251922607E0
6.049593525E0,4.387664795E-1,9.641082764E0,-8.253082275E0
6.054628926E0,4.654235840E-1,9.622177124E0,-8.286926270E0
6.059664326E0,4.899139404E-1,9.612213135E0,-8.312255859E0
6.064699726E0,4.793853760E-1,9.632064819E0,-8.256301880E0
6.069735127E0,4.563903809E-1,9.617156982E0,-8.280029297E0
6.074770527E0,4.720458984E-1,9.643417358E0,-8.256347656E0
6.079805927E0,4.922637939E-1,9.619201660E0,-8.273452759E0
6.084841328E0,4.817047119E-1,9.616577148E0,-8.224853516E0
6.089876728E0,4.546966553E-1,9.647064209E0,-8.228256226E0
6.094912129E0,4.194946289E-1,9.643020630E0,-8.271102905E0
6.099947529E0,4.295349121E-1,9.609725952E0,-8.255462646E0
6.104982929E0,4.613494873E-1,9.615997314E0,-8.208221436E0
6.110018330E0,4.793243408E-1,9.609817505E0,-8.233276367E0
6.115053730E0,4.948577881E-1,9.617767334E0,-8.282653809E0
6.120089131E0,4.657135010E-1,9.624389648E0,-8.266952515E0
6.125124531E0,4.786376953E-1,9.612350464E0,-8.251388550E0
6.130159931E0,5.196075439E-1,9.592971802E0,-8.247634888E0
6.135195332E0,5.021667480E-1,9.612380981E0,-8.208358765E0
6.140230732E0,5.126953125E-1,9.608901978E0,-8.230758667E0
6.145266133E0,5.040130615E-1,9.595840454E0,-8.285324097E0
6.150301533E0,4.481506348E-1,9.597229004E0,-8.296386719E0
6.155336933E0,4.615936279E-1,9.611145020E0,-8.282257080E0
6.160372334E0,5.127716064E-1,9.626190186E0,-8.251678467E0
6.165407734E0,4.920043945E-1,9.578781128E0,-8.249313354E0
6.170443135E0,4.920501709E-1,9.573440552E0,-8.270797729E0
6.175478535E0,4.550323486E-1,9.601364136E0,-8.211502075E0
6.180513935E0,4.570007324E-1,9.605667114E0,-8.232162476E0
6.185549336E0,4.768066406E-1,9.603607178E0,-8.281936646E0
6.190584736E0,4.474182129E-1,9.589675903E0,-8.263610840E0
6.195620136E0,4.265441895E-1,9.603027344E0,-8.308303833E0
6.200655537E0,4.582672119E-1,9.623275757E0,-8.343521118E0
6.205690937E0,5.274963379E-1,9.631256104E0,-8.311859131E0
6.210726338E0,4.720916748E-1,9.616165161E0,-8.377258301E0
6.215761738E0,4.172058105E-1,9.612365723E0,-8.299041748E0
6.220797138E0,4.175872803E-1,9.649917603E0,-8.263397217E0
6.225832539E0,4.068603516E-1,9.604141235E0,-8.251571655E0
6.230867939E0,4.232177734E-1,9.598815918E0,-8.285110474E0
6.235903340E0,4.413299561E-1,9.624252319E0,-8.283706665E0
6.240938740E0,4.428253174E-1,9.619262695E0,-8.225463867E0
6.245974140E0,3.952026367E-1,9.642486572E0,-8.294982910E0
6.251009541E0,4.707946777E-1,9.630310059E0,-8.357498169E0
6.256044941E0,4.082489014E-1,9.606094360E0,-8.330184937E0
6.261080342E0,3.720550537E-1,9.579986572E0,-8.294281006E0
6.266115742E0,3.866424561E-1,9.591766357E0,-8.210174561E0
6.271151142E0,3.508453369E-1,9.615264893E0,-8.307006836E0
6.276186543E0,4.303283691E-1,9.591339111E0,-8.253463745E0
6.281221943E0,4.020690918E-1,9.632019043E0,-8.340942383E0
6.286257343E0,3.691711426E-1,9.620361328E0,-8.346588135E0
6.291292744E0,4.274291992E-1,9.655715942E0,-8.319625854E0
6.296328144E0,3.706207275E-1,9.645645142E0,-8.261840820E0
6.301363545E0,4.133605957E-1,9.613189697E0,-8.291549683E0
6.306398945E0,3.865051270E-1,9.618179321E0,-8.355041504E0
6.311434345E0,3.387451172E-1,9.634750366E0,-8.378692627E0
6.316469746E0,3.610687256E-1,9.592834473E0,-8.346298218E0
6.321505146E0,3.399505615E-1,9.628021240E0,-8.319717407E0
6.326540547E0,3.912658691E-1,9.613769531E0,-8.382614136E0
6.331575947E0,3.356170654E-1,9.616043091E0,-8.433639526E0
6.336611347E0,3.476257324E-1,9.613327026E0,-8.348892212E0
6.341646748E0,3.092498779E-1,9.605133057E0,-8.360977173E0
6.346682148E0,3.492126465E-1,9.617965698E0,-8.338348389E0
6.351717549E0,2.859497070E-1,9.579254150E0,-8.400924683E0
6.356752949E0,3.458709717E-1,9.593948364E0,-8.424072266E0
6.361788349E0,3.536987305E-1,9.611083984E0,-8.381866455E0
6.366823750E0,3.267364502E-1,9.627395630E0,-8.414703369E0
6.371859150E0,2.998352051E-1,9.624603271E0,-8.367294312E0
6.376894551E0,2.839202881E-1,9.626571655E0,-8.379043579E0
6.381929951E0,2.621917725E-1,9.596267700E0,-8.373260498E0
6.386965351E0,2.507476807E-1,9.613479614E0,-8.416671753E0
6.392000752E0,2.425994873E-1,9.609680176E0,-8.421676636E0
6.397036152E0,2.785034180E-1,9.640396118E0,-8.405899048E0
6.402071552E0,2.841339111E-1,9.626434326E0,-8.385574341E0
6.407106953E0,2.224731445E-1,9.609909058E0,-8.390975952E0
6.412142353E0,2.180786133E-1,9.628021240E0,-8.429122925E0
6.417177754E0,2.747497559E-1,9.619171143E0,-8.392684937E0
6.422213154E0,2.516174316E-1,9.599395752E0,-8.396057129E0
6.427248554E0,2.349243164E-1,9.611358643E0,-8.367889404E0
6.432283955E0,2.275543213E-1,9.620849609E0,-8.371032715E0
6.437319355E0,2.094268799E-1,9.630828857E0,-8.344772339E0
6.442354756E0,2.256317139E-1,9.614624023E0,-8.386657715E0
6.447390156E0,2.386322021E-1,9.610412598E0,-8.422317505E0
6.452425556E0,2.692260742E-1,9.585327148E0,-8.385131836E0
6.457460957E0,2.593536377E-1,9.612869263E0,-8.364074707E0
6.462496357E0,2.438964844E-1,9.622314453E0,-8.398757935E0
6.467531758E0,1.889648438E-1,9.606414795E0,-8.419006348E0
6.472567158E0,1.844482422E-1,9.592163086E0,-8.391510010E0
6.477602558E0,2.148590088E-1,9.598724365E0,-8.355560303E0
6.482637959E0,2.204589844E-1,9.616012573E0,-8.308303833E0
6.487673359E0,1.777496338E-1,9.633529663E0,-8.289901733E0
6.492708760E0,1.695556641E-1,9.625503540E0,-8.299224854E0
6.497744160E0,1.698303223E-1,9.614089966E0,-8.333816528E0
6.502779560E0,1.889343262E-1,9.615020752E0,-8.330352783E0
6.507814961E0,1.966857910E-1,9.629165649E0,-8.318481445E0
6.512850361E0,1.928863525E-1,9.607925415E0,-8.321090698E0
6.517885761E0,1.656799316E-1,9.583465576E0,-8.323181152E0
6.522921162E0,1.883850098E-1,9.591308594E0,-8.319427490E0
6.527956562E0,2.141418457E-1,9.599105835E0,-8.275222778E0
6.532991963E0,2.144470215E-1,9.606842041E0,-8.275650024E0
6.538027363E0,2.290344238E-1,9.626617432E0,-8.321182251E0
6.543062763E0,2.284393311E-1,9.627853394E0,-8.315933228E0
6.548098164E0,2.539825439E-1,9.614318848E0,-8.271774292E0
6.553133564E0,2.250671387E-1,9.608978271E0,-8.298904419E0
6.558168965E0,2.073211670E-1,9.613662720E0,-8.302597046E0
6.563204365E0,2.336883545E-1,9.616119385E0,-8.262496948E0
6.568239765E0,2.204132080E-1,9.611251831E0,-8.241821289E0
6.573275166E0,2.239685059E-1,9.592361450E0,-8.290252686E0
6.578310566E0,2.355346680E-1,9.602111816E0,-8.271911621E0
6.583345967E0,2.582702637E-1,9.607254028E0,-8.250274658E0
6.588381367E0,2.678985596E-1,9.629364014E0,-8.223770142E0
6.593416767E0,2.703247070E-1,9.619613647E0,-8.197052002E0
6.598452168E0,2.362365723E-1,9.633804321E0,-8.207595825E0
6.603487568E0,2.553558350E-1,9.628784180E0,-8.244125366E0
6.608522968E0,2.430419922E-1,9.616210938E0,-8.273788452E0
6.613558369E0,2.549133301E-1,9.607955933E0,-8.286941528E0
6.618593769E0,2.687988281E-1,9.618331909E0,-8.288772583E0
6.623629170E0,2.649536133E-1,9.630798340E0,-8.308624268E0
6.628664570E0,2.617492676E-1,9.584106445E0,-8.298370361E0
6.633699970E0,2.984466553E-1,9.604476929E0,-8.267074585E0
6.638735371E0,2.937927246E-1,9.604797363E0,-8.335662842E0
6.643770771E0,2.584533691E-1,9.621154785E0,-8.307785034E0
6.648806172E0,3.036193848E-1,9.679061890E0,-8.180679321E0
6.653841572E0,2.805328369E-1,9.608520508E0,-8.243988037E0
6.658876972E0,2.558593750E-1,9.597396851E0,-8.239578247E0
6.663912373E0,2.699890137E-1,9.603820801E0,-8.211791992E0
6.668947773E0,3.305053711E-1,9.599624634E0,-8.253768921E0
6.673983174E0,2.956542969E-1,9.597122192E0,-8.278656006E0
6.679018574E0,2.876586914E-1,9.594711304E0,-8.276885986E0
6.684053974E0,3.206939697E-1,9.599456787E0,-8.243133545E0
6.689089375E0,2.878417969E-1,9.599273682E0,-8.178375244E0
6.694124775E0,3.024291992E-1,9.590209961E0,-8.258468628E0
6.699160176E0,3.208312988E-1,9.598709106E0,-8.279174805E0
6.704195576E0,3.212890625E-1,9.579437256E0,-8.276565552E0
6.709230976E0,3.632202148E-1,9.634384155E0,-8.272628784E0
6.714266377E0,3.551635742E-1,9.595092773E0,-8.279251099E0
6.719301777E0,3.414306641E-1,9.598709106E0,-8.271057129E0
6.724337177E0,3.520050049E-1,9.594802856E0,-8.202636719E0
6.729372578E0,3.367156982E-1,9.610351562E0,-8.227783203E0
6.734407978E0,3.517913818E-1,9.590240479E0,-8.296936035E0
6.739443379E0,3.837127686E-1,9.602188110E0,-8.283615112E0
6.744478779E0,3.957061768E-1,9.578430176E0,-8.252578735E0
6.749514179E0,3.722534180E-1,9.583908081E0,-8.232650757E0
6.754549580E0,3.989868164E-1,9.604156494E0,-8.214859009E0
6.759584980E0,4.037170410E-1,9.616607666E0,-8.253067017E0
6.764620381E0,4.188385010E-1,9.599334717E0,-8.264953613E0
6.769655781E0,3.950042725E-1,9.627838135E0,-8.279067993E0
6.774691181E0,4.185028076E-1,9.637390137E0,-8.213104248E0
6.779726582E0,4.095001221E-1,9.609756470E0,-8.258087158E0
6.784761982E0,4.012908936E-1,9.575286865E0,-8.272109985E0
6.789797383E0,4.366607666E-1,9.584640503E0,-8.308425903E0
6.794832783E0,4.247436523E-1,9.599151611E0,-8.246078491E0
6.799868183E0,4.264678955E-1,9.608200073E0,-8.247222900E0
6.804903584E0,4.272918701E-1,9.607391357E0,-8.222427368E0
6.809938984E0,4.470214844E-1,9.617446899E0,-8.246124268E0
6.814974385E0,4.667358398E-1,9.624893188E0,-8.220489502E0
6.820009785E0,4.438018799E-1,9.605010986E0,-8.246200562E0
6.825045185E0,4.207611084E-1,9.624786377E0,-8.305038452E0
6.830080586E0,4.371185303E-1,9.641510010E0,-8.278854370E0
6.835115986E0,4.741821289E-1,9.610534668E0,-8.245727539E0
6.840151386E0,4.959716797E-1,9.611114502E0,-8.244812012E0
6.845186787E0,4.615783691E-1,9.606246948E0,-8.236007690E0
6.850222187E0,4.800415039E-1,9.608825684E0,-8.207351685E0
6.855257588E0,5.053253174E-1,9.600280762E0,-8.200164795E0
6.860292988E0,5.030364990E-1,9.621902466E0,-8.209884644E0
6.865328388E0,4.957885742E-1,9.615768433E0,-8.219421387E0
6.870363789E0,5.034637451E-1,9.619415283E0,-8.199340820E0
6.875399189E0,5.175170898E-1,9.632293701E0,-8.202285767E0
6.880434590E0,5.091552734E-1,9.619140625E0,-8.227325439E0
6.885469990E0,4.940795898E-1,9.605712891E0,-8.239532471E0
6.890505390E0,5.036315918E-1,9.610427856E0,-8.211685181E0
6.895540791E0,5.333404541E-1,9.612884521E0,-8.203369141E0
6.900576191E0,5.455932617E-1,9.629135132E0,-8.210220337E0
6.905611592E0,5.417022705E-1,9.626068115E0,-8.193984985E0
6.910646992E0,5.654602051E-1,9.611602783E0,-8.191543579E0
6.915682392E0,5.266876221E-1,9.607437134E0,-8.206665039E0
6.920717793E0,5.033416748E-1,9.592437744E0,-8.236175537E0
6.925753193E0,5.162048340E-1,9.594802856E0,-8.227416992E0
6.930788593E0,5.437469482E-1,9.605987549E0,-8.228805542E0
6.935823994E0,5.375213623E-1,9.618957520E0,-8.222366333E0
6.940859394E0,5.354614258E-1,9.606307983E0,-8.205490112E0
6.945894795E0,5.167083740E-1,9.590774536E0,-8.198959351E0
6.950930195E0,5.425262451E-1,9.587554932E0,-8.210678101E0
6.955965595E0,5.128631592E-1,9.628860474E0,-8.249099731E0
6.961000996E0,5.359344482E-1,9.620391846E0,-8.278457642E0
6.966036396E0,5.283813477E-1,9.634262085E0,-8.269073486E0
6.971071797E0,5.460052490E-1,9.632324219E0,-8.185226440E0
6.976107197E0,5.016784668E-1,9.622680664E0,-8.170761108E0
6.981142597E0,5.430603027E-1,9.609054565E0,-8.268600464E0
6.986177998E0,5.181579590E-1,9.640594482E0,-8.250747681E0
6.991213398E0,4.991455078E-1,9.610519409E0,-8.255722046E0
6.996248799E0,4.785156250E-1,9.579498291E0,-8.253707886E0
7.001284199E0,5.045013428E-1,9.627212524E0,-8.197357178E0
7.006319599E0,4.600219727E-1,9.622390747E0,-8.263244629E0
7.011355000E0,4.931030273E-1,9.597091675E0,-8.248321533E0
7.016390400E0,4.839019775E-1,9.561828613E0,-8.215255737E0
7.021425801E0,4.626617432E-1,9.608123779E0,-8.221527100E0
7.026461201E0,5.088806152E-1,9.604553223E0,-8.213058472E0
7.031496601E0,4.471282959E-1,9.606506348E0,-8.235519409E0
7.036532002E0,4.470062256E-1,9.583374023E0,-8.173706055E0
7.041567402E0,4.872741699E-1,9.611175537E0,-8.226531982E0
7.046602802E0,4.421539307E-1,9.571197510E0,-8.291015625E0
7.051638203E0,4.184570312E-1,9.620132446E0,-8.269058228E0
7.056673603E0,4.171447754E-1,9.581726074E0,-8.233871460E0
7.061709004E0,4.453582764E-1,9.622085571E0,-8.230895996E0
7.066744404E0,3.726959229E-1,9.599456787E0,-8.262725830E0
7.071779804E0,4.667205811E-1,9.598922729E0,-8.261077881E0
7.076815205E0,3.904266357E-1,9.593627930E0,-8.220046997E0
7.081850605E0,4.388275146E-1,9.608322144E0,-8.294525146E0
7.086886006E0,4.062042236E-1,9.623535156E0,-8.293609619E0
7.091921406E0,3.910369873E-1,9.623779297E0,-8.225814819E0
7.096956806E0,4.237365723E-1,9.612396240E0,-8.247177124E0
7.101992207E0,3.722686768E-1,9.614318848E0,-8.235992432E0
7.107027607E0,3.169097900E-1,9.596389771E0,-8.288909912E0
7.112063008E0,3.916931152E-1,9.606857300E0,-8.308609009E0
7.117098408E0,4.253082275E-1,9.575759888E0,-8.284881592E0
7.122133808E0,3.265228271E-1,9.615768433E0,-8.263778687E0
7.127169209E0,3.481750488E-1,9.618896484E0,-8.282302856E0
7.132204609E0,3.512573242E-1,9.604797363E0,-8.295989990E0
7.137240010E0,3.476257324E-1,9.610885620E0,-8.279174805E0
7.142275410E0,3.352508545E-1,9.615539551E0,-8.264389038E0
7.147310810E0,3.121032715E-1,9.596038818E0,-8.252273560E0
7.152346211E0,3.201904297E-1,9.606506348E0,-8.288589478E0
7.157381611E0,3.644866943E-1,9.616546631E0,-8.318359375E0
7.162417011E0,3.653564453E-1,9.606475830E0,-8.310195923E0
7.167452412E0,3.613433838E-1,9.605667114E0,-8.343917847E0
7.172487812E0,3.507385254E-1,9.596893311E0,-8.370803833E0
7.177523213E0,3.373107910E-1,9.617614746E0,-8.325454712E0
7.182558613E0,3.346099854E-1,9.606155396E0,-8.373886108E0
7.187594013E0,3.253326416E-1,9.587112427E0,-8.355209351E0
7.192629414E0,3.134613037E-1,9.575942993E0,-8.340682983E0
7.197664814E0,3.343658447E-1,9.587280273E0,-8.373367310E0
7.202700215E0,3.525695801E-1,9.621292114E0,-8.384704590E0
7.207735615E0,3.534088135E-1,9.610961914E0,-8.383407593E0
7.212771015E0,3.626861572E-1,9.583312988E0,-8.354797363E0
7.217806416E0,3.712005615E-1,9.592727661E0,-8.369094849E0
7.222841816E0,3.742675781E-1,9.600830078E0,-8.404373169E0
7.227877217E0,3.552398682E-1,9.600708008E0,-8.400665283E0
7.232912617E0,3.429412842E-1,9.590362549E0,-8.444900513E0
7.237948017E0,3.183288574E-1,9.601379395E0,-8.453628540E0
7.242983418E0,3.218078613E-1,9.612411499E0,-8.382415771E0
7.248018818E0,3.395233154E-1,9.616836548E0,-8.363571167E0
7.253054218E0,3.445129395E-1,9.619415283E0,-8.425888062E0
7.258089619E0,3.706207275E-1,9.605743408E0,-8.434921265E0
7.263125019E0,3.389129639E-1,9.613281250E0,-8.450225830E0
7.268160420E0,3.025665283E-1,9.610580444E0,-8.447067261E0
7.273195820E0,2.985992432E-1,9.584655762E0,-8.446624756E0
7.278231220E0,3.132781982E-1,9.602401733E0,-8.443130493E0
7.283266621E0,3.476257324E-1,9.615341187E0,-8.434768677E0
7.288302021E0,3.565521240E-1,9.618545532E0,-8.495010376E0
7.293337422E0,3.215179443E-1,9.632324219E0,-8.508071899E0
7.298372822E0,3.465728760E-1,9.604232788E0,-8.444015503E0
7.303408222E0,3.737945557E-1,9.593276978E0,-8.389556885E0
7.308443623E0,3.504180908E-1,9.601593018E0,-8.388916016E0
7.313479023E0,3.169708252E-1,9.598907471E0,-8.462417603E0
7.318514424E0,3.431243896E-1,9.591674805E0,-8.516876221E0
7.323549824E0,2.917785645E-1,9.606460571E0,-8.471694946E0
7.328585224E0,3.274993896E-1,9.575836182E0,-8.446044922E0
7.333620625E0,3.556060791E-1,9.600296021E0,-8.471969604E0
7.338656025E0,3.046722412E-1,9.599273682E0,-8.469497681E0
7.343691426E0,3.199310303E-1,9.616790771E0,-8.453491211E0
7.348726826E0,3.456726074E-1,9.582855225E0,-8.466629028E0
7.353762226E0,3.108978271E-1,9.585800171E0,-8.485916138E0
7.358797627E0,3.850402832E-1,9.624832153E0,-8.468002319E0
7.363833027E0,3.423919678E-1,9.598846436E0,-8.458602905E0
7.368868427E0,3.565063477E-1,9.607482910E0,-8.468429565E0
7.373903828E0,3.676910400E-1,9.606796265E0,-8.484893799E0
7.378939228E0,3.045654297E-1,9.599975586E0,-8.424591064E0
7.383974629E0,3.463897705E-1,9.628494263E0,-8.424148560E0
7.389010029E0,3.336181641E-1,9.619079590E0,-8.438034058E0
7.394045429E0,3.281860352E-1,9.602340698E0,-8.482559204E0
7.399080830E0,3.210296631E-1,9.622863770E0,-8.451248169E0
7.404116230E0,2.948760986E-1,9.587768555E0,-8.429336548E0
7.409151631E0,2.782287598E-1,9.604217529E0,-8.466583252E0
7.414187031E0,3.066253662E-1,9.606826782E0,-8.354492188E0
7.419222431E0,3.064422607E-1,9.615066528E0,-8.412719727E0
7.424257832E0,3.019714355E-1,9.588363647E0,-8.418594360E0
7.429293232E0,3.058471680E-1,9.604217529E0,-8.439636230E0
7.434328633E0,3.244323730E-1,9.604583740E0,-8.391479492E0
7.439364033E0,2.854614258E-1,9.609191895E0,-8.449310303E0
7.444399433E0,3.111114502E-1,9.603988647E0,-8.433975220E0
7.449434834E0,3.063659668E-1,9.551712036E0,-8.416961670E0
7.454470234E0,2.937164307E-1,9.601501465E0,-8.432556152E0
7.459505635E0,3.309783936E-1,9.597625732E0,-8.433258057E0
7.464541035E0,3.098602295E-1,9.589523315E0,-8.399078369E0
7.469576435E0,2.644195557E-1,9.606643677E0,-8.389389038E0
7.474611836E0,3.050384521E-1,9.631317139E0,-8.430923462E0
7.479647236E0,2.867736816E-1,9.600021362E0,-8.399063110E0
7.484682636E0,3.193206787E-1,9.618240356E0,-8.369140625E0
7.489718037E0,3.148651123E-1,9.609527588E0,-8.367889404E0
7.494753437E0,3.021697998E-1,9.614273071E0,-8.334228516E0
7.499788838E0,2.759399414E-1,9.625717163E0,-8.399047852E0
7.504824238E0,3.453674316E-1,9.626861572E0,-8.406387329E0
7.509859638E0,3.422851562E-1,9.611358643E0,-8.377807617E0
7.514895039E0,3.131408691E-1,9.612792969E0,-8.369750977E0
7.519930439E0,2.657012939E-1,9.602447510E0,-8.374206543E0
7.524965840E0,2.660522461E-1,9.591400146E0,-8.345901489E0
7.530001240E0,3.199157715E-1,9.618194580E0,-8.335403442E0
7.535036640E0,3.385314941E-1,9.598602295E0,-8.354293823E0
7.540072041E0,2.947235107E-1,9.598846436E0,-8.381958008E0
7.545107441E0,2.726898193E-1,9.606430054E0,-8.332305908E0
7.550142842E0,2.948303223E-1,9.617553711E0,-8.361251831E0
7.555178242E0,3.210601807E-1,9.596435547E0,-8.403793335E0
7.560213642E0,2.892913818E-1,9.588623047E0,-8.375473022E0
7.565249043E0,3.000335693E-1,9.626968384E0,-8.343139648E0
7.570284443E0,2.881927490E-1,9.625640869E0,-8.362579346E0
7.575319843E0,2.973022461E-1,9.593017578E0,-8.386077881E0
7.580355244E0,3.334503174E-1,9.587753296E0,-8.382812500E0
7.585390644E0,3.518524170E-1,9.607864380E0,-8.424438477E0
7.590426045E0,3.469696045E-1,9.583709717E0,-8.410964966E0
7.595461445E0,3.611602783E-1,9.589584351E0,-8.397140503E0
7.600496845E0,3.921661377E-1,9.604217529E0,-8.372558594E0
7.605532246E0,3.610992432E-1,9.596374512E0,-8.354568481E0
7.610567646E0,3.337402344E-1,9.592620850E0,-8.347030640E0
7.615603047E0,3.690795898E-1,9.605789185E0,-8.388702393E0
7.620638447E0,3.630218506E-1,9.617980957E0,-8.383361816E0
7.625673847E0,3.938598633E-1,9.606414795E0,-8.349639893E0
7.630709248E0,4.182128906E-1,9.640106201E0,-8.328079224E0
7.635744648E0,4.365081787E-1,9.637237549E0,-8.372009277E0
7.640780049E0,3.952636719E-1,9.630157471E0,-8.375152588E0
7.645815449E0,3.708801270E-1,9.614532471E0,-8.404602051E0
7.650850849E0,4.024505615E-1,9.620422363E0,-8.396026611E0
7.655886250E0,4.078674316E-1,9.614807129E0,-8.406356812E0
7.660921650E0,3.958129883E-1,9.595535278E0,-8.366928101E0
7.665957051E0,4.352874756E-1,9.577896118E0,-8.364807129E0
7.670992451E0,4.237823486E-1,9.578521729E0,-8.365066528E0
7.676027851E0,4.333343506E-1,9.576843262E0,-8.380371094E0
7.681063252E0,4.344482422E-1,9.623016357E0,-8.457412720E0
7.686098652E0,4.253540039E-1,9.609710693E0,-8.353073120E0
7.691134052E0,4.326782227E-1,9.579223633E0,-8.345581055E0
7.696169453E0,4.409332275E-1,9.596359253E0,-8.341491699E0
7.701204853E0,4.501190186E-1,9.607696533E0,-8.448333740E0
7.706240254E0,4.835968018E-1,9.628829956E0,-8.398574829E0
7.711275654E0,4.858703613E-1,9.592468262E0,-8.371887207E0
7.716311054E0,5.014953613E-1,9.615829468E0,-8.404449463E0
7.721346455E0,4.415893555E-1,9.618789673E0,-8.391387939E0
7.726381855E0,4.391326904E-1,9.601547241E0,-8.414154053E0
7.731417256E0,4.978790283E-1,9.580123901E0,-8.346466064E0
7.736452656E0,5.477142334E-1,9.599792480E0,-8.399673462E0
7.741488056E0,5.362701416E-1,9.615142822E0,-8.396530151E0
7.746523457E0,5.463714600E-1,9.577880859E0,-8.452102661E0
7.751558857E0,5.493164062E-1,9.616653442E0,-8.432617188E0
7.756594258E0,5.308380127E-1,9.597595215E0,-8.399078369E0
7.761629658E0,5.303802490E-1,9.629989624E0,-8.410018921E0
7.766665058E0,4.732513428E-1,9.613739014E0,-8.343521118E0
7.771700459E0,5.367889404E-1,9.625610352E0,-8.472000122E0
7.776735859E0,4.790649414E-1,9.622436523E0,-8.466171265E0
7.781771260E0,5.208587646E-1,9.589309692E0,-8.421661377E0
7.786806660E0,5.222930908E-1,9.577621460E0,-8.411621094E0
7.791842060E0,5.463867188E-1,9.611358643E0,-8.394760132E0
7.796877461E0,5.401916504E-1,9.611541748E0,-8.382843018E0
7.801912861E0,5.628967285E-1,9.613494873E0,-8.423278809E0
7.806948261E0,4.938507080E-1,9.613189697E0,-8.420959473E0
7.811983662E0,5.244293213E-1,9.630065918E0,-8.486068726E0
7.817019062E0,5.150756836E-1,9.641311646E0,-8.466278076E0
7.822054463E0,5.056610107E-1,9.619781494E0,-8.451385498E0
7.827089863E0,4.867401123E-1,9.609390259E0,-8.417221069E0
7.832125263E0,4.865722656E-1,9.591781616E0,-8.480667114E0
7.837160664E0,5.092010498E-1,9.605422974E0,-8.451232910E0
7.842196064E0,5.259094238E-1,9.581893921E0,-8.458129883E0
7.847231465E0,5.047454834E-1,9.591232300E0,-8.383834839E0
7.852266865E0,4.954833984E-1,9.606994629E0,-8.456130981E0
7.857302265E0,5.089263916E-1,9.609527588E0,-8.434646606E0
7.862337666E0,4.839935303E-1,9.603118896E0,-8.472915649E0
7.867373066E0,4.607696533E-1,9.625457764E0,-8.448822021E0
7.872408467E0,4.786987305E-1,9.594451904E0,-8.441253662E0
7.877443867E0,4.796600342E-1,9.610626221E0,-8.457611084E0
7.882479267E0,4.863586426E-1,9.587707520E0,-8.460098267E0
7.887514668E0,4.843597412E-1,9.569290161E0,-8.480789185E0
7.892550068E0,4.621582031E-1,9.618255615E0,-8.442779541E0
7.897585468E0,4.808807373E-1,9.608108521E0,-8.479476929E0
7.902620869E0,4.610595703E-1,9.607482910E0,-8.519882202E0
7.907656269E0,4.426269531E-1,9.625595093E0,-8.493331909E0
7.912691670E0,4.217071533E-1,9.639511108E0,-8.480743408E0
7.917727070E0,4.389038086E-1,9.627822876E0,-8.474456787E0
7.922762470E0,4.342498779E-1,9.620056152E0,-8.478958130E0
7.927797871E0,4.390258789E-1,9.608795166E0,-8.451766968E0
7.932833271E0,4.396820068E-1,9.598068237E0,-8.468200684E0
7.937868672E0,4.645843506E-1,9.594360352E0,-8.466430664E0
7.942904072E0,4.801483154E-1,9.632537842E0,-8.463638306E0
7.947939472E0,4.683532715E-1,9.613555908E0,-8.478073120E0
7.952974873E0,4.446105957E-1,9.617065430E0,-8.515701294E0
7.958010273E0,4.222106934E-1,9.619430542E0,-8.507171631E0
7.963045674E0,4.067993164E-1,9.611495972E0,-8.503967285E0
7.968081074E0,4.249267578E-1,9.625640869E0,-8.484283447E0
7.973116474E0,4.212341309E-1,9.628356934E0,-8.454711914E0
7.978151875E0,4.103698730E-1,9.624816895E0,-8.482894897E0
7.983187275E0,4.084930420E-1,9.619445801E0,-8.546417236E0
7.988222676E0,3.861541748E-1,9.600967407E0,-8.500854492E0
7.993258076E0,3.882598877E-1,9.616897583E0,-8.457504272E0
7.998293476E0,4.062652588E-1,9.614379883E0,-8.481613159E0
8.003328877E0,4.191741943E-1,9.604217529E0,-8.537231445E0
8.008364277E0,4.598693848E-1,9.599441528E0,-8.502822876E0
8.013399677E0,4.372253418E-1,9.610122681E0,-8.464645386E0
8.018435078E0,3.968505859E-1,9.604461670E0,-8.463485718E0
8.023470478E0,3.384246826E-1,9.601150513E0,-8.478469849E0
8.028505879E0,3.861389160E-1,9.601837158E0,-8.534240723E0
8.033541279E0,4.007568359E-1,9.571792603E0,-8.514114380E0
8.038576679E0,3.844909668E-1,9.629623413E0,-8.532943726E0
8.043612080E0,3.822326660E-1,9.633560181E0,-8.550765991E0
8.048647480E0,3.920593262E-1,9.629867554E0,-8.567825317E0
8.053682881E0,4.098510742E-1,9.628494263E0,-8.537918091E0
8.058718281E0,3.963928223E-1,9.612594604E0,-8.542678833E0
8.063753681E0,3.903503418E-1,9.605056763E0,-8.526275635E0
8.068789082E0,3.939208984E-1,9.620193481E0,-8.560012817E0
8.073824482E0,4.089050293E-1,9.623260498E0,-8.544937134E0
8.078859883E0,3.887023926E-1,9.615020752E0,-8.565795898E0
8.083895283E0,3.914794922E-1,9.601119995E0,-8.582260132E0
8.088930683E0,3.688507080E-1,9.610107422E0,-8.590332031E0
8.093966084E0,4.007110596E-1,9.581085205E0,-8.575942993E0
8.099001484E0,3.976440430E-1,9.610885620E0,-8.524032593E0
8.104036885E0,4.395141602E-1,9.615966797E0,-8.577728271E0
8.109072285E0,3.857116699E-1,9.607055664E0,-8.538543701E0
8.114107685E0,3.736114502E-1,9.629516602E0,-8.570709229E0
8.119143086E0,3.082580566E-1,9.611816406E0,-8.674194336E0
8.124178486E0,3.066253662E-1,9.590057373E0,-8.662567139E0
8.129213886E0,3.263397217E-1,9.611267090E0,-8.510314941E0
8.134249287E0,4.348907471E-1,9.596847534E0,-8.537689209E0
8.139284687E0,4.184570312E-1,9.586929321E0,-8.483734131E0
8.144320088E0,3.392791748E-1,9.641357422E0,-8.484405518E0
8.149355488E0,2.854003906E-1,9.621215820E0,-8.624084473E0
8.154390888E0,3.608398438E-1,9.590103149E0,-8.509613037E0
8.159426289E0,3.559722900E-1,9.592971802E0,-8.499053955E0
8.164461689E0,3.717803955E-1,9.601440430E0,-8.468597412E0
8.169497090E0,3.620605469E-1,9.619323730E0,-8.540527344E0
8.174532490E0,3.867797852E-1,9.623703003E0,-8.537933350E0
8.179567890E0,3.991699219E-1,9.615554810E0,-8.549621582E0
8.184603291E0,4.079437256E-1,9.635742188E0,-8.558120728E0
8.189638691E0,3.961029053E-1,9.609207153E0,-8.543670654E0
8.194674092E0,4.310607910E-1,9.585281372E0,-8.469894409E0
8.199709492E0,4.296264648E-1,9.573715210E0,-8.483871460E0
8.204744892E0,3.307495117E-1,9.582061768E0,-8.465164185E0
8.209780293E0,3.358917236E-1,9.636077881E0,-8.496231079E0
8.214815693E0,3.819580078E-1,9.625503540E0,-8.475952148E0
8.219851093E0,3.879394531E-1,9.639526367E0,-8.463287354E0
8.224886494E0,3.678588867E-1,9.644088745E0,-8.467559814E0
8.229921894E0,3.620147705E-1,9.609695435E0,-8.453506470E0
8.234957295E0,3.625793457E-1,9.616806030E0,-8.492996216E0
8.239992695E0,3.793029785E-1,9.615310669E0,-8.493072510E0
8.245028095E0,3.550567627E-1,9.633636475E0,-8.524322510E0
8.250063496E0,3.439636230E-1,9.625259399E0,-8.513580322E0
8.255098896E0,3.326873779E-1,9.634872437E0,-8.456314087E0
8.260134297E0,3.260192871E-1,9.609497070E0,-8.474517822E0
8.265169697E0,3.635864258E-1,9.608367920E0,-8.417465210E0
8.270205097E0,3.775329590E-1,9.589462280E0,-8.395919800E0
8.275240498E0,3.855743408E-1,9.604858398E0,-8.383316040E0
8.280275898E0,3.735961914E-1,9.612335205E0,-8.392822266E0
8.285311299E0,3.455963135E-1,9.606201172E0,-8.406616211E0
8.290346699E0,3.474121094E-1,9.613204956E0,-8.385711670E0
8.295382099E0,3.429107666E-1,9.612411499E0,-8.368850708E0
8.300417500E0,3.124542236E-1,9.634078979E0,-8.400863647E0
8.305452900E0,3.208770752E-1,9.624481201E0,-8.395874023E0
8.310488301E0,3.256683350E-1,9.613616943E0,-8.410461426E0
8.315523701E0,3.244018555E-1,9.612731934E0,-8.428344727E0
8.320559101E0,3.014373779E-1,9.583984375E0,-8.427536011E0
8.325594502E0,3.274993896E-1,9.589462280E0,-8.426010132E0
8.330629902E0,3.461761475E-1,9.593124390E0,-8.446777344E0
8.335665302E0,3.175354004E-1,9.608947754E0,-8.440734863E0
8.340700703E0,2.896270752E-1,9.581787109E0,-8.431076050E0
8.345736103E0,2.794952393E-1,9.578887939E0,-8.400711060E0
8.350771504E0,2.834014893E-1,9.605392456E0,-8.367340088E0
8.355806904E0,2.897491455E-1,9.608978271E0,-8.366256714E0
8.360842304E0,3.062744141E-1,9.624450684E0,-8.372787476E0
8.365877705E0,3.074188232E-1,9.604217529E0,-8.361770630E0
8.370913105E0,2.864074707E-1,9.612625122E0,-8.392700195E0
8.375948506E0,2.929077148E-1,9.624908447E0,-8.401916504E0
8.380983906E0,3.079223633E-1,9.605361938E0,-8.406707764E0
8.386019306E0,2.958679199E-1,9.602233887E0,-8.399826050E0
8.391054707E0,2.601623535E-1,9.597198486E0,-8.388870239E0
8.396090107E0,2.779998779E-1,9.603591919E0,-8.386367798E0
8.401125508E0,2.948150635E-1,9.617462158E0,-8.330230713E0
8.406160908E0,2.637786865E-1,9.639389038E0,-8.421798706E0
8.411196308E0,2.693176270E-1,9.610763550E0,-8.383316040E0
8.416231709E0,2.847747803E-1,9.601837158E0,-8.420410156E0
8.421267109E0,2.602081299E-1,9.597915649E0,-8.404647827E0
8.426302510E0,2.621917725E-1,9.610977173E0,-8.338684082E0
8.431337910E0,3.060913086E-1,9.579467773E0,-8.379241943E0
8.436373310E0,2.851409912E-1,9.589614868E0,-8.429626465E0
8.441408711E0,2.637481689E-1,9.594390869E0,-8.288208008E0
8.446444111E0,2.825622559E-1,9.628570557E0,-8.366867065E0
8.451479511E0,2.551422119E-1,9.604873657E0,-8.353454590E0
8.456514912E0,3.258514404E-1,9.601837158E0,-8.315841675E0
8.461550312E0,2.950897217E-1,9.608489990E0,-8.359161377E0
8.466585713E0,2.878417969E-1,9.602218628E0,-8.326568604E0
8.471621113E0,2.739105225E-1,9.581329346E0,-8.379150391E0
8.476656513E0,2.593688965E-1,9.585052490E0,-8.390884399E0
8.481691914E0,2.801666260E-1,9.592224121E0,-8.449905396E0
8.486727314E0,3.066253662E-1,9.620880127E0,-8.372085571E0
8.491762715E0,2.689971924E-1,9.604263306E0,-8.320236206E0
8.496798115E0,3.066253662E-1,9.608383179E0,-8.361465454E0
8.501833515E0,3.052825928E-1,9.589721680E0,-8.328079224E0
8.506868916E0,2.759399414E-1,9.585952759E0,-8.354751587E0
8.511904316E0,2.817077637E-1,9.599761963E0,-8.340484619E0
8.516939717E0,2.985839844E-1,9.604217529E0,-8.301132202E0
8.521975117E0,2.889709473E-1,9.607009888E0,-8.333572388E0
8.527010517E0,3.039703369E-1,9.630920410E0,-8.309387207E0
8.532045918E0,3.153839111E-1,9.615188599E0,-8.318405151E0
8.537081318E0,2.767028809E-1,9.607620239E0,-8.296218872E0
8.542116718E0,2.681579590E-1,9.599456787E0,-8.312942505E0
8.547152119E0,2.735137939E-1,9.595764160E0,-8.318222046E0
8.552187519E0,3.032989502E-1,9.586349487E0,-8.323043823E0
8.557222920E0,2.804107666E-1,9.620895386E0,-8.283889771E0
8.562258320E0,2.873992920E-1,9.617477417E0,-8.313919067E0
8.567293720E0,2.823791504E-1,9.629104614E0,-8.290481567E0
8.572329121E0,2.919769287E-1,9.603698730E0,-8.312576294E0
8.577364521E0,2.859191895E-1,9.640518188E0,-8.327026367E0
8.582399922E0,3.180694580E-1,9.628799438E0,-8.361343384E0
8.587435322E0,3.145446777E-1,9.590286255E0,-8.336730957E0
8.592470722E0,3.127899170E-1,9.594329834E0,-8.322448730E0
8.597506123E0,3.606262207E-1,9.612380981E0,-8.301406860E0
8.602541523E0,3.318939209E-1,9.616592407E0,-8.281372070E0
8.607576924E0,2.668304443E-1,9.623016357E0,-8.246032715E0
8.612612324E0,2.620544434E-1,9.589355469E0,-8.279205322E0
8.617647724E0,2.895812988E-1,9.597076416E0,-8.297546387E0
8.622683125E0,2.807922363E-1,9.593444824E0,-8.262268066E0
8.627718525E0,2.674102783E-1,9.594131470E0,-8.234405518E0
8.632753926E0,2.826843262E-1,9.616928101E0,-8.264511108E0
8.637789326E0,2.948150635E-1,9.615005493E0,-8.280059814E0
8.642824726E0,3.551177979E-1,9.578216553E0,-8.255630493E0
8.647860127E0,3.994598389E-1,9.585433960E0,-8.278930664E0
8.652895527E0,3.827972412E-1,9.628952026E0,-8.318756104E0
8.657930927E0,3.136291504E-1,9.627899170E0,-8.260269165E0
8.662966328E0,2.683563232E-1,9.606506348E0,-8.213546753E0
8.668001728E0,3.153991699E-1,9.620986938E0,-8.255798340E0
8.673037129E0,3.319854736E-1,9.636596680E0,-8.262908936E0
8.678072529E0,3.493347168E-1,9.615615845E0,-8.256240845E0
8.683107929E0,3.437957764E-1,9.618469238E0,-8.251647949E0
8.688143330E0,3.003234863E-1,9.606323242E0,-8.232055664E0
8.693178730E0,2.981872559E-1,9.603744507E0,-8.274917603E0
8.698214131E0,2.832031250E-1,9.627883911E0,-8.298965454E0
8.703249531E0,2.944488525E-1,9.635650635E0,-8.240753174E0
8.708284931E0,3.025360107E-1,9.616882324E0,-8.250610352E0
8.713320332E0,3.076324463E-1,9.613235474E0,-8.227218628E0
8.718355732E0,3.643646240E-1,9.603164673E0,-8.225906372E0
8.723391133E0,3.419952393E-1,9.580535889E0,-8.272598267E0
8.728426533E0,3.321990967E-1,9.605392456E0,-8.255035400E0
8.733461933E0,3.693847656E-1,9.615966797E0,-8.222427368E0
8.738497334E0,3.425903320E-1,9.603683472E0,-8.220001221E0
8.743532734E0,3.410339355E-1,9.619949341E0,-8.205032349E0
8.748568135E0,3.453521729E-1,9.610641479E0,-8.283462524E0
8.753603535E0,3.411712646E-1,9.577697754E0,-8.272537231E0
8.758638935E0,3.634338379E-1,9.649826050E0,-8.236129761E0
8.763674336E0,4.021606445E-1,9.590972900E0,-8.278930664E0
8.768709736E0,3.608856201E-1,9.605377197E0,-8.246795654E0
8.773745136E0,3.719177246E-1,9.600830078E0,-8.243560791E0
8.778780537E0,3.547210693E-1,9.622314453E0,-8.210952759E0
8.783815937E0,3.573455811E-1,9.620132446E0,-8.187301636E0
8.788851338E0,4.029998779E-1,9.610488892E0,-8.230041504E0
8.793886738E0,3.480377197E-1,9.611007690E0,-8.244903564E0
8.798922138E0,3.707427979E-1,9.609283447E0,-8.239700317E0
8.803957539E0,3.693389893E-1,9.606872559E0,-8.270324707E0
8.808992939E0,3.621063232E-1,9.617248535E0,-8.289413452E0
8.814028340E0,3.678894043E-1,9.620666504E0,-8.302017212E0
8.819063740E0,3.902893066E-1,9.614334106E0,-8.333541870E0
8.824099140E0,3.967742920E-1,9.595870972E0,-8.262695312E0
8.829134541E0,4.517364502E-1,9.606079102E0,-8.282867432E0
8.834169941E0,4.103546143E-1,9.611206055E0,-8.286315918E0
8.839205342E0,3.341979980E-1,9.583312988E0,-8.227966309E0
8.844240742E0,4.203338623E-1,9.611175537E0,-8.215042114E0
8.849276142E0,3.336486816E-1,9.604003906E0,-8.232040405E0
8.854311543E0,4.017791748E-1,9.587249756E0,-8.264724731E0
8.859346943E0,3.996276855E-1,9.576797485E0,-8.256225586E0
8.864382343E0,4.056549072E-1,9.606597900E0,-8.270690918E0
8.869417744E0,4.273529053E-1,9.606918335E0,-8.170761108E0
8.874453144E0,3.865051270E-1,9.610015869E0,-8.249725342E0
8.879488545E0,4.016113281E-1,9.595565796E0,-8.241180420E0
8.884523945E0,3.974609375E-1,9.600463867E0,-8.271209717E0
8.889559345E0,3.807067871E-1,9.572296143E0,-8.316879272E0
8.894594746E0,3.843994141E-1,9.599121094E0,-8.267395020E0
8.899630146E0,3.954010010E-1,9.596008301E0,-8.301818848E0
8.904665547E0,4.077301025E-1,9.589538574E0,-8.328002930E0
8.909700947E0,4.422454834E-1,9.590087891E0,-8.350601196E0
8.914736347E0,4.030456543E-1,9.601837158E0,-8.305480957E0
8.919771748E0,3.973999023E-1,9.591903687E0,-8.268356323E0
8.924807148E0,4.593048096E-1,9.559478760E0,-8.315750122E0
8.929842549E0,4.212646484E-1,9.584136963E0,-8.308517456E0
8.934877949E0,4.263153076E-1,9.601867676E0,-8.304794312E0
8.939913349E0,4.143524170E-1,9.603332520E0,-8.312042236E0
8.944948750E0,4.154510498E-1,9.631958008E0,-8.317993164E0
8.949984150E0,4.192199707E-1,9.638183594E0,-8.354019165E0
8.955019551E0,4.147796631E-1,9.623687744E0,-8.394805908E0
8.960054951E0,3.694763184E-1,9.612213135E0,-8.334533691E0
8.965090351E0,3.708343506E-1,9.597137451E0,-8.411819458E0
8.970125752E0,3.907470703E-1,9.590438843E0,-8.391128540E0
8.975161152E0,4.059448242E-1,9.608764648E0,-8.387710571E0
8.980196552E0,4.259490967E-1,9.587234497E0,-8.379821777E0
8.985231953E0,4.046936035E-1,9.598373413E0,-8.330841064E0
8.990267353E0,3.846893311E-1,9.594711304E0,-8.308120728E0
8.995302754E0,3.954315186E-1,9.591232300E0,-8.380035400E0
9.000338154E0,4.066009521E-1,9.615783691E0,-8.352996826E0
9.005373554E0,4.002838135E-1,9.620651245E0,-8.366531372E0
9.010408955E0,4.097137451E-1,9.598297119E0,-8.403381348E0
9.015444355E0,4.135284424E-1,9.582794189E0,-8.381729126E0
9.020479756E0,4.050750732E-1,9.579330444E0,-8.367675781E0
9.025515156E0,3.948211670E-1,9.580383301E0,-8.358963013E0
9.030550556E0,3.890228271E-1,9.590011597E0,-8.339523315E0
9.035585957E0,4.092102051E-1,9.582199097E0,-8.359786987E0
9.040621357E0,4.111633301E-1,9.594009399E0,-8.390548706E0
9.045656758E0,4.142303467E-1,9.621612549E0,-8.381347656E0
9.050692158E0,4.252471924E-1,9.621261597E0,-8.353530884E0
9.055727558E0,4.331665039E-1,9.602233887E0,-8.358963013E0
9.060762959E0,4.025726318E-1,9.580978394E0,-8.393829346E0
9.065798359E0,4.255065918E-1,9.609634399E0,-8.370498657E0
9.070833760E0,4.378204346E-1,9.614898682E0,-8.321456909E0
9.075869160E0,4.113159180E-1,9.596618652E0,-8.329727173E0
9.080904560E0,3.925476074E-1,9.595397949E0,-8.295532227E0
9.085939961E0,4.208679199E-1,9.612930298E0,-8.361755371E0
9.090975361E0,4.440155029E-1,9.614395142E0,-8.425613403E0
9.096010761E0,4.685058594E-1,9.594848633E0,-8.443862915E0
9.101046162E0,4.662475586E-1,9.612731934E0,-8.453292847E0
9.106081562E0,4.269561768E-1,9.618103027E0,-8.388351440E0
9.111116963E0,4.627990723E-1,9.605590820E0,-8.373077393E0
9.116152363E0,4.055633545E-1,9.623214722E0,-8.375061035E0
9.121187763E0,4.054565430E-1,9.616088867E0,-8.431701660E0
9.126223164E0,4.174194336E-1,9.591064453E0,-8.472763062E0
9.131258564E0,4.580535889E-1,9.573867798E0,-8.432098389E0
9.136293965E0,4.608306885E-1,9.614883423E0,-8.429244995E0
9.141329365E0,4.062042236E-1,9.649078369E0,-8.464813232E0
9.146364765E0,4.443359375E-1,9.612487793E0,-8.456161499E0
9.151400166E0,4.481506348E-1,9.569946289E0,-8.376434326E0
9.156435566E0,4.203186035E-1,9.606948853E0,-8.434555054E0
9.161470967E0,4.369964600E-1,9.619995117E0,-8.454223633E0
9.166506367E0,4.102783203E-1,9.614517212E0,-8.432098389E0
9.171541767E0,4.538269043E-1,9.594406128E0,-8.480728149E0
9.176577168E0,4.392547607E-1,9.614196777E0,-8.438171387E0
9.181612568E0,4.331054688E-1,9.602798462E0,-8.493896484E0
9.186647968E0,4.485168457E-1,9.595077515E0,-8.504989624E0
9.191683369E0,4.380493164E-1,9.601516724E0,-8.516769409E0
9.196718769E0,4.607543945E-1,9.587905884E0,-8.542816162E0
9.201754170E0,5.060119629E-1,9.625167847E0,-8.538757324E0
9.206789570E0,5.184783936E-1,9.592315674E0,-8.560134888E0
9.211824970E0,4.430084229E-1,9.625396729E0,-8.600158691E0
9.216860371E0,4.978942871E-1,9.607833862E0,-8.565475464E0
9.221895771E0,4.521942139E-1,9.646652222E0,-8.584640503E0
9.226931172E0,5.087127686E-1,9.635696411E0,-8.595993042E0
9.231966572E0,4.260101318E-1,9.603881836E0,-8.522445679E0
9.237001972E0,4.635162354E-1,9.599853516E0,-8.596923828E0
9.242037373E0,4.613494873E-1,9.599777222E0,-8.632522583E0
9.247072773E0,4.642486572E-1,9.564010620E0,-8.621215820E0
9.252108174E0,4.878387451E-1,9.603591919E0,-8.636978149E0
9.257143574E0,4.882202148E-1,9.600799561E0,-8.651000977E0
9.262178974E0,4.750823975E-1,9.606048584E0,-8.621429443E0
9.267214375E0,4.585723877E-1,9.589141846E0,-8.679550171E0
9.272249775E0,4.640350342E-1,9.588226318E0,-8.655532837E0
9.277285176E0,5.021820068E-1,9.599487305E0,-8.647216797E0
9.282320576E0,5.177764893E-1,9.594894409E0,-8.669845581E0
9.287355976E0,4.933471680E-1,9.607910156E0,-8.725433350E0
9.292391377E0,4.843750000E-1,9.588684082E0,-8.703216553E0
9.297426777E0,5.012359619E-1,9.589920044E0,-8.716567993E0
9.302462177E0,5.175018311E-1,9.585952759E0,-8.709030151E0
9.307497578E0,5.192565918E-1,9.596710205E0,-8.762573242E0
9.312532978E0,5.012512207E-1,9.603225708E0,-8.731643677E0
9.317568379E0,5.178985596E-1,9.605133057E0,-8.720687866E0
9.322603779E0,5.259246826E-1,9.598785400E0,-8.730102539E0
9.327639179E0,5.097503662E-1,9.582000732E0,-8.732299805E0
9.332674580E0,5.048980713E-1,9.569686890E0,-8.761260986E0
9.337709980E0,5.112915039E-1,9.581726074E0,-8.768981934E0
9.342745381E0,5.217590332E-1,9.557830811E0,-8.760665894E0
9.347780781E0,5.381774902E-1,9.546554565E0,-8.769607544E0
9.352816181E0,5.572357178E-1,9.569869995E0,-8.764785767E0
9.357851582E0,5.242309570E-1,9.577255249E0,-8.761672974E0
9.362886982E0,5.451507568E-1,9.608703613E0,-8.782653809E0
9.367922383E0,5.420532227E-1,9.609146118E0,-8.801864624E0
9.372957783E0,5.164184570E-1,9.603454590E0,-8.808212280E0
9.377993183E0,5.347442627E-1,9.601364136E0,-8.825073242E0
9.383028584E0,5.261230469E-1,9.582931519E0,-8.830413818E0
9.388063984E0,5.268096924E-1,9.594696045E0,-8.827926636E0
9.393099385E0,5.299377441E-1,9.594177246E0,-8.789855957E0
9.398134785E0,5.224151611E-1,9.602035522E0,-8.800949097E0
9.403170185E0,5.305938721E-1,9.592056274E0,-8.830398560E0
9.408205586E0,5.367431641E-1,9.578079224E0,-8.848815918E0
9.413240986E0,5.290222168E-1,9.591629028E0,-8.866516113E0
9.418276386E0,5.402679443E-1,9.590530396E0,-8.836074829E0
9.423311787E0,5.415039062E-1,9.597396851E0,-8.815795898E0
9.428347187E0,5.139160156E-1,9.614349365E0,-8.823516846E0
9.433382588E0,5.152130127E-1,9.614913940E0,-8.832092285E0
9.438417988E0,5.095672607E-1,9.621978760E0,-8.838424683E0
9.443453388E0,5.158233643E-1,9.626449585E0,-8.904861450E0
9.448488789E0,5.439300537E-1,9.608123779E0,-8.921096802E0
9.453524189E0,5.411224365E-1,9.583145142E0,-8.892852783E0
9.458559590E0,5.068359375E-1,9.570648193E0,-8.842239380E0
9.463594990E0,5.217742920E-1,9.602386475E0,-8.878555298E0
9.468630390E0,5.258636475E-1,9.588546753E0,-8.867782593E0
9.473665791E0,5.407562256E-1,9.574523926E0,-8.830764771E0
9.478701191E0,5.577850342E-1,9.600158691E0,-8.895462036E0
9.483736592E0,5.394134521E-1,9.592544556E0,-8.934173584E0
9.488771992E0,5.457305908E-1,9.570861816E0,-8.949737549E0
9.493807392E0,5.475311279E-1,9.568008423E0,-8.935928345E0
9.498842793E0,5.508880615E-1,9.593521118E0,-8.939163208E0
9.503878193E0,5.400543213E-1,9.605316162E0,-8.931198120E0
9.508913593E0,5.156707764E-1,9.580764771E0,-8.960861206E0
9.513948994E0,5.032196045E-1,9.593887329E0,-8.965148926E0
9.518984394E0,4.997558594E-1,9.611480713E0,-8.921554565E0
9.524019795E0,5.391082764E-1,9.582412720E0,-8.944030762E0
9.529055195E0,5.700683594E-1,9.580139160E0,-9.020126343E0
9.534090595E0,5.386657715E-1,9.560974121E0,-8.990188599E0
9.539125996E0,5.548553467E-1,9.585266113E0,-8.957733154E0
9.544161396E0,5.388031006E-1,9.598648071E0,-9.026306152E0
9.549196797E0,5.285186768E-1,9.583709717E0,-9.083160400E0
9.554232197E0,5.417480469E-1,9.603408813E0,-9.042633057E0
9.559267597E0,5.306701660E-1,9.641357422E0,-8.999160767E0
9.564302998E0,4.739379883E-1,9.562362671E0,-9.009872437E0
9.569338398E0,5.208587646E-1,9.620880127E0,-9.086196899E0
9.574373799E0,4.616851807E-1,9.599273682E0,-9.127639771E0
9.579409199E0,4.809722900E-1,9.589569092E0,-9.053741455E0
9.584444599E0,4.970703125E-1,9.578033447E0,-9.081741333E0
9.589480000E0,4.463958740E-1,9.578414917E0,-9.090423584E0
9.594515400E0,4.733428955E-1,9.586914062E0,-9.119796753E0
9.599550801E0,4.457092285E-1,9.607742310E0,-9.099288940E0
9.604586201E0,4.555816650E-1,9.594940186E0,-9.159378052E0
9.609621601E0,4.478912354E-1,9.590682983E0,-9.140457153E0
9.614657002E0,4.505157471E-1,9.547225952E0,-9.185104370E0
9.619692402E0,4.239501953E-1,9.584442139E0,-9.146041870E0
9.624727802E0,4.166717529E-1,9.606033325E0,-9.149551392E0
9.629763203E0,4.225616455E-1,9.587066650E0,-9.153518677E0
9.634798603E0,3.767700195E-1,9.577209473E0,-9.138610840E0
9.639834004E0,3.923187256E-1,9.592330933E0,-9.165618896E0
9.644869404E0,3.902740479E-1,9.569503784E0,-9.189559937E0
9.649904804E0,3.811645508E-1,9.537109375E0,-9.185745239E0
9.654940205E0,3.790588379E-1,9.592315674E0,-9.170227051E0
9.659975605E0,3.766784668E-1,9.589904785E0,-9.217895508E0
9.665011006E0,3.349914551E-1,9.588562012E0,-9.244338989E0
9.670046406E0,3.374481201E-1,9.604217529E0,-9.190307617E0
9.675081806E0,3.711853027E-1,9.595794678E0,-9.182952881E0
9.680117207E0,3.785247803E-1,9.574172974E0,-9.202468872E0
9.685152607E0,3.330383301E-1,9.584823608E0,-9.207702637E0
9.690188008E0,3.001098633E-1,9.602493286E0,-9.194854736E0
9.695223408E0,2.883605957E-1,9.582077026E0,-9.202789307E0
9.700258808E0,3.100128174E-1,9.584289551E0,-9.225509644E0
9.705294209E0,3.067169189E-1,9.581878662E0,-9.212249756E0
9.710329609E0,3.259887695E-1,9.579467773E0,-9.221939087E0
9.715365010E0,3.231048584E-1,9.581878662E0,-9.233993530E0
9.720400410E0,2.928619385E-1,9.584548950E0,-9.191833496E0
9.725435810E0,2.917022705E-1,9.593719482E0,-9.200195312E0
9.730471211E0,3.003234863E-1,9.619750977E0,-9.206192017E0
9.735506611E0,2.879486084E-1,9.613967896E0,-9.179733276E0
9.740542011E0,3.065795898E-1,9.598083496E0,-9.168060303E0
9.745577412E0,2.989196777E-1,9.613510132E0,-9.165603638E0
9.750612812E0,2.889251709E-1,9.611267090E0,-9.181396484E0
9.755648213E0,3.100585938E-1,9.588424683E0,-9.176559448E0
9.760683613E0,3.117065430E-1,9.589294434E0,-9.172988892E0
9.765719013E0,2.953491211E-1,9.597076416E0,-9.193984985E0
9.770754414E0,2.820434570E-1,9.599731445E0,-9.220321655E0
9.775789814E0,2.756347656E-1,9.604568481E0,-9.208862305E0
9.780825215E0,2.811431885E-1,9.575744629E0,-9.190078735E0
9.785860615E0,3.028411865E-1,9.587142944E0,-9.197616577E0
9.790896015E0,3.113861084E-1,9.585601807E0,-9.199371338E0
9.795931416E0,3.008880615E-1,9.596359253E0,-9.165710449E0
9.800966816E0,2.778472900E-1,9.592956543E0,-9.134277344E0
9.806002217E0,2.794647217E-1,9.571853638E0,-9.153213501E0
9.811037617E0,2.755889893E-1,9.585342407E0,-9.184738159E0
9.816073017E0,2.774505615E-1,9.576690674E0,-9.185134888E0
9.821108418E0,2.687835693E-1,9.568511963E0,-9.114807129E0
9.826143818E0,2.671661377E-1,9.617630005E0,-9.118377686E0
9.831179218E0,2.530212402E-1,9.601348877E0,-9.143478394E0
9.836214619E0,2.700347900E-1,9.592834473E0,-9.163940430E0
9.841250019E0,2.583007812E-1,9.574935913E0,-9.162322998E0
9.846285420E0,2.646484375E-1,9.597717285E0,-9.141723633E0
9.851320820E0,2.816009521E-1,9.595397949E0,-9.143646240E0
9.856356220E0,2.586212158E-1,9.546752930E0,-9.094436646E0
9.861391621E0,2.345275879E-1,9.562164307E0,-9.121902466E0
9.866427021E0,2.206573486E-1,9.568511963E0,-9.092285156E0
9.871462422E0,2.505187988E-1,9.580490112E0,-9.047836304E0
9.876497822E0,2.464752197E-1,9.588882446E0,-9.085617065E0
9.881533222E0,2.406158447E-1,9.608459473E0,-9.091278076E0
9.886568623E0,2.629394531E-1,9.605087280E0,-9.101394653E0
9.891604023E0,2.512359619E-1,9.572250366E0,-9.041061401E0
9.896639424E0,2.430114746E-1,9.557693481E0,-9.087860107E0
9.901674824E0,2.401580811E-1,9.578506470E0,-9.047332764E0
9.906710224E0,2.243347168E-1,9.551376343E0,-9.050048828E0
9.911745625E0,2.595214844E-1,9.592468262E0,-9.059539795E0
9.916781025E0,2.247009277E-1,9.613037109E0,-9.034790039E0
9.921816426E0,2.117004395E-1,9.606765747E0,-9.005950928E0
9.926851826E0,2.634429932E-1,9.608963013E0,-9.069122314E0
9.931887226E0,2.398529053E-1,9.599411011E0,-8.957992554E0
9.936922627E0,2.212677002E-1,9.592697144E0,-9.011520386E0
9.941958027E0,2.397460938E-1,9.614395142E0,-8.965957642E0
9.946993427E0,2.302551270E-1,9.631866455E0,-9.002975464E0
9.952028828E0,1.771087646E-1,9.563507080E0,-9.003219604E0
9.957064228E0,2.339782715E-1,9.628738403E0,-8.973510742E0
9.962099629E0,2.230682373E-1,9.581314087E0,-8.994995117E0
9.967135029E0,2.704162598E-1,9.611389160E0,-9.009170532E0
9.972170429E0,2.625427246E-1,9.575317383E0,-8.989227295E0
9.977205830E0,2.296905518E-1,9.606521606E0,-9.038589478E0
9.982241230E0,2.001342773E-1,9.588577271E0,-8.981063843E0
9.987276631E0,2.467346191E-1,9.577362061E0,-9.024963379E0
9.992312031E0,2.381896973E-1,9.565048218E0,-9.026657104E0
9.997347431E0,2.097320557E-1,9.581909180E0,-8.968231201E0
1.000238283E1,2.209014893E-1,9.578506470E0,-8.999359131E0
1.000741823E1,2.175292969E-1,9.581420898E0,-8.924804688E0
1.001245363E1,2.399749756E-1,9.585708618E0,-8.885681152E0
1.001748903E1,2.474212646E-1,9.585830688E0,-8.929473877E0
1.002252443E1,2.518920898E-1,9.584701538E0,-8.928573608E0
1.002755983E1,2.085418701E-1,9.599609375E0,-8.857513428E0
1.003259523E1,2.432250977E-1,9.598785400E0,-8.836547852E0
1.003763064E1,2.539825439E-1,9.578735352E0,-8.949188232E0
1.004266604E1,2.619934082E-1,9.587112427E0,-8.981018066E0
1.004770144E1,2.638549805E-1,9.601043701E0,-8.985610962E0
1.005273684E1,2.346191406E-1,9.592086792E0,-8.958251953E0
1.005777224E1,2.225341797E-1,9.575485229E0,-8.913558960E0
1.006280764E1,2.597656250E-1,9.577896118E0,-8.864059448E0
1.006784304E1,2.420043945E-1,9.609848022E0,-8.883621216E0
1.007287844E1,2.441711426E-1,9.625366211E0,-8.885360718E0
1.007791384E1,2.669677734E-1,9.598464966E0,-8.862045288E0
1.008294924E1,2.972869873E-1,9.586990356E0,-8.841018677E0
1.008798464E1,2.950897217E-1,9.576370239E0,-8.846191406E0
1.009302004E1,2.580413818E-1,9.588989258E0,-8.852920532E0
1.009805544E1,2.534484863E-1,9.610549927E0,-8.836257935E0
1.010309084E1,2.741241455E-1,9.624389648E0,-8.826324463E0
1.010812624E1,2.980957031E-1,9.611526489E0,-8.824493408E0
1.011316164E1,2.931518555E-1,9.593429565E0,-8.834259033E0
1.011819704E1,2.695617676E-1,9.588684082E0,-8.851562500E0
1.012323244E1,2.864837646E-1,9.593902588E0,-8.848159790E0
1.012826784E1,3.029327393E-1,9.588989258E0,-8.832458496E0
1.013330324E1,2.884216309E-1,9.553543091E0,-8.841079712E0
1.013833864E1,2.986450195E-1,9.579467773E0,-8.809631348E0
1.014337404E1,2.969360352E-1,9.580078125E0,-8.815017700E0
1.014840944E1,2.923431396E-1,9.565185547E0,-8.836242676E0
1.015344484E1,2.882843018E-1,9.598800659E0,-8.825607300E0
1.015848024E1,2.948455811E-1,9.622131348E0,-8.846038818E0
1.016351564E1,3.233184814E-1,9.594970703E0,-8.832458496E0
1.016855105E1,3.430480957E-1,9.592178345E0,-8.799911499E0
1.017358644E1,3.502960205E-1,9.596237183E0,-8.778167725E0
1.017862184E1,3.240356445E-1,9.588150024E0,-8.785064697E0
1.018365725E1,3.646545410E-1,9.588500977E0,-8.786026001E0
1.018869265E1,3.347167969E-1,9.588226318E0,-8.790695190E0
1.019372805E1,3.433074951E-1,9.580596924E0,-8.769073486E0
1.019876345E1,3.648986816E-1,9.606475830E0,-8.761856079E0
1.020379885E1,3.666992188E-1,9.581710815E0,-8.796859741E0
1.020883425E1,3.790130615E-1,9.574569702E0,-8.781921387E0
1.021386965E1,3.846588135E-1,9.577514648E0,-8.763137817E0
1.021890505E1,4.174499512E-1,9.595108032E0,-8.720214844E0
1.022394045E1,4.217529297E-1,9.593627930E0,-8.696517944E0
1.022897585E1,4.188995361E-1,9.602172852E0,-8.707229614E0
1.023401125E1,4.365081787E-1,9.586196899E0,-8.772109985E0
1.023904665E1,4.196166992E-1,9.576690674E0,-8.737197876E0
1.024408205E1,3.995361328E-1,9.617080688E0,-8.710494995E0
1.024911745E1,4.559478760E-1,9.629562378E0,-8.682479858E0
1.025415285E1,4.935760498E-1,9.594146729E0,-8.670623779E0
1.025918825E1,4.752960205E-1,9.594284058E0,-8.721817017E0
1.026422365E1,4.908905029E-1,9.603515625E0,-8.676040649E0
1.026925905E1,4.833526611E-1,9.637725830E0,-8.658599854E0
1.027429445E1,4.940795898E-1,9.585586548E0,-8.734680176E0
1.027932985E1,5.015869141E-1,9.585098267E0,-8.687896729E0
1.028436525E1,4.831085205E-1,9.620208740E0,-8.651245117E0
1.028940065E1,5.371704102E-1,9.627975464E0,-8.688430786E0
1.029443605E1,4.971618652E-1,9.601654053E0,-8.669738770E0
1.029947146E1,5.062255859E-1,9.587890625E0,-8.679794312E0
1.030450686E1,4.943847656E-1,9.601837158E0,-8.705337524E0
1.030954226E1,5.484771729E-1,9.601593018E0,-8.705093384E0
1.031457766E1,5.287628174E-1,9.596191406E0,-8.694686890E0
1.031961306E1,5.058898926E-1,9.582412720E0,-8.614837646E0
1.032464846E1,5.240783691E-1,9.580215454E0,-8.720214844E0
1.032968386E1,5.158233643E-1,9.602325439E0,-8.678894043E0
1.033471926E1,5.745849609E-1,9.605575562E0,-8.676513672E0
1.033975466E1,5.664062500E-1,9.598999023E0,-8.668273926E0
1.034479006E1,5.599975586E-1,9.607116699E0,-8.634445190E0
1.034982546E1,5.176391602E-1,9.590667725E0,-8.667617798E0
1.035486086E1,5.477142334E-1,9.630401611E0,-8.680679321E0
1.035989626E1,5.503082275E-1,9.620895386E0,-8.676315308E0
1.036493166E1,5.898284912E-1,9.581848145E0,-8.676315308E0
1.036996706E1,5.734100342E-1,9.594741821E0,-8.691619873E0
1.037500246E1,5.866241455E-1,9.616989136E0,-8.703521729E0
1.038003786E1,5.964813232E-1,9.604797363E0,-8.658752441E0
1.038507326E1,5.887298584E-1,9.601043701E0,-8.666015625E0
1.039010866E1,5.817413330E-1,9.597000122E0,-8.607650757E0
1.039514406E1,5.610351562E-1,9.612915039E0,-8.626434326E0
1.040017946E1,5.715332031E-1,9.581375122E0,-8.681686401E0
1.040521486E1,5.543060303E-1,9.599182129E0,-8.621185303E0
1.041025026E1,5.509948730E-1,9.597137451E0,-8.677581787E0
1.041528566E1,5.754394531E-1,9.591262817E0,-8.653274536E0
1.042032106E1,6.007232666E-1,9.606033325E0,-8.621170044E0
1.042535646E1,5.732269287E-1,9.589584351E0,-8.619644165E0
1.043039186E1,5.612640381E-1,9.606155396E0,-8.647232056E0
1.043542727E1,5.499114990E-1,9.591384888E0,-8.678634644E0
1.044046267E1,5.513916016E-1,9.589309692E0,-8.639251709E0
