"Time (s)","Gyroscope x (rad/s)","Gyroscope y (rad/s)","Gyroscope z (rad/s)"
3.998739920E-1,1.730346680E-2,6.484985352E-3,5.004882812E-2
4.049093920E-1,1.539611816E-2,5.661010742E-3,4.962158203E-2
4.099447930E-1,1.362609863E-2,7.019042969E-3,5.030822754E-2
4.149801930E-1,1.216125488E-2,9.185791016E-3,5.068969727E-2
4.200155930E-1,1.036071777E-2,1.350402832E-2,5.068969727E-2
4.250509940E-1,8.193969727E-3,1.745605469E-2,5.142211914E-2
4.300863940E-1,8.255004883E-3,1.548767090E-2,5.325317383E-2
4.351217950E-1,7.827758789E-3,8.880615234E-3,5.694580078E-2
4.401571950E-1,6.744384766E-3,5.340576172E-4,5.894470215E-2
4.451925950E-1,5.661010742E-3,-1.815795898E-3,6.239318848E-2
4.502279960E-1,5.386352539E-3,2.975463867E-3,6.591796875E-2
4.552633960E-1,6.195068359E-3,7.034301758E-3,6.999206543E-2
4.602987970E-1,5.615234375E-3,8.621215820E-3,7.514953613E-2
4.653341970E-1,7.064819336E-3,1.139831543E-2,8.055114746E-2
4.703695970E-1,7.522583008E-3,1.550292969E-2,8.424377441E-2
4.754049980E-1,5.767822266E-3,1.896667480E-2,8.750915527E-2
4.804403980E-1,3.601074219E-3,2.131652832E-2,9.164428711E-2
4.854757980E-1,3.250122070E-3,2.258300781E-2,9.144592285E-2
4.905111990E-1,4.165649414E-3,1.904296875E-2,9.405517578E-2
4.955465990E-1,4.318237305E-3,1.097106934E-2,9.730529785E-2
5.005820000E-1,1.464843750E-3,3.280639648E-3,9.864807129E-2
5.056174000E-1,-8.392333984E-4,2.456665039E-3,9.875488281E-2
5.106528000E-1,-2.990722656E-3,7.369995117E-3,9.974670410E-2
5.156882010E-1,-4.165649414E-3,1.077270508E-2,1.018218994E-1
5.207236010E-1,-4.226684570E-3,1.606750488E-2,1.029815674E-1
5.257590020E-1,-7.324218750E-3,2.044677734E-2,1.020050049E-1
5.307944020E-1,-8.483886719E-3,2.372741699E-2,1.009216309E-1
5.358298020E-1,-8.499145508E-3,2.064514160E-2,1.019592285E-1
5.408652030E-1,-8.499145508E-3,1.525878906E-2,1.019592285E-1
5.459006030E-1,-8.544921875E-3,1.309204102E-2,1.019897461E-1
5.509360040E-1,-1.074218750E-2,1.095581055E-2,1.030273438E-1
5.559714040E-1,-1.383972168E-2,9.979248047E-3,1.029357910E-1
5.610068040E-1,-1.383972168E-2,1.106262207E-2,1.008911133E-1
5.660422050E-1,-1.400756836E-2,1.206970215E-2,1.008911133E-1
5.710776050E-1,-1.597595215E-2,1.187133789E-2,1.008911133E-1
5.761130060E-1,-1.609802246E-2,9.262084961E-3,1.008911133E-1
5.811484060E-1,-1.704406738E-2,2.899169922E-3,1.010284424E-1
5.861838060E-1,-1.719665527E-2,-2.105712891E-3,1.023864746E-1
5.912192070E-1,-1.797485352E-2,-4.104614258E-3,1.053161621E-1
5.962546070E-1,-1.739501953E-2,-4.684448242E-3,1.060638428E-1
6.012900070E-1,-1.937866211E-2,-2.334594727E-3,1.049804688E-1
6.063254080E-1,-2.006530762E-2,3.204345703E-4,1.046905518E-1
6.113608080E-1,-1.875305176E-2,-5.493164062E-4,1.072998047E-1
6.163962090E-1,-1.658630371E-2,-4.196166992E-3,1.070709229E-1
6.214316090E-1,-1.490783691E-2,-4.791259766E-3,1.057586670E-1
6.264670090E-1,-1.490783691E-2,-3.448486328E-3,1.038513184E-1
6.315024100E-1,-1.547241211E-2,-1.541137695E-3,1.022033691E-1
6.365378100E-1,-1.704406738E-2,-2.182006836E-3,9.954833984E-2
6.415732110E-1,-1.675415039E-2,-7.263183594E-3,9.788513184E-2
6.466086110E-1,-1.597595215E-2,-9.735107422E-3,9.429931641E-2
6.516440110E-1,-1.597595215E-2,-6.561279297E-3,9.095764160E-2
6.566794120E-1,-1.597595215E-2,-1.159667969E-3,9.020996094E-2
6.617148120E-1,-1.562500000E-2,6.439208984E-3,9.094238281E-2
6.667502130E-1,-1.490783691E-2,1.800537109E-2,9.310913086E-2
6.717856130E-1,-1.570129395E-2,2.723693848E-2,9.448242188E-2
6.768210130E-1,-1.745605469E-2,3.088378906E-2,9.286499023E-2
6.818564140E-1,-1.811218262E-2,2.810668945E-2,8.937072754E-2
6.868918140E-1,-1.724243164E-2,2.049255371E-2,8.631896973E-2
6.919272150E-1,-1.507568359E-2,6.515502930E-3,8.245849609E-2
6.969626150E-1,-1.338195801E-2,-1.519775391E-2,7.873535156E-2
7.019980150E-1,-1.083374023E-2,-4.026794434E-2,7.585144043E-2
7.070334160E-1,-7.019042969E-3,-6.205749512E-2,7.525634766E-2
7.120688160E-1,-4.791259766E-3,-7.640075684E-2,7.424926758E-2
7.171042160E-1,-3.707885742E-3,-8.085632324E-2,7.260131836E-2
7.221396170E-1,-2.624511719E-3,-7.705688477E-2,7.151794434E-2
7.271750170E-1,-1.541137695E-3,-6.503295898E-2,7.098388672E-2
7.322104180E-1,1.220703125E-4,-4.704284668E-2,7.041931152E-2
7.372458180E-1,1.113891602E-3,-3.106689453E-2,6.933593750E-2
7.422812180E-1,1.708984375E-3,-1.989746094E-2,6.825256348E-2
7.473166190E-1,3.402709961E-3,-1.570129395E-2,6.655883789E-2
7.523520190E-1,6.210327148E-3,-1.696777344E-2,6.501770020E-2
7.573874200E-1,8.819580078E-3,-2.238464355E-2,6.263732910E-2
7.624228200E-1,1.097106934E-2,-3.260803223E-2,6.005859375E-2
7.674582200E-1,1.315307617E-2,-4.251098633E-2,5.787658691E-2
7.724936210E-1,1.531982422E-2,-4.840087891E-2,5.502319336E-2
7.775290210E-1,1.676940918E-2,-5.130004883E-2,5.177307129E-2
7.825644220E-1,1.640319824E-2,-5.201721191E-2,4.852294922E-2
7.875998220E-1,1.679992676E-2,-5.351257324E-2,4.527282715E-2
7.926352220E-1,1.713562012E-2,-5.566406250E-2,4.278564453E-2
7.976706230E-1,1.789855957E-2,-5.859375000E-2,3.985595703E-2
8.027060230E-1,1.898193359E-2,-6.106567383E-2,3.659057617E-2
8.077414230E-1,1.846313477E-2,-5.923461914E-2,3.414916992E-2
8.127768240E-1,1.737976074E-2,-5.680847168E-2,3.279113770E-2
8.178122240E-1,1.878356934E-2,-5.464172363E-2,3.005981445E-2
8.228476250E-1,2.011108398E-2,-5.584716797E-2,2.764892578E-2
8.278830250E-1,1.947021484E-2,-5.801391602E-2,2.548217773E-2
8.329184250E-1,2.188110352E-2,-5.842590332E-2,2.331542969E-2
8.379538260E-1,2.247619629E-2,-5.842590332E-2,2.381896973E-2
8.429892260E-1,2.517700195E-2,-6.114196777E-2,2.218627930E-2
8.480246270E-1,2.842712402E-2,-6.805419922E-2,2.185058594E-2
8.530600270E-1,2.980041504E-2,-7.655334473E-2,2.000427246E-2
8.580954270E-1,3.184509277E-2,-7.955932617E-2,1.782226562E-2
8.631308280E-1,3.401184082E-2,-7.882690430E-2,1.661682129E-2
8.681662280E-1,3.616333008E-2,-7.678222656E-2,1.359558105E-2
8.732016290E-1,3.735351562E-2,-7.460021973E-2,8.331298828E-3
8.782370290E-1,4.045104980E-2,-6.941223145E-2,5.950927734E-3
8.832724290E-1,4.266357422E-2,-6.401062012E-2,3.799438477E-3
8.883078300E-1,4.277038574E-2,-6.170654297E-2,1.632690430E-3
8.933432300E-1,4.382324219E-2,-6.163024902E-2,-1.602172852E-3
8.983786310E-1,4.597473145E-2,-6.163024902E-2,-3.784179688E-3
9.034140310E-1,4.597473145E-2,-6.269836426E-2,-5.966186523E-3
9.084494310E-1,4.704284668E-2,-6.269836426E-2,-1.028442383E-2
9.134848320E-1,4.708862305E-2,-6.285095215E-2,-1.348876953E-2
9.185202320E-1,4.811096191E-2,-6.637573242E-2,-1.564025879E-2
9.235556320E-1,4.817199707E-2,-7.504272461E-2,-1.788330078E-2
9.285910330E-1,4.936218262E-2,-8.337402344E-2,-2.096557617E-2
9.336264330E-1,5.120849609E-2,-8.685302734E-2,-2.214050293E-2
9.386618340E-1,5.035400391E-2,-8.265686035E-2,-2.430725098E-2
9.436972340E-1,5.131530762E-2,-7.991027832E-2,-2.632141113E-2
9.487326340E-1,5.131530762E-2,-8.056640625E-2,-2.742004395E-2
9.537680350E-1,5.131530762E-2,-7.839965820E-2,-2.850341797E-2
9.588034350E-1,5.166625977E-2,-7.623291016E-2,-2.976989746E-2
9.638388360E-1,5.325317383E-2,-7.406616211E-2,-3.155517578E-2
9.688742360E-1,5.279541016E-2,-7.168579102E-2,-3.196716309E-2
9.739096360E-1,5.496215820E-2,-6.910705566E-2,-3.390502930E-2
9.789450370E-1,5.735778809E-2,-6.910705566E-2,-3.475952148E-2
9.839804370E-1,6.010437012E-2,-6.962585449E-2,-3.500366211E-2
9.890158380E-1,6.146240234E-2,-7.070922852E-2,-3.582763672E-2
9.940512380E-1,6.333923340E-2,-6.854248047E-2,-3.610229492E-2
9.990866380E-1,6.382751465E-2,-6.576538086E-2,-3.718566895E-2
1.004122039E0,6.274414062E-2,-6.239318848E-2,-3.858947754E-2
1.009157439E0,6.263732910E-2,-6.163024902E-2,-4.010009766E-2
1.014192840E0,6.413269043E-2,-6.163024902E-2,-4.110717773E-2
1.019228240E0,6.413269043E-2,-6.269836426E-2,-4.400634766E-2
1.024263640E0,6.413269043E-2,-6.521606445E-2,-4.580688477E-2
1.029299041E0,6.373596191E-2,-6.668090820E-2,-4.727172852E-2
1.034334441E0,6.265258789E-2,-6.884765625E-2,-4.904174805E-2
1.039369841E0,6.156921387E-2,-7.101440430E-2,-5.053710938E-2
1.044405242E0,6.135559082E-2,-7.405090332E-2,-5.227661133E-2
1.049440642E0,6.153869629E-2,-7.658386230E-2,-5.291748047E-2
1.054476043E0,6.092834473E-2,-7.705688477E-2,-5.337524414E-2
1.059511443E0,6.092834473E-2,-7.621765137E-2,-5.398559570E-2
1.064546843E0,6.042480469E-2,-7.101440430E-2,-5.348205566E-2
1.069582244E0,5.934143066E-2,-6.294250488E-2,-5.342102051E-2
1.074617644E0,5.879211426E-2,-5.635070801E-2,-5.398559570E-2
1.079653045E0,5.770874023E-2,-5.308532715E-2,-5.398559570E-2
1.084688445E0,5.775451660E-2,-5.258178711E-2,-5.453491211E-2
1.089723845E0,5.822753906E-2,-5.590820312E-2,-5.448913574E-2
1.094759246E0,5.830383301E-2,-6.250000000E-2,-5.281066895E-2
1.099794646E0,5.998229980E-2,-6.770324707E-2,-5.123901367E-2
1.104830047E0,6.152343750E-2,-6.910705566E-2,-5.078125000E-2
1.109865447E0,6.135559082E-2,-6.723022461E-2,-5.140686035E-2
1.114900847E0,6.092834473E-2,-6.333923340E-2,-5.184936523E-2
1.119936248E0,6.092834473E-2,-5.705261230E-2,-5.119323730E-2
1.124971648E0,6.025695801E-2,-5.081176758E-2,-5.078125000E-2
1.130007048E0,5.986022949E-2,-4.745483398E-2,-5.009460449E-2
1.135042449E0,5.915832520E-2,-4.598999023E-2,-5.039978027E-2
1.140077849E0,5.734252930E-2,-4.705810547E-2,-5.004882812E-2
1.145113250E0,5.738830566E-2,-5.068969727E-2,-4.971313477E-2
1.150148650E0,5.473327637E-2,-5.650329590E-2,-4.896545410E-2
1.155184050E0,5.268859863E-2,-6.224060059E-2,-5.015563965E-2
1.160219451E0,5.314636230E-2,-6.842041016E-2,-5.078125000E-2
1.165255146E0,5.107116699E-2,-7.334899902E-2,-5.078125000E-2
1.170290547E0,4.943847656E-2,-7.041931152E-2,-4.997253418E-2
1.175325947E0,4.753112793E-2,-6.419372559E-2,-4.971313477E-2
1.180361347E0,4.620361328E-2,-5.851745605E-2,-4.971313477E-2
1.185396748E0,4.341125488E-2,-5.395507812E-2,-4.885864258E-2
1.190432148E0,4.190063477E-2,-5.136108398E-2,-4.777526855E-2
1.195467549E0,4.257202148E-2,-5.183410645E-2,-4.580688477E-2
1.200502949E0,4.006958008E-2,-5.113220215E-2,-4.183959961E-2
1.205538349E0,3.956604004E-2,-5.004882812E-2,-4.025268555E-2
1.210573750E0,3.956604004E-2,-5.174255371E-2,-4.010009766E-2
1.215609150E0,3.956604004E-2,-5.484008789E-2,-3.915405273E-2
1.220644551E0,3.860473633E-2,-5.332946777E-2,-3.807067871E-2
1.225679951E0,3.849792480E-2,-5.114746094E-2,-3.601074219E-2
1.230715351E0,3.652954102E-2,-4.702758789E-2,-3.483581543E-2
1.235750752E0,3.636169434E-2,-4.267883301E-2,-3.375244141E-2
1.240786152E0,3.736877441E-2,-4.037475586E-2,-3.164672852E-2
1.245821552E0,3.640747070E-2,-4.026794434E-2,-2.951049805E-2
1.250856953E0,3.530883789E-2,-4.132080078E-2,-2.836608887E-2
1.255892353E0,3.315734863E-2,-4.240417480E-2,-2.835083008E-2
1.260927754E0,3.100585938E-2,-4.348754883E-2,-2.728271484E-2
1.265963154E0,2.992248535E-2,-4.566955566E-2,-2.830505371E-2
1.270998554E0,2.883911133E-2,-4.885864258E-2,-2.616882324E-2
1.276033955E0,2.770996094E-2,-4.978942871E-2,-2.508544922E-2
1.281069355E0,2.540588379E-2,-4.762268066E-2,-2.407836914E-2
1.286104756E0,2.108764648E-2,-4.560852051E-2,-2.398681641E-2
1.291140156E0,1.702880859E-2,-4.571533203E-2,-2.270507812E-2
1.296175556E0,1.573181152E-2,-4.646301270E-2,-1.934814453E-2
1.301210957E0,1.248168945E-2,-4.405212402E-2,-1.553344727E-2
1.306246357E0,9.231567383E-3,-3.999328613E-2,-1.553344727E-2
1.311281758E0,6.301879883E-3,-3.784179688E-2,-1.492309570E-2
1.316317158E0,5.386352539E-3,-3.549194336E-2,-1.074218750E-2
1.321352558E0,5.187988281E-3,-3.205871582E-2,-7.675170898E-3
1.326387959E0,4.119873047E-3,-2.793884277E-2,-5.722045898E-3
1.331423359E0,3.036499023E-3,-2.552795410E-2,-3.997802734E-3
1.336458760E0,2.410888672E-3,-2.638244629E-2,-3.356933594E-4
1.341494160E0,3.005981445E-3,-2.590942383E-2,1.220703125E-3
1.346529560E0,1.922607422E-3,-2.400207520E-2,3.952026367E-3
1.351564961E0,1.113891602E-3,-2.317810059E-2,5.050659180E-3
1.356600361E0,5.340576172E-4,-2.317810059E-2,6.408691406E-3
1.361635761E0,-1.632690430E-3,-2.317810059E-2,8.575439453E-3
1.366671162E0,-3.479003906E-3,-2.349853516E-2,1.042175293E-2
1.371706562E0,-5.233764648E-3,-2.359008789E-2,1.116943359E-2
1.376741963E0,-7.781982422E-3,-2.177429199E-2,1.152038574E-2
1.381777363E0,-8.865356445E-3,-2.069091797E-2,1.296997070E-2
1.386812763E0,-1.033020020E-2,-1.997375488E-2,1.475524902E-2
1.391848164E0,-1.249694824E-2,-2.037048340E-2,1.583862305E-2
1.396883564E0,-1.547241211E-2,-2.023315430E-2,1.611328125E-2
1.401918965E0,-1.895141602E-2,-1.890563965E-2,1.670837402E-2
1.406954365E0,-2.243041992E-2,-1.979064941E-2,1.908874512E-2
1.411989765E0,-2.604675293E-2,-2.059936523E-2,2.062988281E-2
1.417025166E0,-2.758789062E-2,-1.905822754E-2,2.325439453E-2
1.422060566E0,-3.024291992E-2,-1.783752441E-2,2.505493164E-2
1.427095967E0,-3.150939941E-2,-1.884460449E-2,2.655029297E-2
1.432131367E0,-3.247070312E-2,-1.692199707E-2,2.825927734E-2
1.437166767E0,-3.520202637E-2,-9.887695312E-3,2.932739258E-2
1.442202168E0,-3.681945801E-2,-2.838134766E-3,3.094482422E-2
1.447237568E0,-3.790283203E-2,8.697509766E-4,3.146362305E-2
1.452272968E0,-4.013061523E-2,8.087158203E-4,3.260803223E-2
1.457308369E0,-4.278564453E-2,-2.746582031E-4,3.359985352E-2
1.462343769E0,-4.374694824E-2,-1.358032227E-3,3.541564941E-2
1.467379170E0,-4.374694824E-2,-1.815795898E-3,3.680419922E-2
1.472414570E0,-4.438781738E-2,7.629394531E-5,3.555297852E-2
1.477449970E0,-4.547119141E-2,2.029418945E-3,3.532409668E-2
1.482485371E0,-4.588317871E-2,4.440307617E-3,3.640747070E-2
1.487520771E0,-4.588317871E-2,7.675170898E-3,3.749084473E-2
1.492556172E0,-4.658508301E-2,1.301574707E-2,3.787231445E-2
1.497591572E0,-4.766845703E-2,1.739501953E-2,3.646850586E-2
1.502626972E0,-5.018615723E-2,1.774597168E-2,3.646850586E-2
1.507662373E0,-5.197143555E-2,1.519775391E-2,3.680419922E-2
1.512697773E0,-5.305480957E-2,1.043701172E-2,3.831481934E-2
1.517733174E0,-5.413818359E-2,5.798339844E-3,3.971862793E-2
1.522768574E0,-5.599975586E-2,3.799438477E-3,4.000854492E-2
1.527803974E0,-5.816650391E-2,5.905151367E-3,4.000854492E-2
1.532839375E0,-5.952453613E-2,1.078796387E-2,4.083251953E-2
1.537874775E0,-6.060791016E-2,1.783752441E-2,4.107666016E-2
1.542910176E0,-6.335449219E-2,2.204895020E-2,4.025268555E-2
1.547945576E0,-6.489562988E-2,2.442932129E-2,4.086303711E-2
1.552980976E0,-6.597900391E-2,2.835083008E-2,4.107666016E-2
1.558016377E0,-6.971740723E-2,3.002929688E-2,3.932189941E-2
1.563051777E0,-7.225036621E-2,2.752685547E-2,4.074096680E-2
1.568087177E0,-7.443237305E-2,2.243041992E-2,4.200744629E-2
1.573122578E0,-7.380676270E-2,1.702880859E-2,4.122924805E-2
1.578157978E0,-7.272338867E-2,1.255798340E-2,4.014587402E-2
1.583193379E0,-7.066345215E-2,1.013183594E-2,3.808593750E-2
1.588228779E0,-6.851196289E-2,9.933471680E-3,3.787231445E-2
1.593264179E0,-7.029724121E-2,1.487731934E-2,3.886413574E-2
1.598299580E0,-6.945800781E-2,2.429199219E-2,3.593444824E-2
1.603334980E0,-7.040405273E-2,3.407287598E-2,3.573608398E-2
1.608370381E0,-7.148742676E-2,4.173278809E-2,3.367614746E-2
1.613405781E0,-7.257080078E-2,4.406738281E-2,3.150939941E-2
1.618441181E0,-7.258605957E-2,4.304504395E-2,3.146362305E-2
1.623476582E0,-7.260131836E-2,4.090881348E-2,3.039550781E-2
1.628511982E0,-7.365417480E-2,4.080200195E-2,3.042602539E-2
1.633547383E0,-7.360839844E-2,3.634643555E-2,3.152465820E-2
1.638582783E0,-7.254028320E-2,2.998352051E-2,3.253173828E-2
1.643618183E0,-7.151794434E-2,2.645874023E-2,3.253173828E-2
1.648653584E0,-7.171630859E-2,3.416442871E-2,3.253173828E-2
1.653688984E0,-7.365417480E-2,4.249572754E-2,3.244018555E-2
1.658724385E0,-7.365417480E-2,4.766845703E-2,3.158569336E-2
1.663759785E0,-7.392883301E-2,5.078125000E-2,3.240966797E-2
1.668795185E0,-7.565307617E-2,5.235290527E-2,3.132629395E-2
1.673830586E0,-7.423400879E-2,5.001831055E-2,3.056335449E-2
1.678865986E0,-7.170104980E-2,4.660034180E-2,3.146362305E-2
1.683901386E0,-7.278442383E-2,4.205322266E-2,3.146362305E-2
1.688936787E0,-7.345581055E-2,3.749084473E-2,3.083801270E-2
1.693972187E0,-7.214355469E-2,3.663635254E-2,2.804565430E-2
1.699007588E0,-7.022094727E-2,3.781127930E-2,2.719116211E-2
1.704042988E0,-6.964111328E-2,4.376220703E-2,2.618408203E-2
1.709078388E0,-7.019042969E-2,5.133056641E-2,2.265930176E-2
1.714113789E0,-6.883239746E-2,5.776977539E-2,2.101135254E-2
1.719149189E0,-6.724548340E-2,5.982971191E-2,1.864624023E-2
1.724184590E0,-6.724548340E-2,5.812072754E-2,1.802062988E-2
1.729219990E0,-6.692504883E-2,5.520629883E-2,1.618957520E-2
1.734255390E0,-6.584167480E-2,5.372619629E-2,1.477050781E-2
1.739290791E0,-6.439208984E-2,5.191040039E-2,1.295471191E-2
1.744326191E0,-6.297302246E-2,4.650878906E-2,1.150512695E-2
1.749361592E0,-6.297302246E-2,4.304504395E-2,9.719848633E-3
1.754396992E0,-6.257629395E-2,4.383850098E-2,8.636474609E-3
1.759432392E0,-6.190490723E-2,4.725646973E-2,7.553100586E-3
1.764467793E0,-6.147766113E-2,5.354309082E-2,6.469726562E-3
1.769503193E0,-6.129455566E-2,6.111145020E-2,5.386352539E-3
1.774538593E0,-6.053161621E-2,6.500244141E-2,3.845214844E-3
1.779573994E0,-5.775451660E-2,6.155395508E-2,2.624511719E-3
1.784609394E0,-5.607604980E-2,5.603027344E-2,2.136230469E-3
1.789644795E0,-5.398559570E-2,5.372619629E-2,1.052856445E-3
1.794680195E0,-5.229187012E-2,5.528259277E-2,4.882812500E-4
1.799715595E0,-5.175781250E-2,5.799865723E-2,-1.113891602E-3
1.804750996E0,-4.957580566E-2,5.906677246E-2,-3.265380859E-3
1.809786396E0,-4.747009277E-2,5.906677246E-2,-4.333496094E-3
1.814821797E0,-4.638671875E-2,5.963134766E-2,-5.996704102E-3
1.819857197E0,-4.530334473E-2,5.894470215E-2,-9.353637695E-3
1.824892597E0,-4.360961914E-2,5.738830566E-2,-1.185607910E-2
1.829927998E0,-4.144287109E-2,5.754089355E-2,-1.293945312E-2
1.834963398E0,-4.054260254E-2,5.926513672E-2,-1.466369629E-2
1.839998799E0,-3.924560547E-2,6.274414062E-2,-1.617431641E-2
1.845034199E0,-3.775024414E-2,6.573486328E-2,-1.792907715E-2
1.850069599E0,-3.733825684E-2,6.788635254E-2,-2.075195312E-2
1.855105000E0,-3.596496582E-2,7.283020020E-2,-2.262878418E-2
1.860140400E0,-3.306579590E-2,7.722473145E-2,-2.514648438E-2
1.865175801E0,-3.054809570E-2,7.682800293E-2,-2.621459961E-2
1.870211201E0,-2.838134766E-2,7.244873047E-2,-2.694702148E-2
1.875246601E0,-2.622985840E-2,6.930541992E-2,-2.651977539E-2
1.880282002E0,-2.404785156E-2,6.867980957E-2,-2.697753906E-2
1.885317402E0,-2.110290527E-2,6.631469727E-2,-2.648925781E-2
1.890352802E0,-1.866149902E-2,6.147766113E-2,-2.700805664E-2
1.895388203E0,-1.567077637E-2,5.848693848E-2,-2.728271484E-2
1.900423603E0,-1.490783691E-2,5.966186523E-2,-2.728271484E-2
1.905459004E0,-1.322937012E-2,6.266784668E-2,-2.642822266E-2
1.910494404E0,-1.277160645E-2,6.677246094E-2,-2.792358398E-2
1.915529804E0,-1.277160645E-2,6.672668457E-2,-2.922058105E-2
1.920565205E0,-1.188659668E-2,6.385803223E-2,-3.118896484E-2
1.925600605E0,-9.902954102E-3,5.880737305E-2,-3.155517578E-2
1.930636006E0,-9.567260742E-3,5.891418457E-2,-3.338623047E-2
1.935671406E0,-8.636474609E-3,5.624389648E-2,-3.649902344E-2
1.940706806E0,-5.661010742E-3,5.015563965E-2,-3.593444824E-2
1.945742207E0,-3.372192383E-3,4.270935059E-2,-3.871154785E-2
1.950777607E0,-2.182006836E-3,3.901672363E-2,-4.098510742E-2
1.955813008E0,-1.098632812E-3,4.174804688E-2,-4.315185547E-2
1.960848408E0,-3.051757812E-3,5.105590820E-2,-4.531860352E-2
1.965883808E0,-2.151489258E-3,6.077575684E-2,-4.644775391E-2
1.970919209E0,-1.068115234E-3,6.430053711E-2,-4.753112793E-2
1.975954609E0,1.083374023E-3,6.018066406E-2,-4.862976074E-2
1.980990010E0,3.250122070E-3,5.265808105E-2,-4.757690430E-2
1.986025410E0,3.280639648E-3,4.077148438E-2,-4.862976074E-2
1.991060810E0,6.576538086E-3,3.009033203E-2,-4.757690430E-2
1.996096211E0,1.193237305E-2,2.488708496E-2,-4.751586914E-2
2.001131611E0,1.504516602E-2,2.493286133E-2,-4.644775391E-2
2.006167011E0,1.612854004E-2,2.622985840E-2,-4.528808594E-2
2.011202412E0,1.713562012E-2,3.099060059E-2,-4.338073730E-2
2.016237812E0,1.722717285E-2,4.057312012E-2,-4.437255859E-2
2.021273213E0,1.843261719E-2,4.777526855E-2,-4.437255859E-2
2.026308613E0,2.059936523E-2,5.171203613E-2,-4.437255859E-2
2.031344013E0,2.276611328E-2,5.235290527E-2,-4.437255859E-2
2.036379414E0,2.476501465E-2,4.969787598E-2,-4.420471191E-2
2.041414814E0,2.603149414E-2,4.341125488E-2,-4.330444336E-2
2.046450215E0,2.799987793E-2,3.239440918E-2,-4.348754883E-2
2.051485615E0,2.908325195E-2,2.085876465E-2,-4.394531250E-2
2.056521015E0,3.016662598E-2,1.246643066E-2,-4.223632812E-2
2.061556416E0,3.102111816E-2,9.445190430E-3,-4.246520996E-2
2.066591816E0,3.126525879E-2,8.804321289E-3,-4.330444336E-2
2.071627217E0,3.181457520E-2,1.367187500E-2,-4.330444336E-2
2.076662617E0,3.045654297E-2,1.988220215E-2,-4.301452637E-2
2.081698017E0,2.946472168E-2,2.439880371E-2,-4.223632812E-2
2.086733418E0,3.102111816E-2,2.439880371E-2,-4.161071777E-2
2.091768818E0,3.068542480E-2,1.765441895E-2,-3.976440430E-2
2.096804218E0,2.893066406E-2,8.270263672E-3,-3.868103027E-2
2.101839619E0,2.709960938E-2,3.204345703E-4,-3.796386719E-2
2.106875019E0,2.781677246E-2,-5.447387695E-3,-3.796386719E-2
2.111910420E0,2.703857422E-2,-8.621215820E-3,-3.756713867E-2
2.116945820E0,2.607727051E-2,-8.102416992E-3,-3.729248047E-2
2.121981220E0,2.674865723E-2,-4.852294922E-3,-3.796386719E-2
2.127016621E0,2.630615234E-2,-1.159667969E-3,-3.752136230E-2
2.132052021E0,2.612304688E-2,3.158569336E-3,-3.599548340E-2
2.137087422E0,2.766418457E-2,8.407592773E-3,-3.428649902E-2
2.142122822E0,2.935791016E-2,1.254272461E-2,-3.369140625E-2
2.147158222E0,3.092956543E-2,1.165771484E-2,-3.417968750E-2
2.152193623E0,3.308105469E-2,7.431030273E-3,-3.375244141E-2
2.157229023E0,3.524780273E-2,4.074096680E-3,-3.158569336E-2
2.162264424E0,3.636169434E-2,2.975463867E-3,-3.102111816E-2
2.167299824E0,3.691101074E-2,1.342773438E-3,-3.044128418E-2
2.172335224E0,3.742980957E-2,-1.373291016E-3,-2.941894531E-2
2.177370625E0,3.742980957E-2,-5.218505859E-3,-2.766418457E-2
2.182406025E0,3.681945801E-2,-8.956909180E-3,-2.621459961E-2
2.187441426E0,3.636169434E-2,-9.765625000E-3,-2.560424805E-2
2.192476826E0,3.697204590E-2,-8.682250977E-3,-2.389526367E-2
2.197512226E0,3.550720215E-2,-5.676269531E-3,-2.108764648E-2
2.202547627E0,3.356933594E-2,-1.998901367E-3,-1.980590820E-2
2.207583027E0,3.248596191E-2,-9.155273438E-5,-1.846313477E-2
2.212618427E0,2.934265137E-2,3.204345703E-4,-1.766967773E-2
2.217653828E0,2.711486816E-2,-2.487182617E-3,-1.766967773E-2
2.222689228E0,2.745056152E-2,-8.239746094E-3,-1.551818848E-2
2.227724629E0,2.781677246E-2,-1.473999023E-2,-1.300048828E-2
2.232760029E0,2.781677246E-2,-1.826477051E-2,-1.158142090E-2
2.237795429E0,2.476501465E-2,-1.663208008E-2,-1.200866699E-2
2.242830830E0,2.276611328E-2,-1.106262207E-2,-1.155090332E-2
2.247866230E0,2.247619629E-2,-6.927490234E-3,-9.674072266E-3
2.252901631E0,2.247619629E-2,-6.896972656E-3,-8.316040039E-3
2.257937031E0,2.165222168E-2,-7.980346680E-3,-5.584716797E-3
2.262972431E0,2.056884766E-2,-1.072692871E-2,-4.013061523E-3
2.268007832E0,2.117919922E-2,-1.823425293E-2,-2.075195312E-3
2.273043232E0,2.313232422E-2,-2.777099609E-2,9.155273438E-5
2.278078633E0,2.354431152E-2,-3.486633301E-2,2.258300781E-3
2.283114033E0,2.175903320E-2,-3.244018555E-2,5.310058594E-3
2.288149433E0,1.957702637E-2,-2.354431152E-2,6.744384766E-3
2.293184834E0,1.741027832E-2,-1.657104492E-2,8.758544922E-3
2.298220234E0,1.618957520E-2,-1.196289062E-2,1.091003418E-2
2.303255635E0,1.414489746E-2,-9.521484375E-3,1.309204102E-2
2.308291035E0,1.295471191E-2,-7.354736328E-3,1.428222656E-2
2.313326435E0,9.902954102E-3,-1.011657715E-2,1.437377930E-2
2.318361836E0,1.065063477E-2,-1.733398438E-2,1.637268066E-2
2.323397236E0,1.072692871E-2,-2.799987793E-2,1.956176758E-2
2.328432636E0,1.174926758E-2,-3.881835938E-2,1.971435547E-2
2.333468037E0,1.179504395E-2,-4.754638672E-2,1.971435547E-2
2.338503437E0,1.179504395E-2,-4.881286621E-2,2.078247070E-2
2.343538838E0,1.071166992E-2,-4.129028320E-2,2.185058594E-2
2.348574238E0,8.560180664E-3,-3.158569336E-2,2.081298828E-2
2.353609638E0,7.553100586E-3,-2.412414551E-2,2.185058594E-2
2.358645039E0,8.590698242E-3,-1.988220215E-2,2.185058594E-2
2.363680439E0,8.651733398E-3,-1.811218262E-2,2.198791504E-2
2.368715840E0,9.567260742E-3,-2.250671387E-2,2.407836914E-2
2.373751240E0,8.682250977E-3,-2.774047852E-2,2.534484863E-2
2.378786640E0,9.536743164E-3,-3.077697754E-2,2.825927734E-2
2.383822041E0,8.453369141E-3,-3.186035156E-2,2.839660645E-2
2.388857441E0,7.522583008E-3,-3.321838379E-2,2.961730957E-2
2.393892842E0,7.202148438E-3,-3.646850586E-2,3.146362305E-2
2.398928242E0,5.386352539E-3,-3.852844238E-2,3.181457520E-2
2.403963642E0,5.187988281E-3,-3.456115723E-2,3.359985352E-2
2.408999043E0,3.723144531E-3,-3.260803223E-2,3.359985352E-2
2.414034443E0,9.002685547E-4,-3.236389160E-2,3.381347656E-2
2.419069843E0,-1.983642578E-4,-3.517150879E-2,3.514099121E-2
2.424105244E0,-1.510620117E-3,-3.552246094E-2,3.657531738E-2
2.429140644E0,-3.417968750E-3,-3.309631348E-2,3.573608398E-2
2.434176045E0,-4.501342773E-3,-2.958679199E-2,3.573608398E-2
2.439211445E0,-5.020141602E-3,-2.581787109E-2,3.573608398E-2
2.444246845E0,-3.936767578E-3,-2.516174316E-2,3.604125977E-2
2.449282246E0,-3.479003906E-3,-2.935791016E-2,3.680419922E-2
2.454317646E0,-4.562377930E-3,-3.651428223E-2,3.680419922E-2
2.459353047E0,-5.294799805E-3,-4.579162598E-2,3.646850586E-2
2.464388447E0,-4.943847656E-3,-5.561828613E-2,3.646850586E-2
2.469423847E0,-3.860473633E-3,-6.056213379E-2,3.900146484E-2
2.474459248E0,-2.777099609E-3,-5.821228027E-2,4.107666016E-2
2.479494648E0,-2.914428711E-3,-4.847717285E-2,4.107666016E-2
2.484530049E0,-5.065917969E-3,-3.417968750E-2,4.025268555E-2
2.489565449E0,-5.935668945E-3,-2.336120605E-2,3.938293457E-2
2.494600849E0,-5.752563477E-3,-1.936340332E-2,4.000854492E-2
2.499636250E0,-6.362915039E-3,-2.090454102E-2,3.955078125E-2
2.504671650E0,-6.851196289E-3,-2.593994141E-2,3.894042969E-2
2.509707051E0,-6.942749023E-3,-3.758239746E-2,3.993225098E-2
2.514742451E0,-5.859375000E-3,-5.174255371E-2,4.107666016E-2
2.519777851E0,-5.828857422E-3,-6.262207031E-2,4.107666016E-2
2.524813252E0,-7.980346680E-3,-6.752014160E-2,4.000854492E-2
2.529848652E0,-1.013183594E-2,-6.364440918E-2,3.784179688E-2
2.534884052E0,-1.177978516E-2,-5.099487305E-2,3.567504883E-2
2.539919453E0,-1.452636719E-2,-3.356933594E-2,3.408813477E-2
2.544954853E0,-1.777648926E-2,-1.936340332E-2,3.359985352E-2
2.549990254E0,-1.918029785E-2,-1.281738281E-2,3.300476074E-2
2.555025654E0,-1.918029785E-2,-1.457214355E-2,3.065490723E-2
2.560061054E0,-1.789855957E-2,-2.449035645E-2,2.998352051E-2
2.565096455E0,-1.443481445E-2,-4.269409180E-2,3.039550781E-2
2.570131855E0,-1.277160645E-2,-6.440734863E-2,3.039550781E-2
2.575167256E0,-1.208496094E-2,-7.919311523E-2,3.109741211E-2
2.580202656E0,-1.170349121E-2,-8.160400391E-2,3.007507324E-2
2.585238056E0,-1.098632812E-2,-7.151794434E-2,2.932739258E-2
2.590273457E0,-1.138305664E-2,-5.303955078E-2,2.786254883E-2
2.595308857E0,-1.170349121E-2,-3.622436523E-2,2.645874023E-2
2.600344258E0,-1.322937012E-2,-2.337646484E-2,2.461242676E-2
2.605379658E0,-1.307678223E-2,-1.687622070E-2,2.322387695E-2
2.610415058E0,-1.356506348E-2,-1.570129395E-2,2.055358887E-2
2.615450459E0,-1.464843750E-2,-2.215576172E-2,1.811218262E-2
2.620485859E0,-1.327514648E-2,-2.917480469E-2,1.594543457E-2
2.625521260E0,-1.277160645E-2,-3.233337402E-2,1.377868652E-2
2.630556660E0,-1.277160645E-2,-3.109741211E-2,1.330566406E-2
2.635592060E0,-1.191711426E-2,-3.411865234E-2,1.245117188E-2
2.640627461E0,-1.347351074E-2,-3.492736816E-2,9.613037109E-3
2.645662861E0,-1.473999023E-2,-3.134155273E-2,6.347656250E-3
2.650698261E0,-1.582336426E-2,-2.156066895E-2,4.013061523E-3
2.655733662E0,-1.597595215E-2,-1.258850098E-2,2.777099609E-3
2.660769062E0,-1.504516602E-2,-9.552001953E-3,1.693725586E-3
2.665804463E0,-1.300048828E-2,-1.025390625E-2,6.103515625E-4
2.670839863E0,-1.181030273E-2,-2.006530762E-2,4.882812500E-4
2.675875263E0,-1.170349121E-2,-3.480529785E-2,1.480102539E-3
2.680910664E0,-1.071166992E-2,-4.496765137E-2,1.556396484E-3
2.685946064E0,-8.605957031E-3,-4.968261719E-2,1.556396484E-3
2.690981465E0,-7.476806641E-3,-4.371643066E-2,1.556396484E-3
2.696016865E0,-8.483886719E-3,-3.097534180E-2,1.556396484E-3
2.701052265E0,-9.567260742E-3,-2.328491211E-2,-1.602172852E-3
2.706087666E0,-9.567260742E-3,-1.461791992E-2,-1.647949219E-3
2.711123066E0,-7.431030273E-3,-1.138305664E-2,-1.678466797E-3
2.716158467E0,-7.507324219E-3,-8.300781250E-3,-3.814697266E-3
2.721193867E0,-9.521484375E-3,-1.068115234E-2,-4.791259766E-3
2.726229267E0,-8.438110352E-3,-1.736450195E-2,-3.845214844E-3
2.731264668E0,-7.431030273E-3,-2.655029297E-2,-5.081176758E-3
2.736300068E0,-7.431030273E-3,-2.862548828E-2,-8.239746094E-3
2.741335468E0,-7.324218750E-3,-2.958679199E-2,-1.019287109E-2
2.746370869E0,-6.622314453E-3,-2.922058105E-2,-1.043701172E-2
2.751406269E0,-8.499145508E-3,-2.542114258E-2,-1.260375977E-2
2.756441670E0,-8.499145508E-3,-1.782226562E-2,-1.492309570E-2
2.761477070E0,-8.346557617E-3,-1.031494141E-2,-1.766967773E-2
2.766512470E0,-7.431030273E-3,-4.333496094E-3,-1.785278320E-2
2.771547871E0,-7.049560547E-3,-7.278442383E-3,-1.911926270E-2
2.776583271E0,-4.882812500E-3,-1.376342773E-2,-2.128601074E-2
2.781618672E0,-2.700805664E-3,-1.983642578E-2,-2.323913574E-2
2.786654072E0,-1.022338867E-3,-2.317810059E-2,-2.455139160E-2
2.791689472E0,-1.541137695E-3,-2.165222168E-2,-2.671813965E-2
2.796724873E0,-2.899169922E-3,-1.487731934E-2,-2.888488770E-2
2.801760273E0,-1.815795898E-3,-9.292602539E-3,-3.048706055E-2
2.806795674E0,-1.937866211E-3,-9.597778320E-3,-3.048706055E-2
2.811831074E0,-3.585815430E-3,-1.101684570E-2,-3.048706055E-2
2.816866474E0,-2.426147461E-3,-1.249694824E-2,-3.114318848E-2
2.821901875E0,-3.509521484E-3,-1.145935059E-2,-3.366088867E-2
2.826937275E0,-4.226684570E-3,-7.141113281E-3,-3.546142578E-2
2.831972676E0,-4.608154297E-3,-2.136230469E-3,-3.512573242E-2
2.837008076E0,-5.294799805E-3,4.272460938E-4,-3.660583496E-2
2.842043476E0,-5.294799805E-3,3.265380859E-3,-3.877258301E-2
2.847078877E0,-6.576538086E-3,5.004882812E-3,-4.093933105E-2
2.852114277E0,-9.384155273E-3,3.463745117E-3,-4.266357422E-2
2.857149677E0,-1.019287109E-2,-5.111694336E-3,-4.330444336E-2
2.862185078E0,-9.109497070E-3,-1.855468750E-2,-4.283142090E-2
2.867220478E0,-8.026123047E-3,-2.832031250E-2,-4.319763184E-2
2.872255879E0,-7.431030273E-3,-2.867126465E-2,-4.536437988E-2
2.877291279E0,-7.431030273E-3,-2.435302734E-2,-4.701232910E-2
2.882326679E0,-7.965087891E-3,-2.105712891E-2,-4.809570312E-2
2.887362080E0,-7.965087891E-3,-1.889038086E-2,-4.972839355E-2
2.892397480E0,-8.560180664E-3,-1.506042480E-2,-5.133056641E-2
2.897432881E0,-9.002685547E-3,-7.339477539E-3,-5.184936523E-2
2.902468281E0,-8.499145508E-3,1.235961914E-3,-5.360412598E-2
2.907503681E0,-7.904052734E-3,5.798339844E-3,-5.505371094E-2
2.912539082E0,-6.820678711E-3,3.646850586E-3,-5.505371094E-2
2.917574482E0,-5.111694336E-3,-3.646850586E-3,-5.378723145E-2
2.922609883E0,-4.226684570E-3,-1.039123535E-2,-5.096435547E-2
2.927645283E0,-4.898071289E-3,-1.118469238E-2,-5.036926270E-2
2.932680683E0,-7.324218750E-3,-7.675170898E-3,-4.942321777E-2
2.937716084E0,-8.499145508E-3,-1.937866211E-3,-4.864501953E-2
2.942751484E0,-9.216308594E-3,3.143310547E-3,-4.934692383E-2
2.947786885E0,-1.101684570E-2,6.027221680E-3,-4.898071289E-2
2.952822285E0,-1.245117188E-2,3.784179688E-3,-4.864501953E-2
2.957857685E0,-1.277160645E-2,-5.645751953E-4,-4.864501953E-2
2.962893086E0,-1.354980469E-2,-3.356933594E-3,-4.940795898E-2
2.967928486E0,-1.541137695E-2,-5.523681641E-3,-4.814147949E-2
2.972963886E0,-1.597595215E-2,-3.723144531E-3,-4.835510254E-2
2.977999287E0,-1.516723633E-2,3.509521484E-4,-4.864501953E-2
2.983034687E0,-1.408386230E-2,6.332397461E-3,-4.864501953E-2
2.988070088E0,-1.383972168E-2,1.197814941E-2,-4.946899414E-2
2.993105488E0,-1.383972168E-2,1.313781738E-2,-5.056762695E-2
2.998140888E0,-1.296997070E-2,7.904052734E-3,-5.165100098E-2
3.003176289E0,-1.190185547E-2,4.959106445E-3,-5.184936523E-2
3.008211689E0,-9.918212891E-3,2.792358398E-3,-5.094909668E-2
3.013247090E0,-8.666992188E-3,7.003784180E-3,-4.986572266E-2
3.018282490E0,-8.499145508E-3,1.057434082E-2,-4.971313477E-2
3.023317890E0,-8.499145508E-3,1.005554199E-2,-4.971313477E-2
3.028353291E0,-1.042175293E-2,8.010864258E-3,-4.971313477E-2
3.033388691E0,-9.674072266E-3,8.758544922E-3,-5.067443848E-2
3.038424092E0,-9.567260742E-3,8.865356445E-3,-4.978942871E-2
3.043459492E0,-1.057434082E-2,8.865356445E-3,-4.971313477E-2
3.048494892E0,-1.268005371E-2,9.872436523E-3,-4.766845703E-2
3.053530293E0,-1.484680176E-2,1.303100586E-2,-4.653930664E-2
3.058565693E0,-1.596069336E-2,1.417541504E-2,-4.545593262E-2
3.063601093E0,-1.702880859E-2,1.420593262E-2,-4.544067383E-2
3.068636494E0,-1.919555664E-2,1.417541504E-2,-4.544067383E-2
3.073671894E0,-2.131652832E-2,1.091003418E-2,-4.644775391E-2
3.078707295E0,-2.131652832E-2,7.949829102E-3,-4.432678223E-2
3.083742695E0,-2.142333984E-2,1.243591309E-2,-4.335021973E-2
3.088778095E0,-2.333068848E-2,1.966857910E-2,-4.437255859E-2
3.093813496E0,-2.140808105E-2,2.149963379E-2,-4.428100586E-2
3.098848896E0,-2.209472656E-2,1.904296875E-2,-4.330444336E-2
3.103884297E0,-1.907348633E-2,1.374816895E-2,-4.318237305E-2
3.108919697E0,-1.811218262E-2,1.005554199E-2,-4.223632812E-2
3.113955097E0,-1.826477051E-2,1.127624512E-2,-4.208374023E-2
3.118990498E0,-1.918029785E-2,1.359558105E-2,-4.100036621E-2
3.124025898E0,-1.918029785E-2,1.634216309E-2,-3.974914551E-2
3.129061299E0,-1.899719238E-2,1.614379883E-2,-3.739929199E-2
3.134096699E0,-1.811218262E-2,1.608276367E-2,-3.434753418E-2
3.139132099E0,-1.855468750E-2,1.954650879E-2,-3.239440918E-2
3.144167500E0,-2.049255371E-2,1.884460449E-2,-3.108215332E-2
3.149202900E0,-2.180480957E-2,1.463317871E-2,-2.868652344E-2
3.154238301E0,-2.398681641E-2,7.812500000E-3,-2.621459961E-2
3.159273701E0,-2.615356445E-2,4.867553711E-3,-2.621459961E-2
3.164309101E0,-2.803039551E-2,6.240844727E-3,-2.650451660E-2
3.169344502E0,-2.941894531E-2,6.561279297E-3,-2.665710449E-2
3.174379902E0,-3.126525879E-2,3.845214844E-3,-2.416992188E-2
3.179415302E0,-3.266906738E-2,5.584716797E-3,-2.127075195E-2
3.184450703E0,-3.483581543E-2,1.022338867E-2,-2.049255371E-2
3.189486103E0,-3.663635254E-2,1.707458496E-2,-2.157592773E-2
3.194521504E0,-3.810119629E-2,2.061462402E-2,-2.087402344E-2
3.199556904E0,-3.909301758E-2,1.824951172E-2,-2.087402344E-2
3.204592304E0,-3.881835938E-2,1.135253906E-2,-2.046203613E-2
3.209627705E0,-3.863525391E-2,5.462646484E-3,-1.895141602E-2
3.214663105E0,-3.646850586E-2,3.524780273E-3,-1.809692383E-2
3.219698506E0,-3.475952148E-2,3.524780273E-3,-1.828002930E-2
3.224733906E0,-3.367614746E-2,3.051757812E-3,-1.672363281E-2
3.229769306E0,-3.259277344E-2,3.417968750E-3,-1.600646973E-2
3.234804707E0,-3.300476074E-2,7.080078125E-3,-1.609802246E-2
3.239840107E0,-3.413391113E-2,1.043701172E-2,-1.451110840E-2
3.244875508E0,-3.413391113E-2,1.257324219E-2,-1.339721680E-2
3.249910908E0,-3.468322754E-2,1.582336426E-2,-1.284790039E-2
3.254946308E0,-3.465270996E-2,1.573181152E-2,-1.176452637E-2
3.259981709E0,-3.527832031E-2,1.077270508E-2,-1.011657715E-2
3.265017109E0,-3.686523438E-2,5.462646484E-3,-8.529663086E-3
3.270052510E0,-3.794860840E-2,6.515502930E-3,-8.056640625E-3
3.275087910E0,-3.903198242E-2,1.132202148E-2,-8.056640625E-3
3.280123310E0,-4.074096680E-2,1.249694824E-2,-8.056640625E-3
3.285158711E0,-4.096984863E-2,8.834838867E-3,-7.400512695E-3
3.290194111E0,-4.054260254E-2,6.729125977E-3,-6.317138672E-3
3.295229511E0,-4.122924805E-2,1.010131836E-2,-5.233764648E-3
3.300264912E0,-3.886413574E-2,1.481628418E-2,-4.852294922E-3
3.305300312E0,-3.804016113E-2,1.564025879E-2,-5.538940430E-3
3.310335713E0,-3.697204590E-2,1.239013672E-2,-5.920410156E-3
3.315371113E0,-3.480529785E-2,1.319885254E-2,-5.172729492E-3
3.320406513E0,-3.340148926E-2,1.792907715E-2,-4.852294922E-3
3.325441914E0,-3.231811523E-2,2.182006836E-2,-3.326416016E-3
3.330477314E0,-3.123474121E-2,2.197265625E-2,-1.937866211E-3
3.335512715E0,-2.935791016E-2,1.454162598E-2,-1.647949219E-3
3.340548115E0,-2.799987793E-2,5.615234375E-3,-3.051757812E-5
3.345583515E0,-2.691650391E-2,2.700805664E-3,1.312255859E-3
3.350618916E0,-2.583312988E-2,4.959106445E-3,1.556396484E-3
3.355654316E0,-2.558898926E-2,9.063720703E-3,1.556396484E-3
3.360689717E0,-2.558898926E-2,8.193969727E-3,2.426147461E-3
3.365725117E0,-2.473449707E-2,5.187988281E-3,3.494262695E-3
3.370760517E0,-2.542114258E-2,3.692626953E-3,4.592895508E-3
3.375795918E0,-2.468872070E-2,7.156372070E-3,4.760742188E-3
3.380831318E0,-2.638244629E-2,1.615905762E-2,6.622314453E-3
3.385866718E0,-2.760314941E-2,2.307128906E-2,6.896972656E-3
3.390902119E0,-2.677917480E-2,2.189636230E-2,7.858276367E-3
3.395937519E0,-2.763366699E-2,1.293945312E-2,7.965087891E-3
3.400972920E0,-2.377319336E-2,1.983642578E-4,9.948730469E-3
3.406008320E0,-2.044677734E-2,-9.780883789E-3,1.010131836E-2
3.411043720E0,-1.924133301E-2,-9.353637695E-3,1.010131836E-2
3.416079121E0,-1.918029785E-2,-5.187988281E-3,1.319885254E-2
3.421114521E0,-1.708984375E-2,1.266479492E-3,1.016235352E-2
3.426149922E0,-1.599121094E-2,5.630493164E-3,1.010131836E-2
3.431185322E0,-1.704406738E-2,8.880615234E-3,1.118469238E-2
3.436220722E0,-1.702880859E-2,1.313781738E-2,1.330566406E-2
3.441256123E0,-1.602172852E-2,1.293945312E-2,1.335144043E-2
3.446291523E0,-1.695251465E-2,7.522583008E-3,1.443481445E-2
3.451326924E0,-1.490783691E-2,2.120971680E-3,1.538085938E-2
3.456362324E0,-1.499938965E-2,-3.402709961E-3,1.437377930E-2
3.461397724E0,-1.588439941E-2,-9.994506836E-3,1.448059082E-2
3.466433125E0,-1.469421387E-2,-1.722717285E-2,1.544189453E-2
3.471468525E0,-1.303100586E-2,-2.091979980E-2,1.519775391E-2
3.476503926E0,-1.477050781E-2,-1.846313477E-2,1.316833496E-2
3.481539326E0,-1.368713379E-2,-5.401611328E-3,1.193237305E-2
3.486574726E0,-1.260375977E-2,1.167297363E-2,9.597778320E-3
3.491610127E0,-1.115417480E-2,1.342773438E-2,6.713867188E-3
3.496645527E0,-8.102416992E-3,1.342773438E-3,6.042480469E-3
3.501680927E0,-6.149291992E-3,-1.466369629E-2,7.339477539E-3
3.506716328E0,-5.065917969E-3,-2.294921875E-2,8.804321289E-3
3.511751728E0,-4.470825195E-3,-2.090454102E-2,7.965087891E-3
3.516787129E0,-5.035400391E-3,-1.704406738E-2,7.965087891E-3
3.521822529E0,-3.677368164E-3,-1.812744141E-2,7.965087891E-3
3.526857929E0,-1.510620117E-3,-1.832580566E-2,7.675170898E-3
3.531893330E0,3.509521484E-4,-1.615905762E-2,6.896972656E-3
3.536928730E0,1.113891602E-3,-1.431274414E-2,7.232666016E-3
3.541964131E0,1.434326172E-3,-1.591491699E-2,8.636474609E-3
3.546999531E0,2.868652344E-3,-2.349853516E-2,1.010131836E-2
3.552034931E0,5.050659180E-3,-2.926635742E-2,1.048278809E-2
3.557070332E0,6.820678711E-3,-2.761840820E-2,1.155090332E-2
3.562105732E0,7.904052734E-3,-1.855468750E-2,1.145935059E-2
3.567141133E0,8.590698242E-3,-9.613037109E-3,1.010131836E-2
3.572176533E0,9.429931641E-3,-3.753662109E-3,8.834838867E-3
3.577211933E0,1.203918457E-2,-3.143310547E-3,6.027221680E-3
3.582247334E0,1.483154297E-2,-1.048278809E-2,4.318237305E-3
3.587282734E0,1.699829102E-2,-2.114868164E-2,2.761840820E-3
3.592318135E0,1.916503906E-2,-2.920532227E-2,1.556396484E-3
3.597353535E0,2.082824707E-2,-3.436279297E-2,1.068115234E-3
3.602388935E0,2.191162109E-2,-3.492736816E-2,4.882812500E-4
3.607424336E0,2.247619629E-2,-3.387451172E-2,-5.645751953E-4
3.612459736E0,2.247619629E-2,-2.790832520E-2,-2.731323242E-3
3.617495136E0,2.191162109E-2,-1.646423340E-2,-4.333496094E-3
3.622530537E0,2.197265625E-2,-8.636474609E-3,-4.852294922E-3
3.627565937E0,2.305603027E-2,-1.011657715E-2,-4.852294922E-3
3.632601338E0,2.293395996E-2,-1.612854004E-2,-4.852294922E-3
3.637636738E0,2.185058594E-2,-1.953125000E-2,-4.852294922E-3
3.642672138E0,2.140808105E-2,-2.061462402E-2,-4.852294922E-3
3.647707539E0,2.270507812E-2,-2.558898926E-2,-2.243041992E-3
3.652742939E0,2.420043945E-2,-2.984619141E-2,7.476806641E-4
3.657778340E0,2.392578125E-2,-2.590942383E-2,1.556396484E-3
3.662813740E0,2.423095703E-2,-1.484680176E-2,8.697509766E-4
3.667849140E0,2.600097656E-2,-1.281738281E-3,-9.002685547E-4
3.672884541E0,2.601623535E-2,7.843017578E-3,-9.155273438E-4
3.677919941E0,2.641296387E-2,1.066589355E-2,-2.059936523E-3
3.682955342E0,2.749633789E-2,4.959106445E-3,-2.716064453E-3
3.687990742E0,3.164672852E-2,-3.677368164E-3,-2.716064453E-3
3.693026142E0,3.315734863E-2,-1.232910156E-2,-2.716064453E-3
3.698061543E0,3.315734863E-2,-2.421569824E-2,-3.509521484E-3
3.703096943E0,3.558349609E-2,-3.396606445E-2,-3.784179688E-3
3.708132343E0,3.636169434E-2,-4.347229004E-2,-6.271362305E-3
3.713167744E0,3.804016113E-2,-4.393005371E-2,-7.827758789E-3
3.718203144E0,4.020690918E-2,-3.660583496E-2,-8.911132812E-3
3.723238545E0,3.974914551E-2,-2.447509766E-2,-8.239746094E-3
3.728273945E0,3.868103027E-2,-1.681518555E-2,-9.811401367E-3
3.733309345E0,3.849792480E-2,-1.480102539E-2,-1.019287109E-2
3.738344746E0,3.849792480E-2,-1.739501953E-2,-9.262084961E-3
3.743380146E0,3.756713867E-2,-1.692199707E-2,-1.004028320E-2
3.748415547E0,3.648376465E-2,-1.300048828E-2,-1.019287109E-2
3.753450947E0,3.538513184E-2,-8.651733398E-3,-1.211547852E-2
3.758486347E0,3.529357910E-2,-7.263183594E-3,-1.037597656E-2
3.763521748E0,3.529357910E-2,-7.156372070E-3,-8.209228516E-3
3.768557148E0,3.529357910E-2,-6.164550781E-3,-8.056640625E-3
3.773592549E0,3.427124023E-2,-7.110595703E-3,-7.034301758E-3
3.778627949E0,3.628540039E-2,-8.193969727E-3,-6.988525391E-3
3.783663349E0,3.425598145E-2,-1.033020020E-2,-6.988525391E-3
3.788698750E0,3.422546387E-2,-1.036071777E-2,-4.852294922E-3
3.793734150E0,3.419494629E-2,-9.277343750E-3,-4.852294922E-3
3.798769551E0,3.208923340E-2,-7.141113281E-3,-4.898071289E-3
3.803804951E0,3.208923340E-2,-6.134033203E-3,-7.019042969E-3
3.808840351E0,3.202819824E-2,-7.217407227E-3,-8.056640625E-3
3.813875752E0,3.079223633E-2,-8.010864258E-3,-8.193969727E-3
3.818911152E0,2.798461914E-2,-4.608154297E-3,-1.010131836E-2
3.823946552E0,3.004455566E-2,5.035400391E-4,-9.414672852E-3
3.828981953E0,3.089904785E-2,2.563476562E-3,-1.232910156E-2
3.834017353E0,3.021240234E-2,2.990722656E-3,-1.205444336E-2
3.839052754E0,3.208923340E-2,-1.617431641E-3,-1.033020020E-2
3.844088154E0,3.239440918E-2,-7.797241211E-3,-1.126098633E-2
3.849123554E0,3.422546387E-2,-1.214599609E-2,-1.126098633E-2
3.854158955E0,3.364562988E-2,-1.551818848E-2,-1.126098633E-2
3.859194355E0,3.060913086E-2,-1.281738281E-2,-1.104736328E-2
3.864229756E0,2.865600586E-2,-2.639770508E-3,-1.040649414E-2
3.869265156E0,2.804565430E-2,8.605957031E-3,-1.148986816E-2
3.874300556E0,2.862548828E-2,1.527404785E-2,-1.257324219E-2
3.879335957E0,2.702331543E-2,1.394653320E-2,-1.312255859E-2
3.884371357E0,2.516174316E-2,8.239746094E-3,-1.176452637E-2
3.889406758E0,2.674865723E-2,2.044677734E-3,-9.887695312E-3
3.894442158E0,2.674865723E-2,-3.051757812E-3,-9.124755859E-3
3.899477558E0,2.706909180E-2,-7.064819336E-3,-9.445190430E-3
3.904512959E0,2.713012695E-2,-8.621215820E-3,-1.019287109E-2
3.909548359E0,2.496337891E-2,-6.454467773E-3,-9.826660156E-3
3.914583760E0,2.354431152E-2,-3.555297852E-3,-9.124755859E-3
3.919619160E0,2.354431152E-2,-7.476806641E-4,-9.506225586E-3
3.924654560E0,2.273559570E-2,-1.159667969E-3,-9.780883789E-3
3.929689961E0,2.140808105E-2,-3.067016602E-3,-9.124755859E-3
3.934725361E0,2.140808105E-2,-5.889892578E-3,-8.682250977E-3
3.939760761E0,2.185058594E-2,-6.271362305E-3,-8.056640625E-3
3.944796162E0,2.200317383E-2,-1.815795898E-3,-8.056640625E-3
3.949831562E0,2.046203613E-2,6.225585938E-3,-7.583618164E-3
3.954866963E0,1.927185059E-2,1.391601562E-2,-6.500244141E-3
3.959902363E0,1.824951172E-2,1.689147949E-2,-5.920410156E-3
3.964937763E0,1.763916016E-2,1.115417480E-2,-5.920410156E-3
3.969973164E0,1.820373535E-2,-1.525878906E-4,-4.333496094E-3
3.975008564E0,1.873779297E-2,-1.208496094E-2,-2.716064453E-3
3.980043965E0,1.927185059E-2,-2.066040039E-2,-3.829956055E-3
3.985079365E0,1.983642578E-2,-2.261352539E-2,-5.416870117E-3
3.990114765E0,1.856994629E-2,-1.858520508E-2,-5.325317383E-3
3.995150166E0,1.530456543E-2,-1.025390625E-2,-5.447387695E-3
4.000185566E0,1.393127441E-2,-1.113891602E-3,-4.669189453E-3
4.005220967E0,1.202392578E-2,5.630493164E-3,-3.784179688E-3
4.010256367E0,1.007080078E-2,9.735107422E-3,-3.128051758E-3
4.015291767E0,9.658813477E-3,9.658813477E-3,-1.373291016E-3
4.020327168E0,7.614135742E-3,8.865356445E-3,1.068115234E-4
4.025362568E0,5.752563477E-3,6.774902344E-3,1.190185547E-3
4.030397968E0,3.952026367E-3,2.090454102E-3,2.273559570E-3
4.035433369E0,3.250122070E-3,-1.144409180E-3,3.356933594E-3
4.040468769E0,2.502441406E-3,-3.356933594E-4,5.187988281E-3
4.045504170E0,1.419067383E-3,2.578735352E-3,6.591796875E-3
4.050539570E0,3.356933594E-4,4.287719727E-3,6.896972656E-3
4.055574970E0,-7.476806641E-4,4.592895508E-3,6.896972656E-3
4.060610371E0,-2.288818359E-4,2.990722656E-3,7.705688477E-3
4.065645771E0,4.577636719E-5,-1.617431641E-3,7.156372070E-3
4.070681172E0,4.577636719E-5,-7.049560547E-3,7.736206055E-3
4.075716572E0,4.577636719E-5,-7.385253906E-3,7.965087891E-3
4.080751972E0,4.577636719E-5,-5.447387695E-3,7.110595703E-3
4.085787373E0,4.577636719E-5,-3.280639648E-3,6.896972656E-3
4.090822773E0,4.577636719E-5,-2.288818359E-4,7.797241211E-3
4.095858174E0,-1.770019531E-3,4.837036133E-3,7.064819336E-3
4.100893574E0,-3.936767578E-3,9.323120117E-3,7.827758789E-3
4.105928974E0,-5.157470703E-3,1.364135742E-2,7.965087891E-3
4.110964375E0,-7.202148438E-3,1.515197754E-2,7.019042969E-3
4.115999775E0,-7.431030273E-3,1.141357422E-2,6.896972656E-3
4.121035176E0,-8.407592773E-3,7.095336914E-3,8.850097656E-3
4.126070576E0,-1.049804688E-2,3.738403320E-3,9.033203125E-3
4.131105976E0,-1.165771484E-2,3.524780273E-3,1.005554199E-2
4.136141377E0,-1.170349121E-2,7.598876953E-3,9.094238281E-3
4.141176777E0,-1.274108887E-2,8.819580078E-3,9.033203125E-3
4.146212177E0,-1.171875000E-2,9.918212891E-3,9.033203125E-3
4.151247578E0,-1.383972168E-2,6.729125977E-3,1.010131836E-2
4.156282978E0,-1.490783691E-2,4.592895508E-3,1.008605957E-2
4.161318379E0,-1.489257812E-2,4.592895508E-3,7.965087891E-3
4.166353779E0,-1.390075684E-2,4.486083984E-3,8.071899414E-3
4.171389179E0,-1.486206055E-2,2.563476562E-3,1.022338867E-2
4.176424580E0,-1.383972168E-2,4.730224609E-3,1.217651367E-2
4.181459980E0,-1.412963867E-2,7.003784180E-3,1.127624512E-2
4.186495381E0,-1.704406738E-2,9.719848633E-3,1.223754883E-2
4.191530781E0,-1.693725586E-2,7.797241211E-3,1.235961914E-2
4.196566181E0,-1.597595215E-2,7.797241211E-3,1.318359375E-2
4.201601582E0,-1.628112793E-2,7.934570312E-3,1.210021973E-2
4.206636982E0,-1.828002930E-2,9.353637695E-3,1.116943359E-2
4.211672383E0,-1.918029785E-2,1.223754883E-2,1.135253906E-2
4.216707783E0,-1.937866211E-2,1.332092285E-2,1.223754883E-2
4.221743183E0,-2.005004883E-2,1.399230957E-2,1.245117188E-2
4.226778584E0,-1.918029785E-2,1.268005371E-2,1.309204102E-2
4.231813984E0,-1.895141602E-2,1.100158691E-2,1.200866699E-2
4.236849385E0,-1.811218262E-2,1.074218750E-2,1.092529297E-2
4.241884785E0,-1.785278320E-2,8.850097656E-3,1.037597656E-2
4.246920185E0,-1.733398438E-2,3.967285156E-3,1.089477539E-2
4.251955586E0,-1.782226562E-2,-2.227783203E-3,9.521484375E-3
4.256990986E0,-1.736450195E-2,-5.172729492E-3,7.659912109E-3
4.262026386E0,-1.876831055E-2,3.814697266E-4,6.576538086E-3
4.267061787E0,-2.024841309E-2,1.019287109E-2,5.157470703E-3
4.272097187E0,-1.989746094E-2,1.527404785E-2,3.341674805E-3
4.277132588E0,-1.954650879E-2,1.454162598E-2,2.624511719E-3
4.282167988E0,-1.986694336E-2,1.196289062E-2,3.021240234E-3
4.287203388E0,-1.959228516E-2,7.522583008E-3,3.692626953E-3
4.292238789E0,-2.067565918E-2,2.273559570E-3,3.692626953E-3
4.297274189E0,-2.131652832E-2,-1.419067383E-3,3.692626953E-3
4.302309590E0,-2.087402344E-2,-3.952026367E-3,5.035400391E-3
4.307344990E0,-1.979064941E-2,-3.036499023E-3,5.981445312E-3
4.312380390E0,-1.870727539E-2,-1.342773438E-3,4.760742188E-3
4.317415791E0,-1.910400391E-2,2.288818359E-4,4.760742188E-3
4.322451191E0,-2.024841309E-2,1.892089844E-3,4.760742188E-3
4.327486592E0,-1.972961426E-2,3.494262695E-3,4.241943359E-3
4.332521992E0,-1.918029785E-2,2.975463867E-3,4.241943359E-3
4.337557392E0,-1.918029785E-2,8.239746094E-4,3.662109375E-3
4.342592793E0,-1.918029785E-2,-2.441406250E-4,1.510620117E-3
4.347628193E0,-1.861572266E-2,-1.907348633E-3,4.882812500E-4
4.352663593E0,-1.811218262E-2,-4.074096680E-3,-9.155273438E-5
4.357698994E0,-1.872253418E-2,-6.851196289E-3,-1.174926758E-3
4.362734394E0,-1.980590820E-2,-7.614135742E-3,-1.022338867E-3
4.367769795E0,-2.088928223E-2,-5.889892578E-3,-5.798339844E-4
4.372805195E0,-2.131652832E-2,-3.723144531E-3,-1.220703125E-3
4.377840595E0,-2.198791504E-2,-2.136230469E-4,-3.646850586E-3
4.382875996E0,-2.238464355E-2,4.791259766E-3,-5.523681641E-3
4.387911396E0,-2.308654785E-2,8.819580078E-3,-8.010864258E-3
4.392946797E0,-2.488708496E-2,7.781982422E-3,-8.407592773E-3
4.397982197E0,-2.487182617E-2,1.632690430E-3,-7.324218750E-3
4.403017597E0,-2.378845215E-2,-8.163452148E-3,-8.468627930E-3
4.408052998E0,-2.270507812E-2,-1.446533203E-2,-9.872436523E-3
4.413088398E0,-2.238464355E-2,-1.803588867E-2,-9.414672852E-3
4.418123799E0,-2.081298828E-2,-2.128601074E-2,-7.537841797E-3
4.423159199E0,-1.864624023E-2,-2.131652832E-2,-6.988525391E-3
4.428194599E0,-1.811218262E-2,-1.695251465E-2,-6.988525391E-3
4.433230000E0,-1.811218262E-2,-1.071166992E-2,-7.812500000E-3
4.438265400E0,-1.811218262E-2,-8.453369141E-3,-8.895874023E-3
4.443300801E0,-1.638793945E-2,-8.224487305E-3,-9.979248047E-3
4.448336201E0,-1.510620117E-2,-5.599975586E-3,-1.106262207E-2
4.453371601E0,-1.490783691E-2,-4.135131836E-3,-1.214599609E-2
4.458407002E0,-1.490783691E-2,-5.767822266E-3,-1.322937012E-2
4.463442402E0,-1.399230957E-2,-1.071166992E-2,-1.246643066E-2
4.468477802E0,-1.383972168E-2,-1.799011230E-2,-1.045227051E-2
4.473513203E0,-1.194763184E-2,-2.175903320E-2,-1.019287109E-2
4.478548603E0,-1.268005371E-2,-2.308654785E-2,-1.213073730E-2
4.483584004E0,-1.179504395E-2,-1.826477051E-2,-1.330566406E-2
4.488619404E0,-1.170349121E-2,-7.888793945E-3,-1.538085938E-2
4.493654804E0,-1.069641113E-2,-1.113891602E-3,-1.654052734E-2
4.498690205E0,-9.613037109E-3,2.746582031E-4,-1.556396484E-2
4.503725605E0,-9.567260742E-3,4.486083984E-3,-1.448059082E-2
4.508761006E0,-8.514404297E-3,4.592895508E-3,-1.551818848E-2
4.513796406E0,-8.499145508E-3,2.395629883E-3,-1.446533203E-2
4.518831806E0,-8.468627930E-3,-5.065917969E-3,-1.446533203E-2
4.523867207E0,-6.362915039E-3,-7.125854492E-3,-1.449584961E-2
4.528902607E0,-6.317138672E-3,-6.149291992E-3,-1.562500000E-2
4.533938008E0,-5.294799805E-3,-7.156372070E-3,-1.766967773E-2
4.538973408E0,-5.218505859E-3,-7.476806641E-3,-1.766967773E-2
4.544008808E0,-4.226684570E-3,-1.190185547E-2,-1.756286621E-2
4.549044209E0,-4.135131836E-3,-1.708984375E-2,-1.649475098E-2
4.554079609E0,-3.295898438E-3,-1.985168457E-2,-1.577758789E-2
4.559115010E0,-3.952026367E-3,-1.863098145E-2,-1.751708984E-2
4.564150410E0,-2.090454102E-3,-1.632690430E-2,-1.689147949E-2
4.569185810E0,-2.273559570E-3,-1.255798340E-2,-1.873779297E-2
4.574221211E0,-3.158569336E-3,-6.439208984E-3,-1.890563965E-2
4.579256611E0,-3.356933594E-3,-1.770019531E-3,-1.998901367E-2
4.584292011E0,-4.226684570E-3,3.723144531E-3,-2.044677734E-2
4.589327412E0,-3.997802734E-3,5.050659180E-3,-1.896667480E-2
4.594362812E0,-2.685546875E-3,6.240844727E-3,-2.003479004E-2
4.599398213E0,-1.022338867E-3,2.548217773E-3,-2.087402344E-2
4.604433613E0,-4.882812500E-4,-7.476806641E-3,-2.059936523E-2
4.609469013E0,1.388549805E-3,-2.015686035E-2,-1.893615723E-2
4.614504414E0,1.876831055E-3,-2.819824219E-2,-1.660156250E-2
4.619539814E0,1.419067383E-3,-3.248596191E-2,-1.628112793E-2
4.624575215E0,2.182006836E-3,-3.007507324E-2,-1.553344727E-2
4.629610615E0,2.182006836E-3,-2.395629883E-2,-1.518249512E-2
4.634646015E0,2.182006836E-3,-1.675415039E-2,-1.481628418E-2
4.639681416E0,2.182006836E-3,-1.176452637E-2,-1.478576660E-2
4.644716816E0,2.182006836E-3,-9.979248047E-3,-1.377868652E-2
4.649752217E0,2.182006836E-3,-9.704589844E-3,-1.446533203E-2
4.654787617E0,2.593994141E-3,-1.162719727E-2,-1.403808594E-2
4.659823017E0,2.807617188E-3,-1.487731934E-2,-1.382446289E-2
4.664858418E0,3.524780273E-3,-1.856994629E-2,-1.446533203E-2
4.669893818E0,5.844116211E-3,-2.104187012E-2,-1.492309570E-2
4.674929218E0,6.454467773E-3,-2.104187012E-2,-1.457214355E-2
4.679964619E0,6.454467773E-3,-2.055358887E-2,-1.339721680E-2
4.685000019E0,6.958007812E-3,-1.947021484E-2,-1.287841797E-2
4.690035420E0,8.041381836E-3,-1.890563965E-2,-1.127624512E-2
4.695070820E0,9.658813477E-3,-1.783752441E-2,-1.019287109E-2
4.700106220E0,1.072692871E-2,-1.622009277E-2,-1.019287109E-2
4.705141621E0,1.014709473E-2,-1.457214355E-2,-8.468627930E-3
4.710177021E0,1.081848145E-2,-1.240539551E-2,-6.393432617E-3
4.715212422E0,1.179504395E-2,-1.023864746E-2,-5.920410156E-3
4.720247822E0,1.240539551E-2,-8.682250977E-3,-5.294799805E-3
4.725283222E0,1.411437988E-2,-6.973266602E-3,-3.585815430E-3
4.730318623E0,1.564025879E-2,-5.447387695E-3,-2.716064453E-3
4.735354023E0,1.737976074E-2,-7.003784180E-3,-2.716064453E-3
4.740389424E0,1.887512207E-2,-1.161193848E-2,-2.716064453E-3
4.745424824E0,1.995849609E-2,-1.632690430E-2,-1.327514648E-3
4.750460224E0,2.033996582E-2,-1.924133301E-2,1.220703125E-4
4.755495625E0,1.960754395E-2,-2.070617676E-2,-2.288818359E-4
4.760531025E0,1.852416992E-2,-1.884460449E-2,1.678466797E-4
4.765566426E0,1.820373535E-2,-1.486206055E-2,-2.441406250E-4
4.770601826E0,1.667785645E-2,-1.052856445E-2,1.831054688E-4
4.775637226E0,1.451110840E-2,-6.973266602E-3,-2.746582031E-4
4.780672627E0,1.393127441E-2,-8.468627930E-3,2.136230469E-4
4.785708027E0,1.472473145E-2,-1.252746582E-2,4.882812500E-4
4.790743427E0,1.333618164E-2,-1.770019531E-2,-3.356933594E-4
4.795778828E0,1.286315918E-2,-2.058410645E-2,-1.403808594E-3
4.800814228E0,1.455688477E-2,-2.104187012E-2,-7.934570312E-4
4.805849629E0,1.499938965E-2,-1.843261719E-2,-5.798339844E-4
4.810885029E0,1.411437988E-2,-1.519775391E-2,-1.449584961E-3
4.815920429E0,1.393127441E-2,-9.246826172E-3,1.525878906E-4
4.820955830E0,1.483154297E-2,-9.140014648E-3,1.403808594E-3
4.825991230E0,1.684570312E-2,-1.115417480E-2,2.487182617E-3
4.831026631E0,1.995849609E-2,-1.142883301E-2,2.624511719E-3
4.836062031E0,1.937866211E-2,-1.335144043E-2,2.624511719E-3
4.841097431E0,2.217102051E-2,-1.551818848E-2,4.577636719E-3
4.846132832E0,2.442932129E-2,-1.472473145E-2,7.720947266E-3
4.851168232E0,2.461242676E-2,-1.364135742E-2,8.972167969E-3
4.856203633E0,2.561950684E-2,-1.052856445E-2,1.005554199E-2
4.861239033E0,2.464294434E-2,-1.139831543E-2,1.216125488E-2
4.866274433E0,2.461242676E-2,-8.285522461E-3,1.119995117E-2
4.871309834E0,2.566528320E-2,-3.982543945E-3,1.116943359E-2
4.876345234E0,2.459716797E-2,-1.815795898E-3,1.011657715E-2
4.881380635E0,2.354431152E-2,-1.846313477E-3,1.223754883E-2
4.886416035E0,2.349853516E-2,-5.126953125E-3,1.116943359E-2
4.891451435E0,2.247619629E-2,-8.499145508E-3,1.116943359E-2
4.896486836E0,2.239990234E-2,-1.370239258E-2,1.116943359E-2
4.901522236E0,2.131652832E-2,-1.547241211E-2,1.126098633E-2
4.906557636E0,2.014160156E-2,-1.211547852E-2,1.205444336E-2
4.911593037E0,1.820373535E-2,-7.904052734E-3,9.887695312E-3
4.916628437E0,1.794433594E-2,-5.279541016E-3,7.965087891E-3
4.921663838E0,1.606750488E-2,-7.019042969E-3,8.117675781E-3
4.926699238E0,1.606750488E-2,-5.783081055E-3,8.880615234E-3
4.931734638E0,1.606750488E-2,-3.952026367E-3,7.965087891E-3
4.936770039E0,1.625061035E-2,-4.516601562E-3,8.163452148E-3
4.941805439E0,1.713562012E-2,-7.980346680E-3,9.033203125E-3
4.946840840E0,1.734924316E-2,-1.187133789E-2,9.689331055E-3
4.951876240E0,1.843261719E-2,-1.242065430E-2,1.223754883E-2
4.956911640E0,1.976013184E-2,-7.232666016E-3,1.274108887E-2
4.961947041E0,2.218627930E-2,-2.914428711E-3,1.437377930E-2
4.966982441E0,2.461242676E-2,3.204345703E-4,1.493835449E-2
4.972017842E0,2.517700195E-2,-5.493164062E-4,1.708984375E-2
4.977053242E0,2.703857422E-2,-4.104614258E-3,1.956176758E-2
4.982088642E0,2.781677246E-2,-6.195068359E-3,2.185058594E-2
4.987124043E0,2.748107910E-2,-2.960205078E-3,2.119445801E-2
4.992159443E0,2.639770508E-2,-4.119873047E-4,2.006530762E-2
4.997194843E0,2.493286133E-2,-4.272460938E-4,2.005004883E-2
5.002230244E0,2.354431152E-2,-6.866455078E-4,1.864624023E-2
5.007265644E0,2.275085449E-2,2.166748047E-3,1.786804199E-2
5.012301045E0,2.099609375E-2,3.921508789E-3,1.611328125E-2
5.017336445E0,1.948547363E-2,5.004882812E-3,1.502990723E-2
5.022371845E0,1.687622070E-2,5.218505859E-3,1.481628418E-2
5.027407246E0,1.454162598E-2,5.035400391E-3,1.454162598E-2
5.032442646E0,1.393127441E-2,5.187988281E-3,1.190185547E-2
5.037478047E0,1.393127441E-2,2.639770508E-3,1.058959961E-2
5.042513447E0,1.393127441E-2,-6.866455078E-4,1.116943359E-2
5.047548847E0,1.443481445E-2,-1.815795898E-3,1.116943359E-2
5.052584248E0,1.499938965E-2,-1.815795898E-3,1.065063477E-2
5.057619648E0,1.553344727E-2,-1.983642578E-4,1.010131836E-2
5.062655049E0,1.550292969E-2,3.051757812E-3,1.066589355E-2
5.067690449E0,1.499938965E-2,5.737304688E-3,1.174926758E-2
5.072725849E0,1.440429688E-2,6.729125977E-3,1.165771484E-2
5.077761250E0,1.452636719E-2,4.913330078E-3,1.116943359E-2
5.082796650E0,1.560974121E-2,2.273559570E-3,1.116943359E-2
5.087832051E0,1.606750488E-2,-1.159667969E-3,1.116943359E-2
5.092867451E0,1.606750488E-2,-4.196166992E-3,1.182556152E-2
5.097902851E0,1.606750488E-2,-3.036499023E-3,1.223754883E-2
5.102938252E0,1.469421387E-2,2.136230469E-4,1.223754883E-2
5.107973652E0,1.252746582E-2,2.075195312E-3,1.364135742E-2
5.113009052E0,1.107788086E-2,2.456665039E-3,1.367187500E-2
5.118044453E0,9.262084961E-3,6.072998047E-3,1.258850098E-2
5.123079853E0,4.882812500E-3,1.148986816E-2,1.075744629E-2
5.128115254E0,1.739501953E-3,1.463317871E-2,8.605957031E-3
5.133150654E0,1.113891602E-3,1.371765137E-2,7.202148438E-3
5.138186054E0,1.113891602E-3,1.077270508E-2,5.325317383E-3
5.143221455E0,3.051757812E-4,5.935668945E-3,4.760742188E-3
5.148256855E0,-7.781982422E-4,1.327514648E-3,3.143310547E-3
5.153292256E0,-1.983642578E-4,3.204345703E-4,1.800537109E-3
5.158327656E0,1.724243164E-3,2.838134766E-3,-1.220703125E-4
5.163363056E0,3.036499023E-3,6.958007812E-3,-5.798339844E-4
5.168398457E0,4.119873047E-3,8.666992188E-3,-1.449584961E-3
5.173433857E0,4.318237305E-3,7.965087891E-3,-3.417968750E-3
5.178469258E0,5.218505859E-3,6.881713867E-3,-4.684448242E-3
5.183504658E0,5.386352539E-3,8.529663086E-3,-3.936767578E-3
5.188540058E0,5.386352539E-3,9.780883789E-3,-3.784179688E-3
5.193575459E0,5.386352539E-3,8.026123047E-3,-3.784179688E-3
5.198610859E0,5.386352539E-3,6.820678711E-3,-3.784179688E-3
5.203646260E0,5.386352539E-3,5.752563477E-3,-3.784179688E-3
5.208681660E0,5.386352539E-3,2.670288086E-3,-4.776000977E-3
5.213717060E0,4.364013672E-3,4.272460938E-4,-5.859375000E-3
5.218752461E0,3.295898438E-3,1.327514648E-3,-6.927490234E-3
5.223787861E0,2.197265625E-3,2.426147461E-3,-6.988525391E-3
5.228823261E0,-9.918212891E-4,4.562377930E-3,-9.094238281E-3
5.233858662E0,-3.158569336E-3,3.524780273E-3,-1.232910156E-2
5.238894062E0,-2.120971680E-3,5.661010742E-3,-1.232910156E-2
5.243929463E0,-4.287719727E-3,5.661010742E-3,-1.341247559E-2
5.248964863E0,-6.423950195E-3,5.706787109E-3,-1.440429688E-2
5.254000263E0,-7.553100586E-3,6.546020508E-3,-1.350402832E-2
5.259035664E0,-9.506225586E-3,3.372192383E-3,-1.553344727E-2
5.264071064E0,-8.499145508E-3,1.007080078E-3,-1.562500000E-2
5.269106465E0,-8.712768555E-3,-2.685546875E-3,-1.649475098E-2
5.274141865E0,-1.063537598E-2,-1.678466797E-4,-1.553344727E-2
5.279177265E0,-1.025390625E-2,4.974365234E-3,-1.553344727E-2
5.284212666E0,-7.293701172E-3,7.644653320E-3,-1.538085938E-2
5.289248066E0,-5.874633789E-3,6.881713867E-3,-1.446533203E-2
5.294283467E0,-2.990722656E-3,8.316040039E-3,-1.481628418E-2
5.299318867E0,-1.907348633E-3,1.176452637E-2,-1.640319824E-2
5.304354267E0,-1.022338867E-3,1.568603516E-2,-1.553344727E-2
5.309389668E0,-1.022338867E-3,1.718139648E-2,-1.553344727E-2
5.314425068E0,-1.022338867E-3,1.560974121E-2,-1.504516602E-2
5.319460468E0,-1.022338867E-3,1.261901855E-2,-1.364135742E-2
5.324495869E0,-1.022338867E-3,9.384155273E-3,-1.499938965E-2
5.329531269E0,-1.586914062E-3,3.738403320E-3,-1.687622070E-2
5.334566670E0,-3.753662109E-3,1.678466797E-3,-1.795959473E-2
5.339602070E0,-5.615234375E-3,2.456665039E-3,-1.904296875E-2
5.344637470E0,-7.019042969E-3,2.777099609E-3,-1.980590820E-2
5.349672871E0,-8.850097656E-3,4.531860352E-3,-1.945495605E-2
5.354708271E0,-9.216308594E-3,7.781982422E-3,-1.979064941E-2
5.359743672E0,-9.246826172E-3,1.179504395E-2,-2.194213867E-2
5.364779072E0,-1.103210449E-2,1.565551758E-2,-2.194213867E-2
5.369814472E0,-1.170349121E-2,1.512145996E-2,-2.233886719E-2
5.374849873E0,-1.213073730E-2,1.187133789E-2,-2.342224121E-2
5.379885273E0,-1.277160645E-2,9.063720703E-3,-2.407836914E-2
5.384920674E0,-1.367187500E-2,7.339477539E-3,-2.407836914E-2
5.389956074E0,-1.353454590E-2,5.340576172E-3,-2.407836914E-2
5.394991474E0,-1.170349121E-2,1.129150391E-3,-2.407836914E-2
5.400026875E0,-1.170349121E-2,-2.319335938E-3,-2.308654785E-2
5.405062275E0,-1.119995117E-2,-1.373291016E-3,-2.244567871E-2
5.410097676E0,-1.116943359E-2,1.892089844E-3,-2.301025391E-2
5.415133076E0,-1.063537598E-2,4.592895508E-3,-2.301025391E-2
5.420168476E0,-9.567260742E-3,5.096435547E-3,-2.301025391E-2
5.425203877E0,-9.017944336E-3,4.028320312E-3,-2.301025391E-2
5.430239277E0,-8.499145508E-3,2.349853516E-3,-2.125549316E-2
5.435274677E0,-8.499145508E-3,1.388549805E-3,-1.980590820E-2
5.440310078E0,-8.499145508E-3,3.814697266E-3,-1.980590820E-2
5.445345478E0,-8.499145508E-3,6.912231445E-3,-1.980590820E-2
5.450380879E0,-8.499145508E-3,8.438110352E-3,-1.980590820E-2
5.455416279E0,-1.046752930E-2,7.553100586E-3,-1.980590820E-2
5.460451679E0,-1.239013672E-2,6.042480469E-3,-1.980590820E-2
5.465487080E0,-1.347351074E-2,5.661010742E-3,-2.049255371E-2
5.470522480E0,-1.315307617E-2,5.661010742E-3,-2.087402344E-2
5.475557881E0,-1.277160645E-2,4.943847656E-3,-2.087402344E-2
5.480593281E0,-1.205444336E-2,3.128051758E-3,-2.014160156E-2
5.485628681E0,-1.097106934E-2,3.189086914E-3,-2.127075195E-2
5.490664082E0,-9.124755859E-3,3.524780273E-3,-2.194213867E-2
5.495699482E0,-7.736206055E-3,2.746582031E-3,-2.270507812E-2
5.500734883E0,-7.431030273E-3,-7.171630859E-4,-2.378845215E-2
5.505770283E0,-8.239746094E-3,-4.241943359E-3,-2.487182617E-2
5.510805683E0,-6.866455078E-3,-7.492065430E-3,-2.514648438E-2
5.515841084E0,-7.202148438E-3,-9.063720703E-3,-2.514648438E-2
5.520876484E0,-6.591796875E-3,-7.598876953E-3,-2.429199219E-2
5.525911885E0,-8.102416992E-3,-5.432128906E-3,-2.320861816E-2
5.530947285E0,-9.384155273E-3,-3.265380859E-3,-2.212524414E-2
5.535982685E0,-9.567260742E-3,-4.684448242E-3,-1.924133301E-2
5.541018086E0,-1.048278809E-2,-7.766723633E-3,-1.690673828E-2
5.546053486E0,-1.249694824E-2,-1.284790039E-2,-1.660156250E-2
5.551088886E0,-1.184082031E-2,-1.922607422E-2,-1.376342773E-2
5.556124287E0,-1.170349121E-2,-2.189636230E-2,-1.243591309E-2
5.561159687E0,-1.074218750E-2,-1.629638672E-2,-1.329040527E-2
5.566195088E0,-1.063537598E-2,-1.078796387E-2,-1.142883301E-2
5.571230488E0,-1.164245605E-2,-7.354736328E-3,-1.225280762E-2
5.576265888E0,-1.170349121E-2,-9.201049805E-3,-1.130676270E-2
5.581301289E0,-7.598876953E-3,-1.341247559E-2,-1.126098633E-2
5.586336689E0,-8.483886719E-3,-1.776123047E-2,-1.126098633E-2
5.591372090E0,-6.378173828E-3,-2.102661133E-2,-1.126098633E-2
5.596407490E0,-7.431030273E-3,-2.102661133E-2,-1.126098633E-2
5.601442890E0,-6.347656250E-3,-1.776123047E-2,-1.229858398E-2
5.606478291E0,-5.386352539E-3,-1.348876953E-2,-1.129150391E-2
5.611513691E0,-7.385253906E-3,-1.142883301E-2,-1.232910156E-2
5.616549092E0,-6.301879883E-3,-1.142883301E-2,-1.232910156E-2
5.621584492E0,-5.294799805E-3,-1.142883301E-2,-1.232910156E-2
5.626619892E0,-5.203247070E-3,-1.162719727E-2,-1.222229004E-2
5.631655293E0,-4.119873047E-3,-1.368713379E-2,-1.126098633E-2
5.636690693E0,-3.158569336E-3,-1.463317871E-2,-1.126098633E-2
5.641726093E0,-3.158569336E-3,-1.463317871E-2,-1.110839844E-2
5.646761494E0,-3.158569336E-3,-1.448059082E-2,-1.002502441E-2
5.651796894E0,-3.341674805E-3,-1.272583008E-2,-9.124755859E-3
5.656832295E0,-4.226684570E-3,-7.308959961E-3,-8.926391602E-3
5.661867695E0,-3.845214844E-3,-3.082275391E-3,-8.056640625E-3
5.666903095E0,-2.090454102E-3,-4.608154297E-3,-7.614135742E-3
5.671938496E0,-1.632690430E-3,-8.544921875E-3,-5.676269531E-3
5.676973896E0,2.746582031E-4,-1.429748535E-2,-4.364013672E-3
5.682009297E0,1.373291016E-3,-1.676940918E-2,-2.716064453E-3
5.687044697E0,2.182006836E-3,-1.649475098E-2,-2.990722656E-3
5.692080097E0,2.182006836E-3,-1.513671875E-2,-3.784179688E-3
5.697115498E0,2.182006836E-3,-1.266479492E-2,-3.479003906E-3
5.702150898E0,1.846313477E-3,-9.078979492E-3,-2.059936523E-3
5.707186299E0,1.434326172E-3,-4.760742188E-3,-9.002685547E-4
5.712221699E0,1.831054688E-3,-1.480102539E-3,-1.296997070E-3
5.717257099E0,7.476806641E-4,-1.480102539E-3,-5.798339844E-4
5.722292500E0,4.119873047E-4,-4.409790039E-3,-1.983642578E-4
5.727327900E0,3.204345703E-4,-8.743286133E-3,4.882812500E-4
5.732363301E0,-1.022338867E-3,-1.225280762E-2,9.002685547E-4
5.737398701E0,-1.022338867E-3,-1.272583008E-2,2.838134766E-3
5.742434101E0,-5.950927734E-4,-1.055908203E-2,4.760742188E-3
5.747469502E0,-4.119873047E-4,-7.492065430E-3,4.760742188E-3
5.752504902E0,-5.645751953E-4,-4.562377930E-3,5.691528320E-3
5.757540302E0,4.577636719E-5,-5.401611328E-3,7.385253906E-3
5.762575703E0,5.340576172E-4,-8.163452148E-3,8.468627930E-3
5.767611103E0,1.617431641E-3,-9.811401367E-3,9.033203125E-3
5.772646504E0,2.182006836E-3,-1.089477539E-2,9.033203125E-3
5.777681904E0,2.182006836E-3,-1.089477539E-2,9.033203125E-3
5.782717304E0,2.182006836E-3,-9.811401367E-3,8.483886719E-3
5.787752705E0,1.617431641E-3,-9.857177734E-3,7.415771484E-3
5.792788105E0,5.187988281E-4,-1.095581055E-2,7.492065430E-3
5.797823506E0,1.846313477E-3,-1.203918457E-2,7.369995117E-3
5.802858906E0,2.014160156E-3,-9.429931641E-3,6.896972656E-3
5.807894306E0,1.113891602E-3,-5.279541016E-3,7.537841797E-3
5.812929707E0,1.113891602E-3,-2.670288086E-3,8.621215820E-3
5.817965107E0,1.770019531E-3,-1.815795898E-3,9.033203125E-3
5.823000508E0,2.182006836E-3,-4.730224609E-4,9.033203125E-3
5.828035908E0,2.182006836E-3,3.204345703E-4,9.735107422E-3
5.833071308E0,2.868652344E-3,-1.785278320E-3,1.010131836E-2
5.838106709E0,3.250122070E-3,-3.616333008E-3,9.384155273E-3
5.843142109E0,3.982543945E-3,-5.432128906E-3,9.033203125E-3
5.848177510E0,5.050659180E-3,-6.835937500E-3,9.033203125E-3
5.853212910E0,6.149291992E-3,-4.867553711E-3,9.033203125E-3
5.858248310E0,5.661010742E-3,-1.617431641E-3,8.255004883E-3
5.863283711E0,4.592895508E-3,2.410888672E-3,9.552001953E-3
5.868319111E0,4.318237305E-3,5.126953125E-3,9.307861328E-3
5.873354511E0,4.318237305E-3,4.837036133E-3,8.224487305E-3
5.878389912E0,4.318237305E-3,2.075195312E-3,7.141113281E-3
5.883425312E0,4.318237305E-3,-2.029418945E-3,6.896972656E-3
5.888460713E0,3.448486328E-3,-5.493164062E-3,6.896972656E-3
5.893496113E0,3.250122070E-3,-9.613037109E-3,6.896972656E-3
5.898531513E0,3.250122070E-3,-1.036071777E-2,7.797241211E-3
5.903566914E0,4.150390625E-3,-8.544921875E-3,7.965087891E-3
5.908602314E0,4.318237305E-3,-5.462646484E-3,5.203247070E-3
5.913637715E0,3.372192383E-3,5.950927734E-4,3.829956055E-3
5.918673115E0,4.196166992E-3,7.110595703E-3,3.692626953E-3
5.923708515E0,3.341674805E-3,8.758544922E-3,3.692626953E-3
5.928743916E0,5.203247070E-3,6.896972656E-3,1.739501953E-3
5.933779316E0,7.369995117E-3,3.738403320E-3,1.556396484E-3
5.938814717E0,7.522583008E-3,1.480102539E-3,1.556396484E-3
5.943850117E0,9.567260742E-3,-1.708984375E-3,1.556396484E-3
5.948885517E0,8.605957031E-3,-7.034301758E-3,2.609252930E-3
5.953920918E0,1.069641113E-2,-8.224487305E-3,2.624511719E-3
5.958956318E0,1.177978516E-2,-6.088256836E-3,3.707885742E-3
5.963991718E0,1.072692871E-2,-3.952026367E-3,4.806518555E-3
5.969027119E0,1.075744629E-2,-3.997802734E-3,6.866455078E-3
5.974062519E0,1.168823242E-2,-5.081176758E-3,5.828857422E-3
5.979097920E0,9.658813477E-3,-5.905151367E-3,5.706787109E-3
5.984133320E0,9.658813477E-3,-2.655029297E-3,3.860473633E-3
5.989168720E0,9.658813477E-3,2.136230469E-4,5.828857422E-3
5.994204121E0,9.445190430E-3,-1.068115234E-3,5.737304688E-3
5.999239521E0,7.385253906E-3,-4.455566406E-3,5.020141602E-3
6.004274922E0,6.301879883E-3,-7.675170898E-3,6.622314453E-3
6.009310322E0,5.386352539E-3,-3.662109375E-3,4.760742188E-3
6.014345722E0,5.050659180E-3,-1.663208008E-3,4.760742188E-3
6.019381123E0,3.250122070E-3,-5.645751953E-4,5.142211914E-3
6.024416523E0,3.631591797E-3,1.220703125E-4,6.713867188E-3
6.029451924E0,5.172729492E-3,-9.613037109E-4,5.630493164E-3
6.034487324E0,4.547119141E-3,-1.586914062E-3,5.004882812E-3
6.039522724E0,5.859375000E-3,-7.476806641E-4,5.599975586E-3
6.044558125E0,8.026123047E-3,-1.007080078E-3,4.760742188E-3
6.049593525E0,9.918212891E-3,-1.556396484E-3,4.760742188E-3
6.054628926E0,1.100158691E-2,-4.730224609E-4,4.486083984E-3
6.059664326E0,1.148986816E-2,-2.899169922E-4,3.402709961E-3
6.064699726E0,1.135253906E-2,-2.136230469E-3,2.319335938E-3
6.069735127E0,1.318359375E-2,-1.907348633E-3,1.235961914E-3
6.074770527E0,1.426696777E-2,9.918212891E-4,1.525878906E-4
6.079805927E0,1.499938965E-2,2.456665039E-3,-2.136230469E-4
6.084841328E0,1.461791992E-2,1.327514648E-3,-2.441406250E-4
6.089876728E0,1.315307617E-2,-7.476806641E-4,-1.647949219E-3
6.094912129E0,1.179504395E-2,8.239746094E-4,-1.647949219E-3
6.099947529E0,1.095581055E-2,4.776000977E-3,-2.059936523E-3
6.104982929E0,9.658813477E-3,4.989624023E-3,-2.273559570E-3
6.110018330E0,9.658813477E-3,1.098632812E-3,-2.090454102E-3
6.115053730E0,9.658813477E-3,-1.678466797E-3,-3.173828125E-3
6.120089131E0,9.658813477E-3,-2.410888672E-3,-4.730224609E-3
6.125124531E0,9.658813477E-3,-3.509521484E-4,-6.408691406E-3
6.130159931E0,9.658813477E-3,3.417968750E-3,-6.988525391E-3
6.135195332E0,9.124755859E-3,6.179809570E-3,-7.507324219E-3
6.140230732E0,8.590698242E-3,5.645751953E-3,-8.056640625E-3
6.145266133E0,9.140014648E-3,2.365112305E-3,-8.605957031E-3
6.150301533E0,9.078979492E-3,8.850097656E-4,-8.544921875E-3
6.155336933E0,8.590698242E-3,1.388549805E-3,-8.056640625E-3
6.160372334E0,8.590698242E-3,1.983642578E-3,-7.446289062E-3
6.165407734E0,7.980346680E-3,2.456665039E-3,-7.583618164E-3
6.170443135E0,8.148193359E-3,5.645751953E-4,-6.790161133E-3
6.175478535E0,9.231567383E-3,-2.044677734E-3,-6.561279297E-3
6.180513935E0,9.658813477E-3,-2.746582031E-4,-6.988525391E-3
6.185549336E0,8.987426758E-3,2.716064453E-3,-6.988525391E-3
6.190584736E0,9.262084961E-3,1.480102539E-3,-6.988525391E-3
6.195620136E0,1.034545898E-2,-3.189086914E-3,-6.988525391E-3
6.200655537E0,1.214599609E-2,-3.601074219E-3,-6.988525391E-3
6.205690937E0,1.139831543E-2,-1.434326172E-3,-6.988525391E-3
6.210726338E0,9.979248047E-3,1.480102539E-3,-7.720947266E-3
6.215761738E0,1.040649414E-2,3.204345703E-3,-7.293701172E-3
6.220797138E0,1.072692871E-2,1.190185547E-3,-7.751464844E-3
6.225832539E0,9.933471680E-3,3.204345703E-4,-8.834838867E-3
6.230867939E0,1.045227051E-2,-2.090454102E-3,-9.918212891E-3
6.235903340E0,9.902954102E-3,-4.531860352E-3,-1.019287109E-2
6.240938740E0,8.819580078E-3,-2.532958984E-3,-1.268005371E-2
6.245974140E0,7.736206055E-3,1.556396484E-3,-1.339721680E-2
6.251009541E0,8.377075195E-3,3.311157227E-3,-1.339721680E-2
6.256044941E0,9.460449219E-3,1.525878906E-5,-1.339721680E-2
6.261080342E0,9.658813477E-3,-4.318237305E-3,-1.249694824E-2
6.266115742E0,8.743286133E-3,-5.935668945E-3,-1.232910156E-2
6.271151142E0,7.659912109E-3,-2.410888672E-3,-1.232910156E-2
6.276186543E0,7.522583008E-3,-1.815795898E-3,-1.325988770E-2
6.281221943E0,8.468627930E-3,-2.777099609E-3,-1.243591309E-2
6.286257343E0,8.590698242E-3,-6.744384766E-3,-1.329040527E-2
6.291292744E0,7.598876953E-3,-8.148193359E-3,-1.339721680E-2
6.296328144E0,8.514404297E-3,-9.231567383E-3,-1.339721680E-2
6.301363545E0,7.568359375E-3,-1.031494141E-2,-1.440429688E-2
6.306398945E0,6.500244141E-3,-9.353637695E-3,-1.344299316E-2
6.311434345E0,3.326416016E-3,-1.138305664E-2,-1.339721680E-2
6.316469746E0,2.182006836E-3,-1.354980469E-2,-1.339721680E-2
6.321505146E0,1.113891602E-3,-1.356506348E-2,-1.232910156E-2
6.326540547E0,2.182006836E-3,-1.139831543E-2,-1.229858398E-2
6.331575947E0,2.182006836E-3,-9.368896484E-3,-1.129150391E-2
6.336611347E0,2.120971680E-3,-1.142883301E-2,-1.237487793E-2
6.341646748E0,1.159667969E-3,-1.142883301E-2,-1.339721680E-2
6.346682148E0,2.243041992E-3,-1.136779785E-2,-1.339721680E-2
6.351717549E0,3.250122070E-3,-1.046752930E-2,-1.329040527E-2
6.356752949E0,3.143310547E-3,-1.153564453E-2,-1.232910156E-2
6.361788349E0,2.182006836E-3,-1.249694824E-2,-1.243591309E-2
6.366823750E0,2.456665039E-3,-1.264953613E-2,-1.310729980E-2
6.371859150E0,4.318237305E-3,-1.342773438E-2,-1.110839844E-2
6.376894551E0,4.150390625E-3,-1.217651367E-2,-1.019287109E-2
6.381929951E0,3.067016602E-3,-9.841918945E-3,-1.000976562E-2
6.386965351E0,2.365112305E-3,-6.774902344E-3,-8.926391602E-3
6.392000752E0,3.250122070E-3,-5.447387695E-3,-8.056640625E-3
6.397036152E0,2.822875977E-3,-6.958007812E-3,-8.255004883E-3
6.402071552E0,1.342773438E-3,-5.859375000E-3,-9.124755859E-3
6.407106953E0,1.922607422E-3,-4.257202148E-3,-9.368896484E-3
6.412142353E0,1.647949219E-3,-1.556396484E-3,-9.643554688E-3
6.417177754E0,3.524780273E-3,-7.476806641E-4,-8.056640625E-3
6.422213154E0,4.318237305E-3,-1.358032227E-3,-7.751464844E-3
6.427248554E0,3.997802734E-3,-2.883911133E-3,-7.293701172E-3
6.432283955E0,3.250122070E-3,-2.563476562E-3,-8.056640625E-3
6.437319355E0,3.585815430E-3,-1.480102539E-3,-8.056640625E-3
6.442354756E0,3.952026367E-3,-1.113891602E-3,-8.056640625E-3
6.447390156E0,3.250122070E-3,-2.563476562E-3,-8.056640625E-3
6.452425556E0,2.471923828E-3,-5.126953125E-3,-7.659912109E-3
6.457460957E0,1.113891602E-3,-7.156372070E-3,-6.988525391E-3
6.462496357E0,1.113891602E-3,-6.332397461E-3,-6.561279297E-3
6.467531758E0,1.113891602E-3,-4.592895508E-3,-5.050659180E-3
6.472567158E0,1.556396484E-3,-2.609252930E-3,-3.326416016E-3
6.477602558E0,1.708984375E-3,1.678466797E-4,-2.716064453E-3
6.482637959E0,1.113891602E-3,1.388549805E-3,-2.227783203E-3
6.487673359E0,6.103515625E-4,8.850097656E-4,-1.647949219E-3
6.492708760E0,-1.480102539E-3,-7.019042969E-4,-1.129150391E-3
6.497744160E0,-3.158569336E-3,-7.781982422E-4,-1.098632812E-3
6.502779560E0,-2.624511719E-3,1.388549805E-3,-1.647949219E-3
6.507814961E0,-1.541137695E-3,3.005981445E-3,-2.197265625E-3
6.512850361E0,-1.022338867E-3,1.831054688E-3,-1.022338867E-3
6.517885761E0,-4.425048828E-4,-8.544921875E-4,4.882812500E-4
6.522921162E0,-1.159667969E-3,-2.426147461E-3,-1.068115234E-4
6.527956562E0,-2.090454102E-3,-2.883911133E-3,-1.174926758E-3
6.532991963E0,-2.090454102E-3,-2.883911133E-3,-1.007080078E-3
6.538027363E0,-2.746582031E-3,-4.180908203E-3,-1.220703125E-3
6.543062763E0,-3.158569336E-3,-5.676269531E-3,-2.288818359E-3
6.548098164E0,-2.502441406E-3,-5.432128906E-3,-2.044677734E-3
6.553133564E0,-2.777099609E-3,-3.662109375E-3,-9.613037109E-4
6.558168965E0,-3.158569336E-3,-3.585815430E-3,1.220703125E-4
6.563204365E0,-2.456665039E-3,-3.952026367E-3,1.922607422E-3
6.568239765E0,-2.822875977E-3,-4.684448242E-3,2.624511719E-3
6.573275166E0,-2.426147461E-3,-5.020141602E-3,2.624511719E-3
6.578310566E0,-2.853393555E-3,-5.783081055E-3,3.387451172E-3
6.583345967E0,-3.158569336E-3,-7.644653320E-3,5.249023438E-3
6.588381367E0,-3.952026367E-3,-6.652832031E-3,5.828857422E-3
6.593416767E0,-5.035400391E-3,-2.883911133E-3,6.637573242E-3
6.598452168E0,-6.118774414E-3,-2.639770508E-3,7.720947266E-3
6.603487568E0,-5.538940430E-3,-6.225585938E-3,7.965087891E-3
6.608522968E0,-5.294799805E-3,-1.054382324E-2,9.658813477E-3
6.613558369E0,-5.294799805E-3,-1.142883301E-2,9.246826172E-3
6.618593769E0,-4.425048828E-3,-1.142883301E-2,1.080322266E-2
6.623629170E0,-4.226684570E-3,-1.054382324E-2,1.028442383E-2
6.628664570E0,-5.142211914E-3,-9.460449219E-3,1.101684570E-2
6.633699970E0,-5.294799805E-3,-8.377075195E-3,1.025390625E-2
6.638735371E0,-5.294799805E-3,-6.362915039E-3,9.170532227E-3
6.643770771E0,-5.294799805E-3,-6.088256836E-3,9.033203125E-3
6.648806172E0,-5.294799805E-3,-8.026123047E-3,9.033203125E-3
6.653841572E0,-4.318237305E-3,-7.247924805E-3,1.002502441E-2
6.658876972E0,-4.226684570E-3,-6.164550781E-3,9.109497070E-3
6.663912373E0,-4.226684570E-3,-6.088256836E-3,1.106262207E-2
6.668947773E0,-2.182006836E-3,-1.020812988E-2,1.116943359E-2
6.673983174E0,-2.090454102E-3,-9.323120117E-3,1.013183594E-2
6.679018574E0,-1.037597656E-3,-6.134033203E-3,1.010131836E-2
6.684053974E0,3.051757812E-5,-2.899169922E-3,1.118469238E-2
6.689089375E0,-9.918212891E-4,-3.997802734E-3,1.223754883E-2
6.694124775E0,1.113891602E-3,-6.164550781E-3,1.223754883E-2
6.699160176E0,1.068115234E-3,-8.300781250E-3,1.228332520E-2
6.704195576E0,4.577636719E-5,-1.043701172E-2,1.330566406E-2
6.709230976E0,4.577636719E-5,-1.135253906E-2,1.322937012E-2
6.714266377E0,4.577636719E-5,-1.046752930E-2,1.223754883E-2
6.719301777E0,1.525878906E-4,-1.098632812E-2,1.223754883E-2
6.724337177E0,9.765625000E-4,-7.034301758E-3,1.199340820E-2
6.729372578E0,-1.068115234E-4,-5.950927734E-3,1.010131836E-2
6.734407978E0,-1.174926758E-3,-5.172729492E-3,1.010131836E-2
6.739443379E0,-1.937866211E-3,-6.591796875E-3,1.010131836E-2
6.744478779E0,-1.220703125E-3,-9.674072266E-3,1.029968262E-2
6.749514179E0,-2.288818359E-3,-1.124572754E-2,1.116943359E-2
6.754549580E0,-3.158569336E-3,-9.948730469E-3,1.097106934E-2
6.759584980E0,-2.929687500E-3,-7.766723633E-3,9.872436523E-3
6.764620381E0,-1.861572266E-3,-5.859375000E-3,9.277343750E-3
6.769655781E0,-7.781982422E-4,-5.279541016E-3,1.010131836E-2
6.774691181E0,3.204345703E-4,-6.088256836E-3,1.010131836E-2
6.779726582E0,1.113891602E-3,-5.523681641E-3,1.010131836E-2
6.784761982E0,1.403808594E-3,-3.356933594E-3,1.010131836E-2
6.789797383E0,2.487182617E-3,-1.510620117E-3,1.042175293E-2
6.794832783E0,3.570556641E-3,-1.754760742E-3,1.084899902E-2
6.799868183E0,4.653930664E-3,-5.355834961E-3,1.010131836E-2
6.804903584E0,5.737304688E-3,-8.956909180E-3,9.750366211E-3
6.809938984E0,5.691528320E-3,-9.994506836E-3,8.666992188E-3
6.814974385E0,4.318237305E-3,-8.117675781E-3,8.361816406E-3
6.820009785E0,4.714965820E-3,-4.470825195E-3,9.445190430E-3
6.825045185E0,5.386352539E-3,-1.815795898E-3,1.010131836E-2
6.830080586E0,5.813598633E-3,-2.700805664E-3,1.010131836E-2
6.835115986E0,6.896972656E-3,-4.867553711E-3,1.010131836E-2
6.840151386E0,7.522583008E-3,-6.088256836E-3,9.185791016E-3
6.845186787E0,7.034301758E-3,-6.576538086E-3,8.453369141E-3
6.850222187E0,6.942749023E-3,-7.156372070E-3,9.536743164E-3
6.855257588E0,7.003784180E-3,-5.630493164E-3,1.010131836E-2
6.860292988E0,5.920410156E-3,-3.433227539E-3,1.010131836E-2
6.865328388E0,6.469726562E-3,-2.349853516E-3,8.483886719E-3
6.870363789E0,6.958007812E-3,-1.815795898E-3,6.896972656E-3
6.875399189E0,5.874633789E-3,-3.540039062E-3,5.767822266E-3
6.880434590E0,5.966186523E-3,-6.195068359E-3,3.601074219E-3
6.885469990E0,6.454467773E-3,-7.156372070E-3,2.624511719E-3
6.890505390E0,7.064819336E-3,-6.546020508E-3,2.014160156E-3
6.895540791E0,8.148193359E-3,-4.837036133E-3,1.556396484E-3
6.900576191E0,9.231567383E-3,-4.608154297E-3,1.556396484E-3
6.905611592E0,9.658813477E-3,-5.020141602E-3,2.227783203E-3
6.910646992E0,1.033020020E-2,-4.348754883E-3,1.281738281E-3
6.915682392E0,1.002502441E-2,-3.265380859E-3,4.882812500E-4
6.920717793E0,9.658813477E-3,-3.601074219E-3,4.882812500E-4
6.925753193E0,1.037597656E-2,-3.952026367E-3,-2.288818359E-4
6.930788593E0,1.072692871E-2,-6.164550781E-3,1.678466797E-4
6.935823994E0,9.979248047E-3,-6.423950195E-3,1.235961914E-3
6.940859394E0,9.658813477E-3,-4.577636719E-3,3.082275391E-3
6.945894795E0,8.880615234E-3,-1.632690430E-3,2.929687500E-3
6.950930195E0,8.590698242E-3,-2.334594727E-3,3.417968750E-3
6.955965595E0,1.019287109E-2,-2.883911133E-3,3.692626953E-3
6.961000996E0,9.902954102E-3,-6.164550781E-3,3.692626953E-3
6.966036396E0,1.132202148E-2,-7.156372070E-3,2.868652344E-3
6.971071797E0,1.348876953E-2,-4.608154297E-3,1.785278320E-3
6.976107197E0,1.478576660E-2,-2.227783203E-3,2.426147461E-3
6.981142597E0,1.499938965E-2,-6.103515625E-5,2.624511719E-3
6.986177998E0,1.588439941E-2,-5.798339844E-4,8.392333984E-4
6.991213398E0,1.606750488E-2,-2.578735352E-3,-4.119873047E-4
6.996248799E0,1.698303223E-2,-3.814697266E-3,-1.495361328E-3
7.001284199E0,1.805114746E-2,-3.036499023E-3,-3.494262695E-3
7.006319599E0,1.820373535E-2,-1.937866211E-3,-3.784179688E-3
7.011355000E0,1.916503906E-2,-2.792358398E-3,-5.722045898E-3
7.016390400E0,1.927185059E-2,-2.883911133E-3,-7.873535156E-3
7.021425801E0,1.725769043E-2,-2.883911133E-3,-1.005554199E-2
7.026461201E0,1.814270020E-2,-2.883911133E-3,-1.019287109E-2
7.031496601E0,1.922607422E-2,-3.921508789E-3,-9.155273438E-3
7.036532002E0,1.927185059E-2,-2.914428711E-3,-8.071899414E-3
7.041567402E0,1.820373535E-2,-7.629394531E-4,-8.056640625E-3
7.046602802E0,1.715087891E-2,-7.629394531E-4,-6.988525391E-3
7.051638203E0,2.030944824E-2,-2.914428711E-3,-7.034301758E-3
7.056673603E0,1.922607422E-2,-3.997802734E-3,-1.022338867E-2
7.061709004E0,1.829528809E-2,-5.020141602E-3,-1.109313965E-2
7.066744404E0,2.040100098E-2,-4.959106445E-3,-8.117675781E-3
7.071779804E0,2.148437500E-2,-3.875732422E-3,-9.033203125E-3
7.076815205E0,2.236938477E-2,-2.700805664E-3,-8.056640625E-3
7.081850605E0,2.128601074E-2,-8.697509766E-4,-7.934570312E-3
7.086886006E0,2.033996582E-2,-2.075195312E-3,-6.988525391E-3
7.091921406E0,2.061462402E-2,-3.952026367E-3,-6.988525391E-3
7.096956806E0,2.262878418E-2,-3.952026367E-3,-7.293701172E-3
7.101992207E0,2.336120605E-2,-3.952026367E-3,-8.941650391E-3
7.107027607E0,2.247619629E-2,-4.150390625E-3,-8.239746094E-3
7.112063008E0,2.247619629E-2,-5.218505859E-3,-8.926391602E-3
7.117098408E0,2.247619629E-2,-6.088256836E-3,-8.056640625E-3
7.122133808E0,2.223205566E-2,-5.630493164E-3,-8.056640625E-3
7.127169209E0,2.140808105E-2,-3.952026367E-3,-8.056640625E-3
7.132204609E0,2.113342285E-2,-3.952026367E-3,-8.056640625E-3
7.137240010E0,2.005004883E-2,-3.952026367E-3,-8.331298828E-3
7.142275410E0,1.927185059E-2,-4.531860352E-3,-9.124755859E-3
7.147310810E0,1.927185059E-2,-6.698608398E-3,-9.414672852E-3
7.152346211E0,1.927185059E-2,-8.224487305E-3,-1.019287109E-2
7.157381611E0,1.959228516E-2,-8.224487305E-3,-1.051330566E-2
7.162417011E0,1.998901367E-2,-7.888793945E-3,-1.159667969E-2
7.167452412E0,1.927185059E-2,-6.805419922E-3,-1.159667969E-2
7.172487812E0,1.927185059E-2,-6.469726562E-3,-1.019287109E-2
7.177523213E0,1.965332031E-2,-7.553100586E-3,-1.019287109E-2
7.182558613E0,2.033996582E-2,-7.827758789E-3,-1.058959961E-2
7.187594013E0,2.033996582E-2,-7.156372070E-3,-1.126098633E-2
7.192629414E0,1.989746094E-2,-6.729125977E-3,-1.126098633E-2
7.197664814E0,1.971435547E-2,-6.546020508E-3,-1.170349121E-2
7.202700215E0,2.079772949E-2,-7.629394531E-3,-1.232910156E-2
7.207735615E0,2.188110352E-2,-8.712768555E-3,-1.184082031E-2
7.212771015E0,2.247619629E-2,-9.292602539E-3,-1.174926758E-2
7.217806416E0,2.247619629E-2,-8.789062500E-3,-1.181030273E-2
7.222841816E0,2.247619629E-2,-8.758544922E-3,-1.020812988E-2
7.227877217E0,2.247619629E-2,-9.292602539E-3,-8.575439453E-3
7.232912617E0,2.136230469E-2,-7.644653320E-3,-7.492065430E-3
7.237948017E0,2.090454102E-2,-7.812500000E-3,-7.553100586E-3
7.242983418E0,2.140808105E-2,-9.292602539E-3,-8.636474609E-3
7.248018818E0,2.079772949E-2,-8.102416992E-3,-9.124755859E-3
7.253054218E0,1.971435547E-2,-5.935668945E-3,-7.888793945E-3
7.258089619E0,1.989746094E-2,-4.394531250E-3,-7.614135742E-3
7.263125019E0,1.968383789E-2,-5.249023438E-3,-8.056640625E-3
7.268160420E0,1.992797852E-2,-6.088256836E-3,-7.385253906E-3
7.273195820E0,1.965332031E-2,-6.774902344E-3,-6.988525391E-3
7.278231220E0,1.788330078E-2,-6.469726562E-3,-7.675170898E-3
7.283266621E0,1.783752441E-2,-3.982543945E-3,-7.339477539E-3
7.288302021E0,1.747131348E-2,-3.616333008E-3,-6.988525391E-3
7.293337422E0,1.860046387E-2,-5.432128906E-3,-7.720947266E-3
7.298372822E0,1.852416992E-2,-8.331298828E-3,-8.056640625E-3
7.303408222E0,1.895141602E-2,-9.292602539E-3,-7.293701172E-3
7.308443623E0,1.927185059E-2,-6.210327148E-3,-7.751464844E-3
7.313479023E0,1.927185059E-2,-3.448486328E-3,-8.056640625E-3
7.318514424E0,1.684570312E-2,-3.692626953E-3,-8.056640625E-3
7.323549824E0,1.771545410E-2,-6.439208984E-3,-6.393432617E-3
7.328585224E0,1.902770996E-2,-8.834838867E-3,-5.920410156E-3
7.333620625E0,1.756286621E-2,-7.598876953E-3,-5.920410156E-3
7.338656025E0,1.713562012E-2,-4.547119141E-3,-5.920410156E-3
7.343691426E0,1.800537109E-2,-3.082275391E-3,-5.035400391E-3
7.348726826E0,1.640319824E-2,-2.883911133E-3,-3.051757812E-3
7.353762226E0,1.696777344E-2,-3.799438477E-3,-2.716064453E-3
7.358797627E0,1.620483398E-2,-4.882812500E-3,-2.716064453E-3
7.363833027E0,1.512145996E-2,-4.089355469E-3,-8.239746094E-4
7.368868427E0,1.594543457E-2,-3.952026367E-3,1.342773438E-3
7.373903828E0,1.509094238E-2,-3.952026367E-3,1.556396484E-3
7.378939228E0,1.499938965E-2,-1.983642578E-3,-4.119873047E-4
7.383974629E0,1.399230957E-2,-8.239746094E-4,4.272460938E-4
7.389010029E0,1.393127441E-2,-7.476806641E-4,4.882812500E-4
7.394045429E0,1.289367676E-2,-7.476806641E-4,-5.340576172E-4
7.399080830E0,1.390075684E-2,-5.996704102E-3,-5.798339844E-4
7.404116230E0,1.286315918E-2,-7.156372070E-3,4.882812500E-4
7.409151631E0,1.391601562E-2,-3.936767578E-3,4.882812500E-4
7.414187031E0,1.179504395E-2,-7.019042969E-4,-1.617431641E-3
7.419222431E0,1.179504395E-2,1.220703125E-3,-5.340576172E-4
7.424257832E0,1.184082031E-2,-3.051757812E-3,5.493164062E-4
7.429293232E0,1.286315918E-2,-6.240844727E-3,1.556396484E-3
7.434328633E0,1.277160645E-2,-8.148193359E-3,1.556396484E-3
7.439364033E0,1.179504395E-2,-6.973266602E-3,1.556396484E-3
7.444399433E0,1.167297363E-2,-4.440307617E-3,1.678466797E-3
7.449434834E0,1.084899902E-2,5.798339844E-4,2.624511719E-3
7.454470234E0,1.193237305E-2,1.861572266E-3,2.777099609E-3
7.459505635E0,1.318359375E-2,-2.471923828E-3,3.692626953E-3
7.464541035E0,1.499938965E-2,-6.088256836E-3,3.692626953E-3
7.469576435E0,1.480102539E-2,-5.340576172E-3,3.890991211E-3
7.474611836E0,1.393127441E-2,-1.007080078E-3,4.760742188E-3
7.479647236E0,1.393127441E-2,2.670288086E-3,4.547119141E-3
7.484682636E0,1.393127441E-2,2.807617188E-3,3.692626953E-3
7.489718037E0,1.393127441E-2,-1.831054688E-4,3.952026367E-3
7.494753437E0,1.419067383E-2,-1.296997070E-3,5.294799805E-3
7.499788838E0,1.499938965E-2,3.204345703E-4,6.896972656E-3
7.504824238E0,1.440429688E-2,9.002685547E-4,6.607055664E-3
7.509859638E0,1.286315918E-2,3.067016602E-3,5.523681641E-3
7.514895039E0,1.286315918E-2,4.913330078E-3,5.416870117E-3
7.519930439E0,1.251220703E-2,3.952026367E-3,6.561279297E-3
7.524965840E0,1.142883301E-2,-7.476806641E-4,5.477905273E-3
7.530001240E0,1.034545898E-2,-2.883911133E-3,5.142211914E-3
7.535036640E0,1.004028320E-2,-2.120971680E-3,5.447387695E-3
7.540072041E0,1.031494141E-2,4.577636719E-5,4.760742188E-3
7.545107441E0,9.658813477E-3,1.800537109E-3,4.760742188E-3
7.550142842E0,9.658813477E-3,1.159667969E-3,4.760742188E-3
7.555178242E0,9.201049805E-3,-2.532958984E-3,4.318237305E-3
7.560213642E0,8.590698242E-3,-6.866455078E-3,4.623413086E-3
7.565249043E0,9.048461914E-3,-8.834838867E-3,6.301879883E-3
7.570284443E0,9.658813477E-3,-6.774902344E-3,5.935668945E-3
7.575319843E0,9.658813477E-3,-3.509521484E-3,5.279541016E-3
7.580355244E0,9.658813477E-3,-7.934570312E-4,6.347656250E-3
7.585390644E0,9.658813477E-3,-7.476806641E-4,7.431030273E-3
7.590426045E0,9.658813477E-3,-2.365112305E-3,7.965087891E-3
7.595461445E0,1.077270508E-2,-5.142211914E-3,7.965087891E-3
7.600496845E0,1.179504395E-2,-6.591796875E-3,8.544921875E-3
7.605532246E0,1.119995117E-2,-5.508422852E-3,8.453369141E-3
7.610567646E0,1.072692871E-2,-4.425048828E-3,7.965087891E-3
7.615603047E0,1.133728027E-2,-3.341674805E-3,8.590698242E-3
7.620638447E0,1.179504395E-2,-4.791259766E-3,9.033203125E-3
7.625673847E0,1.113891602E-2,-6.088256836E-3,7.736206055E-3
7.630709248E0,1.072692871E-2,-8.087158203E-3,7.568359375E-3
7.635744648E0,1.072692871E-2,-9.292602539E-3,7.965087891E-3
7.640780049E0,1.002502441E-2,-9.292602539E-3,7.965087891E-3
7.645815449E0,9.658813477E-3,-8.590698242E-3,7.263183594E-3
7.650850849E0,8.926391602E-3,-8.224487305E-3,6.896972656E-3
7.655886250E0,9.323120117E-3,-9.719848633E-3,5.416870117E-3
7.660921650E0,1.191711426E-2,-9.613037109E-3,5.523681641E-3
7.665957051E0,1.130676270E-2,-8.529663086E-3,6.607055664E-3
7.670992451E0,9.933471680E-3,-7.446289062E-3,6.896972656E-3
7.676027851E0,9.658813477E-3,-7.156372070E-3,6.103515625E-3
7.681063252E0,1.046752930E-2,-8.804321289E-3,5.828857422E-3
7.686098652E0,1.155090332E-2,-1.013183594E-2,5.828857422E-3
7.691134052E0,1.179504395E-2,-9.521484375E-3,5.828857422E-3
7.696169453E0,1.179504395E-2,-8.438110352E-3,5.828857422E-3
7.701204853E0,1.179504395E-2,-7.354736328E-3,5.828857422E-3
7.706240254E0,1.000976562E-2,-8.056640625E-3,5.828857422E-3
7.711275654E0,9.658813477E-3,-7.324218750E-3,5.828857422E-3
7.716311054E0,1.148986816E-2,-8.087158203E-3,3.997802734E-3
7.721346455E0,1.084899902E-2,-7.293701172E-3,3.692626953E-3
7.726381855E0,1.261901855E-2,-7.156372070E-3,2.746582031E-3
7.731417256E0,1.382446289E-2,-8.132934570E-3,3.601074219E-3
7.736452656E0,1.295471191E-2,-8.224487305E-3,4.669189453E-3
7.741488056E0,1.484680176E-2,-8.224487305E-3,4.760742188E-3
7.746523457E0,1.397705078E-2,-9.246826172E-3,3.753662109E-3
7.751558857E0,1.290893555E-2,-1.031494141E-2,3.692626953E-3
7.756594258E0,1.181030273E-2,-8.285522461E-3,1.617431641E-3
7.761629658E0,1.072692871E-2,-6.118774414E-3,2.624511719E-3
7.766665058E0,1.179504395E-2,-7.156372070E-3,1.556396484E-3
7.771700459E0,1.284790039E-2,-7.156372070E-3,1.525878906E-3
7.776735859E0,1.181030273E-2,-7.156372070E-3,-1.647949219E-3
7.781771260E0,1.275634766E-2,-7.156372070E-3,-1.693725586E-3
7.786806660E0,1.077270508E-2,-7.400512695E-3,-2.822875977E-3
7.791842060E0,1.171875000E-2,-1.136779785E-2,-4.776000977E-3
7.796877461E0,1.072692871E-2,-1.028442383E-2,-3.784179688E-3
7.801912861E0,1.081848145E-2,-9.399414062E-3,-3.784179688E-3
7.806948261E0,1.179504395E-2,-1.048278809E-2,-3.784179688E-3
7.811983662E0,1.191711426E-2,-1.170349121E-2,-3.646850586E-3
7.817019062E0,1.286315918E-2,-1.312255859E-2,-3.005981445E-3
7.822054463E0,1.269531250E-2,-1.020812988E-2,-4.684448242E-3
7.827089863E0,1.196289062E-2,-8.941650391E-3,-3.784179688E-3
7.832125263E0,1.286315918E-2,-7.156372070E-3,-3.585815430E-3
7.837160664E0,1.245117188E-2,-7.156372070E-3,-2.716064453E-3
7.842196064E0,1.116943359E-2,-7.156372070E-3,-2.716064453E-3
7.847231465E0,1.309204102E-2,-7.156372070E-3,-2.716064453E-3
7.852266865E0,1.342773438E-2,-7.156372070E-3,-2.716064453E-3
7.857302265E0,1.179504395E-2,-7.431030273E-3,-2.716064453E-3
7.862337666E0,1.150512695E-2,-7.949829102E-3,-2.716064453E-3
7.867373066E0,1.042175293E-2,-7.156372070E-3,-2.716064453E-3
7.872408467E0,9.963989258E-3,-7.156372070E-3,-3.021240234E-3
7.877443867E0,1.072692871E-2,-7.492065430E-3,-4.104614258E-3
7.882479267E0,1.072692871E-2,-8.575439453E-3,-5.187988281E-3
7.887514668E0,9.658813477E-3,-8.590698242E-3,-5.920410156E-3
7.892550068E0,7.888793945E-3,-7.537841797E-3,-6.286621094E-3
7.897585468E0,8.590698242E-3,-8.224487305E-3,-7.369995117E-3
7.902620869E0,8.987426758E-3,-8.224487305E-3,-8.056640625E-3
7.907656269E0,9.658813477E-3,-7.812500000E-3,-8.056640625E-3
7.912691670E0,8.804321289E-3,-6.744384766E-3,-8.468627930E-3
7.917727070E0,8.407592773E-3,-7.431030273E-3,-9.124755859E-3
7.922762470E0,9.658813477E-3,-9.765625000E-3,-9.124755859E-3
7.927797871E0,9.170532227E-3,-1.084899902E-2,-8.636474609E-3
7.932833271E0,8.590698242E-3,-9.963989258E-3,-8.544921875E-3
7.937868672E0,8.590698242E-3,-7.720947266E-3,-9.124755859E-3
7.942904072E0,8.590698242E-3,-8.209228516E-3,-8.590698242E-3
7.947939472E0,8.041381836E-3,-7.690429688E-3,-8.590698242E-3
7.952974873E0,7.522583008E-3,-4.989624023E-3,-9.674072266E-3
7.958010273E0,6.958007812E-3,-4.516601562E-3,-1.074218750E-2
7.963045674E0,7.034301758E-3,-6.774902344E-3,-1.184082031E-2
7.968081074E0,8.117675781E-3,-8.834838867E-3,-1.171875000E-2
7.973116474E0,7.980346680E-3,-7.476806641E-3,-1.126098633E-2
7.978151875E0,7.522583008E-3,-4.837036133E-3,-1.126098633E-2
7.983187275E0,7.522583008E-3,-3.952026367E-3,-1.190185547E-2
7.988222676E0,6.866455078E-3,-5.920410156E-3,-1.167297363E-2
7.993258076E0,7.797241211E-3,-7.843017578E-3,-1.193237305E-2
7.998293476E0,7.888793945E-3,-6.851196289E-3,-1.162719727E-2
8.003328877E0,6.820678711E-3,-6.088256836E-3,-1.126098633E-2
8.008364277E0,5.020141602E-3,-5.386352539E-3,-1.126098633E-2
8.013399677E0,2.853393555E-3,-5.752563477E-3,-1.126098633E-2
8.018435078E0,2.182006836E-3,-6.088256836E-3,-1.274108887E-2
8.023470478E0,2.182006836E-3,-7.614135742E-3,-1.414489746E-2
8.028505879E0,2.944946289E-3,-7.461547852E-3,-1.446533203E-2
8.033541279E0,3.250122070E-3,-7.949829102E-3,-1.446533203E-2
8.038576679E0,2.441406250E-3,-9.033203125E-3,-1.525878906E-2
8.043612080E0,1.358032227E-3,-8.483886719E-3,-1.553344727E-2
8.048647480E0,1.113891602E-3,-8.224487305E-3,-1.553344727E-2
8.053682881E0,1.113891602E-3,-7.385253906E-3,-1.637268066E-2
8.058718281E0,1.113891602E-3,-7.156372070E-3,-1.399230957E-2
8.063753681E0,2.288818359E-4,-8.041381836E-3,-1.251220703E-2
8.068789082E0,4.577636719E-5,-9.124755859E-3,-1.411437988E-2
8.073824482E0,9.460449219E-4,-9.292602539E-3,-1.446533203E-2
8.078859883E0,1.113891602E-3,-8.377075195E-3,-1.353454590E-2
8.083895283E0,1.678466797E-4,-7.293701172E-3,-1.432800293E-2
8.088930683E0,4.577636719E-5,-7.156372070E-3,-1.541137695E-2
8.093966084E0,4.577636719E-5,-5.218505859E-3,-1.455688477E-2
8.099001484E0,-9.460449219E-4,-5.020141602E-3,-1.446533203E-2
8.104036885E0,-2.029418945E-3,-6.027221680E-3,-1.446533203E-2
8.109072285E0,-3.112792969E-3,-7.110595703E-3,-1.547241211E-2
8.114107685E0,-2.136230469E-3,-8.193969727E-3,-1.449584961E-2
8.119143086E0,-2.090454102E-3,-7.186889648E-3,-1.550292969E-2
8.124178486E0,-3.158569336E-3,-3.982543945E-3,-1.234436035E-2
8.129213886E0,-5.294799805E-3,-3.952026367E-3,-1.231384277E-2
8.134249287E0,-5.279541016E-3,-2.838134766E-3,-1.129150391E-2
8.139284687E0,-4.302978516E-3,2.441406250E-4,-1.342773438E-2
8.144320088E0,-6.362915039E-3,-1.815795898E-3,-1.440429688E-2
8.149355488E0,-6.439208984E-3,-1.953125000E-3,-1.339721680E-2
8.154390888E0,-7.202148438E-3,-3.875732422E-3,-1.354980469E-2
8.159426289E0,-4.425048828E-3,-2.593994141E-3,-1.542663574E-2
8.164461689E0,-6.484985352E-3,3.204345703E-4,-1.434326172E-2
8.169497090E0,-7.186889648E-3,4.425048828E-4,-1.351928711E-2
8.174532490E0,-5.294799805E-3,8.087158203E-4,-1.460266113E-2
8.179567890E0,-5.294799805E-3,-2.883911133E-3,-1.553344727E-2
8.184603291E0,-5.645751953E-3,-2.044677734E-3,-1.553344727E-2
8.189638691E0,-7.064819336E-3,3.189086914E-3,-1.553344727E-2
8.194674092E0,-5.508422852E-3,6.317138672E-3,-1.573181152E-2
8.199709492E0,-6.362915039E-3,3.280639648E-3,-1.637268066E-2
8.204744892E0,-6.607055664E-3,-2.288818359E-3,-1.553344727E-2
8.209780293E0,-7.431030273E-3,-3.707885742E-3,-1.602172852E-2
8.214815693E0,-7.431030273E-3,-1.373291016E-3,-1.741027832E-2
8.219851093E0,-7.156372070E-3,4.623413086E-3,-1.631164551E-2
8.224886494E0,-6.362915039E-3,7.797241211E-3,-1.553344727E-2
8.229921894E0,-6.988525391E-3,6.866455078E-3,-1.553344727E-2
8.234957295E0,-8.178710938E-3,3.616333008E-3,-1.455688477E-2
8.239992695E0,-7.431030273E-3,1.388549805E-3,-1.266479492E-2
8.245028095E0,-7.431030273E-3,1.739501953E-3,-1.339721680E-2
8.250063496E0,-7.431030273E-3,2.822875977E-3,-1.301574707E-2
8.255098896E0,-7.431030273E-3,4.272460938E-3,-1.194763184E-2
8.260134297E0,-7.827758789E-3,6.042480469E-3,-1.164245605E-2
8.265169697E0,-9.338378906E-3,6.729125977E-3,-1.190185547E-2
8.270205097E0,-1.063537598E-2,6.729125977E-3,-1.083374023E-2
8.275240498E0,-1.063537598E-2,6.286621094E-3,-9.750366211E-3
8.280275898E0,-1.110839844E-2,4.272460938E-3,-9.582519531E-3
8.285311299E0,-1.124572754E-2,2.914428711E-3,-1.065063477E-2
8.290346699E0,-1.112365723E-2,3.036499023E-3,-1.173400879E-2
8.295382099E0,-1.170349121E-2,3.967285156E-3,-1.181030273E-2
8.300417500E0,-1.222229004E-2,6.683349609E-3,-1.126098633E-2
8.305452900E0,-1.330566406E-2,6.729125977E-3,-1.177978516E-2
8.310488301E0,-1.330566406E-2,4.013061523E-3,-1.232910156E-2
8.315523701E0,-1.277160645E-2,7.629394531E-4,-1.176452637E-2
8.320559101E0,-1.335144043E-2,-7.476806641E-4,-1.182556152E-2
8.325594502E0,-1.325988770E-2,1.007080078E-3,-1.173400879E-2
8.330629902E0,-1.277160645E-2,4.882812500E-3,-1.185607910E-2
8.335665302E0,-1.277160645E-2,6.103515625E-3,-1.232910156E-2
8.340700703E0,-1.214599609E-2,5.661010742E-3,-1.168823242E-2
8.345736103E0,-1.170349121E-2,3.707885742E-3,-1.060485840E-2
8.350771504E0,-1.304626465E-2,2.456665039E-3,-1.019287109E-2
8.355806904E0,-1.316833496E-2,3.128051758E-3,-9.506225586E-3
8.360842304E0,-1.417541504E-2,4.211425781E-3,-9.124755859E-3
8.365877705E0,-1.420593262E-2,5.294799805E-3,-8.407592773E-3
8.370913105E0,-1.383972168E-2,5.661010742E-3,-8.773803711E-3
8.375948506E0,-1.383972168E-2,5.661010742E-3,-9.124755859E-3
8.380983906E0,-1.309204102E-2,4.898071289E-3,-9.124755859E-3
8.386019306E0,-1.200866699E-2,6.134033203E-3,-8.346557617E-3
8.391054707E0,-1.170349121E-2,5.142211914E-3,-7.263183594E-3
8.396090107E0,-1.091003418E-2,4.592895508E-3,-6.179809570E-3
8.401125508E0,-1.063537598E-2,4.592895508E-3,-6.729125977E-3
8.406160908E0,-1.147460938E-2,6.240844727E-3,-7.812500000E-3
8.411196308E0,-1.086425781E-2,6.729125977E-3,-8.056640625E-3
8.416231709E0,-9.780883789E-3,5.859375000E-3,-8.911132812E-3
8.421267109E0,-8.697509766E-3,5.661010742E-3,-9.124755859E-3
8.426302510E0,-9.399414062E-3,4.760742188E-3,-1.089477539E-2
8.431337910E0,-9.567260742E-3,6.393432617E-3,-1.034545898E-2
8.436373310E0,-9.567260742E-3,7.644653320E-3,-9.262084961E-3
8.441408711E0,-1.051330566E-2,8.728027344E-3,-7.247924805E-3
8.446444111E0,-1.254272461E-2,6.958007812E-3,-6.988525391E-3
8.451479511E0,-1.084899902E-2,5.752563477E-3,-6.988525391E-3
8.456514912E0,-1.161193848E-2,3.707885742E-3,-6.011962891E-3
8.461550312E0,-9.719848633E-3,3.524780273E-3,-4.913330078E-3
8.466585713E0,-9.567260742E-3,6.546020508E-3,-4.852294922E-3
8.471621113E0,-8.560180664E-3,8.758544922E-3,-3.829956055E-3
8.476656513E0,-9.552001953E-3,8.865356445E-3,-2.731323242E-3
8.481691914E0,-8.514404297E-3,7.797241211E-3,-3.768920898E-3
8.486727314E0,-7.431030273E-3,7.797241211E-3,-4.852294922E-3
8.491762715E0,-7.446289062E-3,6.774902344E-3,-2.685546875E-3
8.496798115E0,-8.438110352E-3,1.103210449E-2,-6.103515625E-4
8.501833515E0,-6.362915039E-3,1.206970215E-2,-1.693725586E-3
8.506868916E0,-6.362915039E-3,1.188659668E-2,-2.761840820E-3
8.511904316E0,-6.362915039E-3,8.865356445E-3,-3.555297852E-3
8.516939717E0,-6.362915039E-3,8.865356445E-3,-5.798339844E-4
8.521975117E0,-6.271362305E-3,8.956909180E-3,-6.713867188E-4
8.527010517E0,-5.416870117E-3,1.028442383E-2,-1.525878906E-3
8.532045918E0,-6.088256836E-3,1.284790039E-2,-7.171630859E-4
8.537081318E0,-4.379272461E-3,1.069641113E-2,-1.495361328E-3
8.542116718E0,-5.294799805E-3,8.697509766E-3,-5.798339844E-4
8.547152119E0,-4.745483398E-3,7.980346680E-3,-5.798339844E-4
8.552187519E0,-2.090454102E-3,8.865356445E-3,-3.814697266E-4
8.557222920E0,-2.090454102E-3,8.865356445E-3,7.019042969E-4
8.562258320E0,-2.563476562E-3,8.865356445E-3,1.556396484E-3
8.567293720E0,-3.753662109E-3,8.865356445E-3,1.327514648E-3
8.572329121E0,-2.349853516E-3,8.605957031E-3,1.007080078E-3
8.577364521E0,-3.158569336E-3,8.056640625E-3,2.365112305E-3
8.582399922E0,-3.158569336E-3,8.575439453E-3,1.846313477E-3
8.587435322E0,-3.158569336E-3,7.797241211E-3,2.029418945E-3
8.592470722E0,-2.532958984E-3,7.476806641E-3,8.087158203E-4
8.597506123E0,-7.019042969E-4,7.720947266E-3,2.227783203E-3
8.602541523E0,-3.051757812E-4,1.062011719E-2,4.043579102E-3
8.607576924E0,-1.022338867E-3,1.170349121E-2,4.760742188E-3
8.612612324E0,-6.561279297E-4,1.062011719E-2,5.142211914E-3
8.617647724E0,4.272460938E-4,8.743286133E-3,5.050659180E-3
8.622683125E0,1.510620117E-3,6.317138672E-3,4.104614258E-3
8.627718525E0,2.182006836E-3,6.500244141E-3,5.615234375E-3
8.632753926E0,1.739501953E-3,9.109497070E-3,6.896972656E-3
8.637789326E0,2.456665039E-3,1.144409180E-2,6.896972656E-3
8.642824726E0,3.845214844E-3,1.206970215E-2,6.896972656E-3
8.647860127E0,3.250122070E-3,1.206970215E-2,6.896972656E-3
8.652895527E0,4.241943359E-3,1.156616211E-2,7.904052734E-3
8.657930927E0,6.393432617E-3,1.150512695E-2,1.005554199E-2
8.662966328E0,7.522583008E-3,1.206970215E-2,1.116943359E-2
8.668001728E0,7.522583008E-3,1.313781738E-2,1.010131836E-2
8.673037129E0,8.071899414E-3,1.475524902E-2,9.033203125E-3
8.678072529E0,8.590698242E-3,1.527404785E-2,9.033203125E-3
8.683107929E0,9.170532227E-3,1.409912109E-2,9.628295898E-3
8.688143330E0,1.025390625E-2,1.313781738E-2,1.010131836E-2
8.693178730E0,1.133728027E-2,1.313781738E-2,9.490966797E-3
8.698214131E0,1.115417480E-2,1.249694824E-2,9.033203125E-3
8.703249531E0,1.200866699E-2,1.141357422E-2,9.033203125E-3
8.708284931E0,1.351928711E-2,1.033020020E-2,9.033203125E-3
8.713320332E0,1.460266113E-2,1.127624512E-2,9.033203125E-3
8.718355732E0,1.499938965E-2,1.068115234E-2,8.346557617E-3
8.723391133E0,1.428222656E-2,9.933471680E-3,7.965087891E-3
8.728426533E0,1.319885254E-2,1.065063477E-2,9.414672852E-3
8.733461933E0,1.359558105E-2,1.319885254E-2,7.904052734E-3
8.738497334E0,1.467895508E-2,1.344299316E-2,9.918212891E-3
8.743532734E0,1.499938965E-2,1.235961914E-2,1.194763184E-2
8.748568135E0,1.499938965E-2,1.127624512E-2,1.145935059E-2
8.753603535E0,1.657104492E-2,1.100158691E-2,1.116943359E-2
8.758638935E0,1.794433594E-2,1.017761230E-2,1.116943359E-2
8.763674336E0,1.736450195E-2,8.270263672E-3,1.200866699E-2
8.768709736E0,1.879882812E-2,5.279541016E-3,1.141357422E-2
8.773745136E0,2.012634277E-2,2.868652344E-3,1.203918457E-2
8.778780537E0,2.120971680E-2,7.019042969E-4,1.312255859E-2
8.783815937E0,2.140808105E-2,-1.449584961E-3,1.243591309E-2
8.788851338E0,2.409362793E-2,-9.307861328E-4,1.313781738E-2
8.793886738E0,2.461242676E-2,-7.476806641E-4,1.330566406E-2
8.798922138E0,2.552795410E-2,-7.476806641E-4,1.145935059E-2
8.803957539E0,2.568054199E-2,-2.639770508E-3,1.116943359E-2
8.808992939E0,2.662658691E-2,-5.767822266E-3,1.022338867E-2
8.814028340E0,2.577209473E-2,-9.017944336E-3,1.107788086E-2
8.819063740E0,2.568054199E-2,-1.223754883E-2,1.116943359E-2
8.824099140E0,2.667236328E-2,-1.651000977E-2,1.217651367E-2
8.829134541E0,2.674865723E-2,-1.881408691E-2,9.185791016E-3
8.834169941E0,2.777099609E-2,-2.098083496E-2,9.033203125E-3
8.839205342E0,2.781677246E-2,-2.000427246E-2,1.113891602E-2
8.844240742E0,2.674865723E-2,-1.573181152E-2,1.011657715E-2
8.849276142E0,2.783203125E-2,-1.673889160E-2,1.010131836E-2
8.854311543E0,2.992248535E-2,-1.354980469E-2,1.005554199E-2
8.859346943E0,2.896118164E-2,-1.249694824E-2,8.010864258E-3
8.864382343E0,3.106689453E-2,-1.249694824E-2,9.033203125E-3
8.869417744E0,3.201293945E-2,-1.243591309E-2,9.109497070E-3
8.874453144E0,3.118896484E-2,-1.135253906E-2,1.010131836E-2
8.879488545E0,3.315734863E-2,-1.036071777E-2,1.010131836E-2
8.884523945E0,3.303527832E-2,-1.048278809E-2,1.010131836E-2
8.889559345E0,3.208923340E-2,-1.170349121E-2,9.979248047E-3
8.894594746E0,3.251647949E-2,-1.342773438E-2,9.185791016E-3
8.899630146E0,3.544616699E-2,-1.219177246E-2,1.026916504E-2
8.904665547E0,3.671264648E-2,-9.658813477E-3,1.116943359E-2
8.909700947E0,3.829956055E-2,-6.088256836E-3,1.116943359E-2
8.914736347E0,3.742980957E-2,-6.088256836E-3,1.138305664E-2
8.919771748E0,3.764343262E-2,-6.317138672E-3,1.223754883E-2
8.924807148E0,3.872680664E-2,-7.400512695E-3,1.200866699E-2
8.929842549E0,4.005432129E-2,-8.224487305E-3,1.142883301E-2
8.934877949E0,4.142761230E-2,-7.965087891E-3,1.251220703E-2
8.939913349E0,4.090881348E-2,-7.720947266E-3,1.275634766E-2
8.944948750E0,4.199218750E-2,-9.597778320E-3,1.116943359E-2
8.949984150E0,4.307556152E-2,-1.036071777E-2,1.086425781E-2
8.955019551E0,4.415893555E-2,-9.399414062E-3,9.780883789E-3
8.960054951E0,4.490661621E-2,-6.820678711E-3,9.033203125E-3
8.965090351E0,4.525756836E-2,-6.454467773E-3,9.399414062E-3
8.970125752E0,4.559326172E-2,-7.537841797E-3,1.010131836E-2
8.975161152E0,4.490661621E-2,-8.224487305E-3,1.010131836E-2
8.980196552E0,4.490661621E-2,-8.636474609E-3,1.051330566E-2
8.985231953E0,4.490661621E-2,-1.054382324E-2,1.116943359E-2
8.990267353E0,4.531860352E-2,-1.208496094E-2,1.159667969E-2
8.995302754E0,4.684448242E-2,-1.100158691E-2,1.181030273E-2
9.000338154E0,4.811096191E-2,-9.902954102E-3,1.164245605E-2
9.005373554E0,4.856872559E-2,-8.361816406E-3,1.177978516E-2
9.010408955E0,5.014038086E-2,-7.156372070E-3,1.116943359E-2
9.015444355E0,5.181884766E-2,-7.156372070E-3,1.116943359E-2
9.020479756E0,5.288696289E-2,-6.652832031E-3,1.116943359E-2
9.025515156E0,5.345153809E-2,-7.690429688E-3,1.223754883E-2
9.030550556E0,5.398559570E-2,-1.092529297E-2,1.330566406E-2
9.035585957E0,5.451965332E-2,-1.306152344E-2,1.275634766E-2
9.040621357E0,5.393981934E-2,-1.300048828E-2,1.223754883E-2
9.045656758E0,5.520629883E-2,-1.309204102E-2,1.223754883E-2
9.050692158E0,5.847167969E-2,-1.296997070E-2,1.164245605E-2
9.055727558E0,5.923461914E-2,-1.499938965E-2,1.179504395E-2
9.060762959E0,5.941772461E-2,-1.805114746E-2,1.223754883E-2
9.065798359E0,6.050109863E-2,-1.956176758E-2,1.289367676E-2
9.070833760E0,6.025695801E-2,-2.131652832E-2,1.197814941E-2
9.075869160E0,6.053161621E-2,-2.279663086E-2,1.116943359E-2
9.080904560E0,5.952453613E-2,-2.317810059E-2,1.048278809E-2
9.085939961E0,6.021118164E-2,-2.461242676E-2,1.010131836E-2
9.090975361E0,6.019592285E-2,-2.822875977E-2,1.010131836E-2
9.096010761E0,6.059265137E-2,-3.108215332E-2,1.159667969E-2
9.101046162E0,6.092834473E-2,-3.399658203E-2,1.148986816E-2
9.106081562E0,6.092834473E-2,-3.570556641E-2,1.040649414E-2
9.111116963E0,6.013488770E-2,-3.521728516E-2,9.323120117E-3
9.116152363E0,6.065368652E-2,-3.334045410E-2,9.841918945E-3
9.121187763E0,6.172180176E-2,-3.118896484E-2,8.499145508E-3
9.126223164E0,6.199645996E-2,-2.900695801E-2,8.804321289E-3
9.131258564E0,6.199645996E-2,-2.851867676E-2,9.033203125E-3
9.136293965E0,6.199645996E-2,-2.938842773E-2,8.178710938E-3
9.141329365E0,6.286621094E-2,-3.047180176E-2,8.850097656E-3
9.146364765E0,6.394958496E-2,-3.065490723E-2,9.033203125E-3
9.151400166E0,6.413269043E-2,-3.247070312E-2,8.132934570E-3
9.156435566E0,6.504821777E-2,-3.372192383E-2,7.965087891E-3
9.161470967E0,6.613159180E-2,-3.385925293E-2,7.965087891E-3
9.166506367E0,6.721496582E-2,-3.385925293E-2,8.926391602E-3
9.171541767E0,6.636047363E-2,-3.289794922E-2,8.071899414E-3
9.176577168E0,6.527709961E-2,-3.181457520E-2,7.965087891E-3
9.181612568E0,6.619262695E-2,-3.172302246E-2,6.973266602E-3
9.186647968E0,6.727600098E-2,-3.071594238E-2,5.889892578E-3
9.191683369E0,6.834411621E-2,-3.065490723E-2,5.828857422E-3
9.196718769E0,6.840515137E-2,-3.065490723E-2,5.828857422E-3
9.201754170E0,6.945800781E-2,-3.065490723E-2,5.828857422E-3
9.206789570E0,6.840515137E-2,-3.065490723E-2,4.760742188E-3
9.211824970E0,6.947326660E-2,-3.282165527E-2,5.828857422E-3
9.216860371E0,6.950378418E-2,-3.492736816E-2,4.730224609E-3
9.221895771E0,7.048034668E-2,-3.498840332E-2,3.692626953E-3
9.226931172E0,6.947326660E-2,-3.605651855E-2,3.753662109E-3
9.231966572E0,6.953430176E-2,-3.713989258E-2,4.760742188E-3
9.237001972E0,7.043457031E-2,-3.813171387E-2,4.577636719E-3
9.242037373E0,6.947326660E-2,-3.804016113E-2,2.731323242E-3
9.247072773E0,6.958007812E-2,-3.695678711E-2,3.692626953E-3
9.252108174E0,7.038879395E-2,-3.614807129E-2,3.845214844E-3
9.257143574E0,6.947326660E-2,-3.706359863E-2,4.913330078E-3
9.262178974E0,6.947326660E-2,-3.739929199E-2,5.508422852E-3
9.267214375E0,6.964111328E-2,-3.938293457E-2,3.692626953E-3
9.272249775E0,7.054138184E-2,-4.066467285E-2,3.890991211E-3
9.277285176E0,7.054138184E-2,-4.177856445E-2,4.562377930E-3
9.282320576E0,7.031250000E-2,-3.898620605E-2,3.479003906E-3
9.287355976E0,6.947326660E-2,-3.813171387E-2,2.868652344E-3
9.292391377E0,6.997680664E-2,-3.813171387E-2,3.448486328E-3
9.297426777E0,7.160949707E-2,-3.759765625E-2,2.899169922E-3
9.302462177E0,7.131958008E-2,-3.486633301E-2,3.128051758E-3
9.307497578E0,7.023620605E-2,-3.112792969E-2,1.861572266E-3
9.312532978E0,6.947326660E-2,-2.958679199E-2,1.998901367E-3
9.317568379E0,7.011413574E-2,-2.894592285E-2,4.882812500E-4
9.322603779E0,7.194519043E-2,-2.780151367E-2,4.882812500E-4
9.327639179E0,7.302856445E-2,-2.923583984E-2,1.373291016E-4
9.332674580E0,7.336425781E-2,-3.065490723E-2,-5.798339844E-4
9.337709980E0,7.228088379E-2,-3.105163574E-2,-9.613037109E-4
9.342745381E0,7.200622559E-2,-3.053283691E-2,-1.235961914E-3
9.347780781E0,7.267761230E-2,-2.810668945E-2,-1.525878906E-4
9.352816181E0,7.223510742E-2,-2.789306641E-2,6.103515625E-5
9.357851582E0,7.160949707E-2,-2.807617188E-2,-1.022338867E-3
9.362886982E0,7.206726074E-2,-2.745056152E-2,-2.105712891E-3
9.367922383E0,7.267761230E-2,-2.745056152E-2,-2.716064453E-3
9.372957783E0,7.119750977E-2,-2.795410156E-2,-2.716064453E-3
9.377993183E0,6.997680664E-2,-2.801513672E-2,-3.219604492E-3
9.383028584E0,7.002258301E-2,-2.745056152E-2,-3.784179688E-3
9.388063984E0,6.947326660E-2,-2.745056152E-2,-2.716064453E-3
9.393099385E0,6.947326660E-2,-2.745056152E-2,-2.197265625E-3
9.398134785E0,6.947326660E-2,-2.859497070E-2,-3.845214844E-3
9.403170185E0,6.887817383E-2,-2.900695801E-2,-4.257202148E-3
9.408205586E0,6.840515137E-2,-2.732849121E-2,-4.379272461E-3
9.413240986E0,6.779479980E-2,-2.699279785E-2,-5.447387695E-3
9.418276386E0,6.733703613E-2,-2.745056152E-2,-5.294799805E-3
9.423311787E0,6.733703613E-2,-2.871704102E-2,-4.852294922E-3
9.428347187E0,6.668090820E-2,-3.024291992E-2,-6.149291992E-3
9.433382588E0,6.559753418E-2,-3.065490723E-2,-7.644653320E-3
9.438417988E0,6.520080566E-2,-2.998352051E-2,-8.728027344E-3
9.443453388E0,6.449890137E-2,-2.890014648E-2,-9.811401367E-3
9.448488789E0,6.413269043E-2,-2.923583984E-2,-1.019287109E-2
9.453524189E0,6.266784668E-2,-3.031921387E-2,-1.091003418E-2
9.458559590E0,6.272888184E-2,-3.289794922E-2,-1.199340820E-2
9.463594990E0,6.306457520E-2,-3.462219238E-2,-1.232910156E-2
9.468630390E0,6.460571289E-2,-3.570556641E-2,-1.232910156E-2
9.473665791E0,6.204223633E-2,-3.521728516E-2,-1.310729980E-2
9.478701191E0,6.011962891E-2,-3.332519531E-2,-1.419067383E-2
9.483736592E0,6.066894531E-2,-3.361511230E-2,-1.609802246E-2
9.488771992E0,5.924987793E-2,-3.469848633E-2,-1.660156250E-2
9.493807392E0,5.963134766E-2,-3.492736816E-2,-1.405334473E-2
9.498842793E0,6.071472168E-2,-3.579711914E-2,-1.425170898E-2
9.503878193E0,6.004333496E-2,-3.512573242E-2,-1.533508301E-2
9.508913593E0,5.895996094E-2,-3.492736816E-2,-1.641845703E-2
9.513948994E0,5.969238281E-2,-3.765869141E-2,-1.660156250E-2
9.518984394E0,5.892944336E-2,-3.813171387E-2,-1.660156250E-2
9.524019795E0,5.596923828E-2,-3.907775879E-2,-1.753234863E-2
9.529055195E0,5.558776855E-2,-3.825378418E-2,-1.670837402E-2
9.534090595E0,5.558776855E-2,-3.717041016E-2,-1.756286621E-2
9.539125996E0,5.459594727E-2,-3.608703613E-2,-1.766967773E-2
9.544161396E0,5.252075195E-2,-3.799438477E-2,-1.766967773E-2
9.549196797E0,5.238342285E-2,-4.016113281E-2,-1.564025879E-2
9.554232197E0,5.238342285E-2,-4.232788086E-2,-1.655578613E-2
9.559267597E0,5.133056641E-2,-4.345703125E-2,-1.660156250E-2
9.564302998E0,4.919433594E-2,-4.347229004E-2,-1.765441895E-2
9.569338398E0,4.811096191E-2,-4.240417480E-2,-1.873779297E-2
9.574373799E0,4.704284668E-2,-4.132080078E-2,-1.980590820E-2
9.579409199E0,4.696655273E-2,-4.031372070E-2,-1.976013184E-2
9.584444599E0,4.490661621E-2,-4.133605957E-2,-1.882934570E-2
9.589480000E0,4.490661621E-2,-4.133605957E-2,-2.081298828E-2
9.594515400E0,4.473876953E-2,-4.158020020E-2,-1.971435547E-2
9.599550801E0,4.277038574E-2,-4.454040527E-2,-1.863098145E-2
9.604586201E0,4.277038574E-2,-4.454040527E-2,-1.766967773E-2
9.609621601E0,4.226684570E-2,-4.441833496E-2,-1.791381836E-2
9.614657002E0,3.834533691E-2,-4.333496094E-2,-1.994323730E-2
9.619692402E0,3.742980957E-2,-4.226684570E-2,-2.072143555E-2
9.624727802E0,3.709411621E-2,-4.133605957E-2,-1.980590820E-2
9.629763203E0,3.529357910E-2,-4.153442383E-2,-1.980590820E-2
9.634798603E0,3.450012207E-2,-4.260253906E-2,-1.998901367E-2
9.639834004E0,3.080749512E-2,-4.368591309E-2,-2.087402344E-2
9.644869404E0,3.018188477E-2,-4.501342773E-2,-2.087402344E-2
9.649904804E0,3.077697754E-2,-4.667663574E-2,-2.087402344E-2
9.654940205E0,2.943420410E-2,-4.617309570E-2,-2.061462402E-2
9.659975605E0,2.781677246E-2,-4.428100586E-2,-2.006530762E-2
9.665011006E0,2.781677246E-2,-4.261779785E-2,-2.114868164E-2
9.670046406E0,2.751159668E-2,-4.026794434E-2,-2.163696289E-2
9.675081806E0,2.580261230E-2,-4.026794434E-2,-2.117919922E-2
9.680117207E0,2.354431152E-2,-4.060363770E-2,-2.127075195E-2
9.685152607E0,2.354431152E-2,-4.168701172E-2,-1.980590820E-2
9.690188008E0,2.281188965E-2,-4.133605957E-2,-1.980590820E-2
9.695223408E0,2.027893066E-2,-3.883361816E-2,-1.980590820E-2
9.700258808E0,1.820373535E-2,-3.813171387E-2,-2.018737793E-2
9.705294209E0,1.779174805E-2,-3.854370117E-2,-2.046203613E-2
9.710329609E0,1.670837402E-2,-3.962707520E-2,-2.021789551E-2
9.715365010E0,1.519775391E-2,-4.113769531E-2,-2.043151855E-2
9.720400410E0,1.437377930E-2,-4.196166992E-2,-2.024841309E-2
9.725435810E0,1.499938965E-2,-4.133605957E-2,-2.087402344E-2
9.730471211E0,1.358032227E-2,-3.993225098E-2,-2.133178711E-2
9.735506611E0,1.129150391E-2,-3.715515137E-2,-2.194213867E-2
9.740542011E0,1.072692871E-2,-3.599548340E-2,-2.142333984E-2
9.745577412E0,1.019287109E-2,-3.652954102E-2,-2.139282227E-2
9.750612812E0,9.658813477E-3,-3.706359863E-2,-2.194213867E-2
9.755648213E0,9.094238281E-3,-3.706359863E-2,-2.137756348E-2
9.760683613E0,8.010864258E-3,-3.706359863E-2,-2.087402344E-2
9.765719013E0,6.927490234E-3,-3.474426270E-2,-2.027893066E-2
9.770754414E0,5.844116211E-3,-3.219604492E-2,-1.919555664E-2
9.775789814E0,3.540039062E-3,-3.295898438E-2,-1.873779297E-2
9.780825215E0,1.541137695E-3,-3.450012207E-2,-1.873779297E-2
9.785860615E0,4.577636719E-4,-3.492736816E-2,-1.744079590E-2
9.790896015E0,-1.922607422E-3,-3.492736816E-2,-1.724243164E-2
9.795931416E0,-3.845214844E-3,-3.492736816E-2,-1.834106445E-2
9.800966816E0,-4.928588867E-3,-3.492736816E-2,-1.803588867E-2
9.806002217E0,-6.698608398E-3,-3.562927246E-2,-1.626586914E-2
9.811037617E0,-8.163452148E-3,-3.672790527E-2,-1.553344727E-2
9.816073017E0,-9.246826172E-3,-3.781127930E-2,-1.553344727E-2
9.821108418E0,-1.106262207E-2,-3.739929199E-2,-1.329040527E-2
9.826143818E0,-1.170349121E-2,-3.782653809E-2,-1.156616211E-2
9.831179218E0,-1.248168945E-2,-3.813171387E-2,-1.126098633E-2
9.836214619E0,-1.435852051E-2,-3.813171387E-2,-1.046752930E-2
9.841250019E0,-1.652526855E-2,-3.733825684E-2,-1.098632812E-2
9.846285420E0,-1.786804199E-2,-3.460693359E-2,-1.126098633E-2
9.851320820E0,-1.728820801E-2,-3.385925293E-2,-1.126098633E-2
9.856356220E0,-1.704406738E-2,-3.216552734E-2,-1.040649414E-2
9.861391621E0,-1.965332031E-2,-3.346252441E-2,-1.191711426E-2
9.866427021E0,-2.113342285E-2,-3.474426270E-2,-1.232910156E-2
9.871462422E0,-2.221679688E-2,-3.582763672E-2,-1.232910156E-2
9.876497822E0,-2.330017090E-2,-3.599548340E-2,-1.232910156E-2
9.881533222E0,-2.438354492E-2,-3.599548340E-2,-1.046752930E-2
9.886568623E0,-2.546691895E-2,-3.413391113E-2,-1.019287109E-2
9.891604023E0,-2.464294434E-2,-3.195190430E-2,-1.210021973E-2
9.896639424E0,-2.452087402E-2,-3.076171875E-2,-1.037597656E-2
9.901674824E0,-2.648925781E-2,-2.870178223E-2,-8.224487305E-3
9.906710224E0,-2.867126465E-2,-2.752685547E-2,-8.056640625E-3
9.911745625E0,-2.778625488E-2,-2.542114258E-2,-8.056640625E-3
9.916781025E0,-2.772521973E-2,-2.531433105E-2,-7.019042969E-3
9.921816426E0,-2.877807617E-2,-2.636718750E-2,-8.026123047E-3
9.926851826E0,-2.986145020E-2,-2.320861816E-2,-5.920410156E-3
9.931887226E0,-3.199768066E-2,-2.104187012E-2,-5.905151367E-3
9.936922627E0,-3.199768066E-2,-2.104187012E-2,-3.753662109E-3
9.941958027E0,-3.199768066E-2,-2.104187012E-2,-2.639770508E-3
9.946993427E0,-3.205871582E-2,-2.104187012E-2,-6.256103516E-4
9.952028828E0,-3.306579590E-2,-2.085876465E-2,-1.571655273E-3
9.957064228E0,-3.330993652E-2,-1.768493652E-2,-5.798339844E-4
9.962099629E0,-3.627014160E-2,-1.560974121E-2,-5.798339844E-4
9.967135029E0,-3.649902344E-2,-1.486206055E-2,-4.577636719E-4
9.972170429E0,-3.854370117E-2,-1.702880859E-2,2.441406250E-4
9.977205830E0,-3.962707520E-2,-1.919555664E-2,-1.495361328E-3
9.982241230E0,-4.040527344E-2,-2.119445801E-2,-4.272460938E-4
9.987276631E0,-3.965759277E-2,-2.143859863E-2,4.882812500E-4
9.992312031E0,-4.074096680E-2,-1.765441895E-2,3.051757812E-4
9.997347431E0,-4.161071777E-2,-1.658630371E-2,-3.814697266E-4
1.000238283E1,-4.183959961E-2,-1.527404785E-2,4.882812500E-4
1.000741823E1,-4.267883301E-2,-1.333618164E-2,7.324218750E-4
1.001245363E1,-4.267883301E-2,-1.226806641E-2,1.800537109E-3
1.001748903E1,-4.243469238E-2,-1.142883301E-2,3.143310547E-3
1.002252443E1,-4.161071777E-2,-1.142883301E-2,4.486083984E-3
1.002755983E1,-4.161071777E-2,-1.200866699E-2,3.982543945E-3
1.003259523E1,-4.191589355E-2,-1.327514648E-2,5.065917969E-3
1.003763064E1,-4.237365723E-2,-1.187133789E-2,5.828857422E-3
1.004266604E1,-4.129028320E-2,-9.368896484E-3,6.164550781E-3
1.004770144E1,-4.124450684E-2,-6.820678711E-3,7.598876953E-3
1.005273684E1,-4.267883301E-2,-6.088256836E-3,9.033203125E-3
1.005777224E1,-4.267883301E-2,-6.469726562E-3,9.414672852E-3
1.006280764E1,-4.347229004E-2,-7.156372070E-3,1.010131836E-2
1.006784304E1,-4.563903809E-2,-6.759643555E-3,9.704589844E-3
1.007287844E1,-4.737854004E-2,-4.837036133E-3,9.460449219E-3
1.007791384E1,-4.759216309E-2,-3.326416016E-3,1.054382324E-2
1.008294924E1,-4.695129395E-2,-3.051757812E-3,1.116943359E-2
1.008798464E1,-4.649353027E-2,-2.288818359E-3,1.210021973E-2
1.009302004E1,-4.637145996E-2,-2.883911133E-3,1.330566406E-2
1.009805544E1,-4.745483398E-2,-2.395629883E-3,1.330566406E-2
1.010309084E1,-4.801940918E-2,-1.815795898E-3,1.330566406E-2
1.010812624E1,-4.801940918E-2,-2.441406250E-4,1.330566406E-2
1.011316164E1,-4.856872559E-2,1.388549805E-3,1.330566406E-2
1.011819704E1,-4.853820801E-2,1.388549805E-3,1.443481445E-2
1.012323244E1,-4.859924316E-2,1.953125000E-3,1.544189453E-2
1.012826784E1,-4.850769043E-2,2.456665039E-3,1.544189453E-2
1.013330324E1,-4.924011230E-2,3.662109375E-3,1.423645020E-2
1.013833864E1,-5.015563965E-2,4.592895508E-3,1.577758789E-2
1.014337404E1,-5.015563965E-2,4.592895508E-3,1.757812500E-2
1.014840944E1,-4.951477051E-2,5.233764648E-3,1.693725586E-2
1.015344484E1,-4.908752441E-2,6.973266602E-3,1.651000977E-2
1.015848024E1,-4.977416992E-2,7.797241211E-3,1.516723633E-2
1.016351564E1,-4.946899414E-2,8.483886719E-3,1.437377930E-2
1.016855105E1,-4.980468750E-2,9.567260742E-3,1.509094238E-2
1.017358644E1,-4.943847656E-2,9.933471680E-3,1.689147949E-2
1.017862184E1,-4.983520508E-2,9.933471680E-3,1.757812500E-2
1.018365725E1,-5.015563965E-2,1.066589355E-2,1.684570312E-2
1.018869265E1,-4.939270020E-2,1.022338867E-2,1.574707031E-2
1.019372805E1,-4.908752441E-2,1.071166992E-2,1.701354980E-2
1.019876345E1,-4.829406738E-2,1.179504395E-2,1.678466797E-2
1.020379885E1,-4.965209961E-2,1.531982422E-2,1.733398438E-2
1.020883425E1,-4.933166504E-2,1.550292969E-2,1.675415039E-2
1.021386965E1,-4.908752441E-2,1.693725586E-2,1.651000977E-2
1.021890505E1,-4.824829102E-2,1.741027832E-2,1.651000977E-2
1.022394045E1,-4.801940918E-2,1.828002930E-2,1.739501953E-2
1.022897585E1,-4.714965820E-2,1.847839355E-2,1.757812500E-2
1.023401125E1,-4.785156250E-2,2.026367188E-2,1.669311523E-2
1.023904665E1,-4.801940918E-2,2.151489258E-2,1.560974121E-2
1.024408205E1,-4.710388184E-2,2.168273926E-2,1.544189453E-2
1.024911745E1,-4.695129395E-2,2.168273926E-2,1.638793945E-2
1.025415285E1,-4.791259766E-2,2.359008789E-2,1.556396484E-2
1.025918825E1,-4.801940918E-2,2.381896973E-2,1.544189453E-2
1.026422365E1,-4.901123047E-2,2.479553223E-2,1.643371582E-2
1.026925905E1,-5.009460449E-2,2.287292480E-2,1.551818848E-2
1.027429445E1,-5.015563965E-2,2.478027344E-2,1.544189453E-2
1.027932985E1,-5.015563965E-2,2.488708496E-2,1.441955566E-2
1.028436525E1,-5.015563965E-2,2.592468262E-2,1.437377930E-2
1.028940065E1,-5.122375488E-2,2.912902832E-2,1.332092285E-2
1.029443605E1,-5.017089844E-2,3.021240234E-2,1.437377930E-2
1.029947146E1,-5.122375488E-2,2.912902832E-2,1.330566406E-2
1.030450686E1,-5.119323730E-2,2.809143066E-2,1.327514648E-2
1.030954226E1,-5.021667480E-2,2.813720703E-2,1.229858398E-2
1.031457766E1,-5.122375488E-2,2.915954590E-2,1.330566406E-2
1.031961306E1,-5.105590820E-2,2.906799316E-2,1.330566406E-2
1.032464846E1,-4.899597168E-2,2.838134766E-2,1.321411133E-2
1.032968386E1,-4.824829102E-2,3.117370605E-2,1.202392578E-2
1.033471926E1,-5.015563965E-2,3.033447266E-2,1.022338867E-2
1.033975466E1,-5.015563965E-2,3.129577637E-2,1.116943359E-2
1.034479006E1,-5.000305176E-2,3.144836426E-2,1.116943359E-2
