"Time (s)","Acceleration x (m/s^2)","Acceleration y (m/s^2)","Acceleration z (m/s^2)"
3.815367200E-2,-2.981567383E-1,9.590347290E0,-9.438781738E0
4.318907200E-2,-3.027496338E-1,9.599456787E0,-9.452774048E0
4.822447300E-2,-2.863159180E-1,9.572082520E0,-9.444381714E0
5.325987300E-2,-2.804412842E-1,9.556304932E0,-9.407806396E0
5.829527400E-2,-3.296356201E-1,9.572570801E0,-9.402954102E0
6.333067400E-2,-3.145751953E-1,9.562011719E0,-9.408386230E0
6.836607400E-2,-3.236694336E-1,9.565902710E0,-9.429412842E0
7.340147500E-2,-3.408355713E-1,9.587585449E0,-9.404251099E0
7.843687500E-2,-3.424682617E-1,9.581726074E0,-9.428268433E0
8.347227600E-2,-3.300170898E-1,9.547592163E0,-9.421600342E0
8.850767600E-2,-3.376159668E-1,9.553649902E0,-9.401519775E0
9.354307600E-2,-3.278503418E-1,9.547698975E0,-9.428771973E0
9.857847700E-2,-3.044281006E-1,9.557952881E0,-9.447814941E0
1.036138770E-1,-2.927551270E-1,9.575958252E0,-9.408493042E0
1.086492770E-1,-2.837371826E-1,9.553741455E0,-9.389694214E0
1.136846780E-1,-2.886199951E-1,9.557449341E0,-9.397613525E0
1.187200780E-1,-2.611846924E-1,9.489028931E0,-9.352172852E0
1.237554790E-1,-3.126831055E-1,9.534057617E0,-9.411529541E0
1.287908790E-1,-3.080596924E-1,9.540451050E0,-9.404769897E0
1.338262790E-1,-2.699890137E-1,9.560684204E0,-9.459701538E0
1.388616800E-1,-2.662048340E-1,9.587646484E0,-9.460494995E0
1.438970800E-1,-3.067779541E-1,9.564498901E0,-9.401916504E0
1.489324810E-1,-3.266754150E-1,9.572998047E0,-9.392883301E0
1.539678810E-1,-3.187866211E-1,9.571578979E0,-9.387161255E0
1.590032810E-1,-3.046875000E-1,9.581176758E0,-9.377883911E0
1.640386820E-1,-3.090209961E-1,9.572341919E0,-9.426712036E0
1.690740820E-1,-3.077850342E-1,9.579360962E0,-9.425247192E0
1.741094830E-1,-3.075103760E-1,9.582550049E0,-9.361953735E0
1.791448830E-1,-3.009948730E-1,9.561019897E0,-9.392166138E0
1.841802830E-1,-2.915496826E-1,9.536926270E0,-9.373580933E0
1.892156840E-1,-2.975158691E-1,9.550720215E0,-9.354064941E0
1.942510840E-1,-3.249816895E-1,9.556335449E0,-9.424758911E0
1.992864850E-1,-3.106079102E-1,9.549774170E0,-9.442626953E0
2.043218850E-1,-3.145141602E-1,9.581756592E0,-9.390182495E0
2.093572850E-1,-3.006439209E-1,9.578109741E0,-9.430557251E0
2.143926860E-1,-2.861785889E-1,9.537811279E0,-9.450271606E0
2.194280860E-1,-3.570098877E-1,9.584884644E0,-9.350585938E0
2.244634860E-1,-2.778015137E-1,9.540420532E0,-9.380554199E0
2.294988870E-1,-3.416137695E-1,9.566635132E0,-9.462265015E0
2.345342870E-1,-2.902526855E-1,9.581054688E0,-9.388046265E0
2.395696880E-1,-2.766876221E-1,9.542434692E0,-9.430175781E0
2.446050880E-1,-2.811431885E-1,9.547180176E0,-9.405639648E0
2.496404880E-1,-3.134307861E-1,9.583770752E0,-9.383422852E0
2.546758890E-1,-3.004455566E-1,9.566940308E0,-9.466369629E0
2.597112890E-1,-3.239898682E-1,9.573074341E0,-9.429748535E0
2.647466900E-1,-3.009033203E-1,9.552871704E0,-9.396667480E0
2.697820900E-1,-3.057250977E-1,9.581283569E0,-9.417236328E0
2.748174900E-1,-3.074493408E-1,9.587860107E0,-9.374740601E0
2.798528910E-1,-2.992553711E-1,9.588912964E0,-9.429946899E0
2.848882910E-1,-3.463439941E-1,9.577316284E0,-9.449661255E0
2.899236920E-1,-3.186645508E-1,9.549453735E0,-9.453903198E0
2.949590920E-1,-3.056793213E-1,9.560943604E0,-9.487991333E0
2.999944920E-1,-3.605957031E-1,9.558532715E0,-9.456832886E0
3.050298930E-1,-3.080596924E-1,9.559982300E0,-9.465515137E0
3.100652930E-1,-3.203125000E-1,9.570724487E0,-9.446578979E0
3.151006930E-1,-2.916259766E-1,9.561370850E0,-9.498016357E0
3.201360940E-1,-2.966461182E-1,9.559692383E0,-9.468566895E0
3.251714940E-1,-2.742309570E-1,9.549545288E0,-9.449356079E0
3.302068950E-1,-2.774810791E-1,9.537017822E0,-9.501022339E0
3.352422950E-1,-3.043060303E-1,9.553878784E0,-9.457000732E0
3.402776950E-1,-3.016662598E-1,9.583816528E0,-9.476623535E0
3.453130960E-1,-2.974090576E-1,9.567092896E0,-9.445037842E0
3.503484960E-1,-2.671813965E-1,9.542480469E0,-9.409698486E0
3.553838970E-1,-3.074035645E-1,9.552185059E0,-9.434600830E0
3.604192970E-1,-3.099517822E-1,9.544525146E0,-9.439849854E0
3.654546970E-1,-3.187866211E-1,9.549346924E0,-9.445480347E0
3.704900980E-1,-3.347778320E-1,9.536239624E0,-9.430145264E0
3.755254980E-1,-3.129425049E-1,9.547088623E0,-9.431838989E0
3.805608990E-1,-3.188018799E-1,9.537277222E0,-9.434265137E0
3.855962990E-1,-3.024291992E-1,9.543899536E0,-9.492752075E0
3.906316990E-1,-2.736511230E-1,9.569015503E0,-9.476684570E0
3.956671000E-1,-3.159027100E-1,9.554779053E0,-9.445861816E0
4.007025000E-1,-3.323211670E-1,9.550964355E0,-9.473693848E0
4.057379010E-1,-3.286590576E-1,9.547012329E0,-9.462936401E0
4.107733010E-1,-3.217926025E-1,9.551422119E0,-9.464981079E0
4.158087010E-1,-2.980194092E-1,9.554428101E0,-9.434188843E0
4.208441020E-1,-2.860870361E-1,9.582778931E0,-9.439239502E0
4.258795020E-1,-2.857666016E-1,9.591583252E0,-9.448394775E0
4.309149020E-1,-2.833557129E-1,9.578063965E0,-9.439132690E0
4.359503030E-1,-2.991638184E-1,9.556488037E0,-9.443084717E0
4.409857030E-1,-2.845764160E-1,9.533874512E0,-9.413375854E0
4.460211040E-1,-2.816772461E-1,9.555389404E0,-9.416168213E0
4.510565040E-1,-3.037261963E-1,9.553894043E0,-9.453582764E0
4.560919040E-1,-3.235321045E-1,9.558792114E0,-9.470932007E0
4.611273050E-1,-3.116607666E-1,9.563125610E0,-9.470260620E0
4.661627050E-1,-2.966308594E-1,9.553543091E0,-9.471130371E0
4.711981060E-1,-2.914581299E-1,9.559371948E0,-9.425430298E0
4.762335060E-1,-2.842254639E-1,9.551452637E0,-9.472122192E0
4.812689060E-1,-2.856445312E-1,9.554763794E0,-9.478195190E0
4.863043070E-1,-3.045349121E-1,9.559906006E0,-9.453842163E0
4.913397070E-1,-3.087005615E-1,9.538131714E0,-9.464981079E0
4.963751080E-1,-3.324737549E-1,9.549957275E0,-9.448165894E0
5.014105080E-1,-3.263092041E-1,9.563751221E0,-9.476348877E0
5.064459080E-1,-3.067779541E-1,9.565322876E0,-9.480651855E0
5.114813090E-1,-3.300628662E-1,9.537216187E0,-9.457351685E0
5.165167090E-1,-3.219604492E-1,9.565795898E0,-9.486373901E0
5.215521100E-1,-3.039550781E-1,9.558532715E0,-9.449478149E0
5.265875100E-1,-3.088531494E-1,9.550476074E0,-9.426589966E0
5.316229100E-1,-3.122711182E-1,9.572387695E0,-9.484817505E0
5.366583110E-1,-2.827301025E-1,9.568237305E0,-9.510986328E0
5.416937110E-1,-2.594451904E-1,9.542541504E0,-9.461029053E0
5.467291110E-1,-2.874755859E-1,9.520812988E0,-9.427078247E0
5.517645120E-1,-3.052978516E-1,9.539871216E0,-9.449203491E0
5.567999120E-1,-3.000946045E-1,9.547088623E0,-9.518722534E0
5.618353130E-1,-3.055267334E-1,9.558380127E0,-9.505935669E0
5.668707130E-1,-2.980041504E-1,9.534744263E0,-9.499893188E0
5.719061130E-1,-2.782745361E-1,9.535751343E0,-9.467605591E0
5.769415140E-1,-3.054962158E-1,9.574737549E0,-9.475555420E0
5.819769140E-1,-3.261871338E-1,9.562927246E0,-9.482925415E0
5.870123150E-1,-2.584075928E-1,9.581146240E0,-9.465576172E0
5.920477150E-1,-2.824249268E-1,9.556549072E0,-9.435714722E0
5.970831150E-1,-3.214569092E-1,9.560089111E0,-9.482864380E0
6.021185160E-1,-3.140258789E-1,9.559280396E0,-9.428207397E0
6.071539160E-1,-3.038024902E-1,9.552627563E0,-9.453323364E0
6.121893170E-1,-3.027496338E-1,9.584045410E0,-9.421035767E0
6.172247170E-1,-3.005828857E-1,9.565780640E0,-9.404006958E0
6.222601170E-1,-3.158111572E-1,9.579177856E0,-9.427032471E0
6.272955180E-1,-2.656555176E-1,9.553588867E0,-9.455780029E0
6.323309180E-1,-3.185272217E-1,9.542846680E0,-9.444030762E0
6.373663180E-1,-2.762451172E-1,9.549148560E0,-9.504760742E0
6.424017190E-1,-3.249511719E-1,9.563308716E0,-9.445220947E0
6.474371190E-1,-2.938537598E-1,9.566085815E0,-9.440902710E0
6.524725200E-1,-3.050689697E-1,9.599243164E0,-9.429031372E0
6.575079200E-1,-3.357543945E-1,9.516357422E0,-9.438446045E0
6.625433200E-1,-2.841491699E-1,9.552413940E0,-9.432037354E0
6.675787210E-1,-3.076629639E-1,9.581848145E0,-9.469726562E0
6.726141210E-1,-3.114013672E-1,9.553161621E0,-9.476745605E0
6.776495220E-1,-2.869110107E-1,9.584808350E0,-9.422439575E0
6.826849220E-1,-2.621002197E-1,9.539596558E0,-9.469665527E0
6.877203220E-1,-2.961425781E-1,9.569656372E0,-9.404602051E0
6.927557230E-1,-3.037719727E-1,9.555236816E0,-9.456909180E0
6.977911230E-1,-3.109283447E-1,9.564727783E0,-9.453887939E0
7.028265240E-1,-2.749938965E-1,9.553161621E0,-9.475311279E0
7.078619240E-1,-2.628631592E-1,9.560852051E0,-9.383300781E0
7.128973240E-1,-2.696990967E-1,9.544052124E0,-9.352111816E0
7.179327250E-1,-2.935180664E-1,9.575958252E0,-9.401382446E0
7.229681250E-1,-3.227233887E-1,9.583541870E0,-9.419265747E0
7.280035260E-1,-3.095397949E-1,9.546615601E0,-9.397277832E0
7.330389260E-1,-2.883758545E-1,9.594039917E0,-9.363479614E0
7.380743260E-1,-3.031158447E-1,9.545272827E0,-9.393142700E0
7.431097270E-1,-2.785339355E-1,9.539962769E0,-9.408554077E0
7.481451270E-1,-2.996978760E-1,9.548950195E0,-9.432876587E0
7.531805270E-1,-3.049316406E-1,9.548706055E0,-9.427139282E0
7.582159280E-1,-2.746429443E-1,9.562713623E0,-9.408874512E0
7.632513280E-1,-2.877960205E-1,9.580001831E0,-9.457244873E0
7.682867290E-1,-2.874908447E-1,9.550079346E0,-9.399642944E0
7.733221290E-1,-2.574615479E-1,9.552490234E0,-9.387588501E0
7.783575290E-1,-2.886657715E-1,9.564971924E0,-9.410110474E0
7.833929300E-1,-3.047027588E-1,9.579696655E0,-9.428253174E0
7.884283300E-1,-2.796478271E-1,9.548004150E0,-9.397293091E0
7.934637310E-1,-3.050384521E-1,9.532546997E0,-9.392593384E0
7.984991310E-1,-3.035888672E-1,9.523956299E0,-9.409774780E0
8.035345310E-1,-2.916717529E-1,9.553298950E0,-9.438827515E0
8.085699320E-1,-3.082122803E-1,9.536499023E0,-9.407775879E0
8.136053320E-1,-3.076477051E-1,9.547195435E0,-9.421371460E0
8.186407330E-1,-2.762298584E-1,9.583389282E0,-9.438766479E0
8.236761330E-1,-2.983245850E-1,9.573959351E0,-9.428466797E0
8.287115330E-1,-2.780151367E-1,9.559951782E0,-9.379470825E0
8.337469340E-1,-2.821502686E-1,9.564010620E0,-9.388046265E0
8.387823340E-1,-3.033752441E-1,9.561996460E0,-9.402664185E0
8.438177350E-1,-3.013916016E-1,9.546066284E0,-9.413711548E0
8.488531350E-1,-2.795715332E-1,9.554229736E0,-9.444076538E0
8.538885350E-1,-2.979583740E-1,9.565032959E0,-9.432861328E0
8.589239360E-1,-3.297424316E-1,9.543624878E0,-9.401214600E0
8.639593360E-1,-3.227386475E-1,9.534988403E0,-9.384262085E0
8.689947360E-1,-3.195953369E-1,9.572006226E0,-9.399230957E0
8.740301370E-1,-3.003234863E-1,9.573257446E0,-9.392028809E0
8.790655370E-1,-2.908477783E-1,9.558685303E0,-9.358078003E0
8.841009380E-1,-3.158416748E-1,9.549575806E0,-9.392562866E0
8.891363380E-1,-3.346099854E-1,9.562118530E0,-9.436447144E0
8.941717380E-1,-2.855987549E-1,9.557815552E0,-9.431808472E0
8.992071390E-1,-2.612915039E-1,9.567016602E0,-9.406875610E0
9.042425390E-1,-3.193511963E-1,9.574630737E0,-9.410903931E0
9.092779400E-1,-3.065643311E-1,9.568511963E0,-9.411926270E0
9.143133400E-1,-2.902221680E-1,9.548675537E0,-9.412185669E0
9.193487400E-1,-2.911987305E-1,9.561203003E0,-9.420379639E0
9.243841410E-1,-3.058319092E-1,9.555908203E0,-9.401748657E0
9.294195410E-1,-2.833251953E-1,9.537811279E0,-9.408920288E0
9.344549420E-1,-2.668914795E-1,9.561248779E0,-9.397979736E0
9.394903420E-1,-2.694244385E-1,9.557006836E0,-9.361267090E0
9.445257420E-1,-2.993927002E-1,9.556549072E0,-9.371688843E0
9.495611430E-1,-3.162689209E-1,9.540481567E0,-9.403015137E0
9.545965430E-1,-2.957763672E-1,9.543502808E0,-9.407394409E0
9.596319430E-1,-3.060760498E-1,9.584426880E0,-9.440124512E0
9.646673440E-1,-3.027954102E-1,9.580810547E0,-9.490722656E0
9.697027440E-1,-2.583618164E-1,9.580154419E0,-9.463775635E0
9.747381450E-1,-2.800445557E-1,9.554748535E0,-9.430480957E0
9.797735450E-1,-3.074951172E-1,9.523315430E0,-9.393920898E0
9.848089450E-1,-2.978820801E-1,9.561126709E0,-9.432327271E0
9.898443460E-1,-3.279113770E-1,9.559219360E0,-9.442535400E0
9.948797460E-1,-2.716979980E-1,9.567199707E0,-9.461257935E0
9.999151470E-1,-2.433471680E-1,9.559585571E0,-9.444442749E0
1.004950547E0,-2.638244629E-1,9.548950195E0,-9.467178345E0
1.009985947E0,-2.927398682E-1,9.574279785E0,-9.445053101E0
1.015021348E0,-2.863159180E-1,9.549240112E0,-9.426803589E0
1.020056748E0,-3.056640625E-1,9.558288574E0,-9.416213989E0
1.025092149E0,-2.530670166E-1,9.571517944E0,-9.398437500E0
1.030127549E0,-2.555999756E-1,9.550613403E0,-9.430648804E0
1.035162949E0,-2.846832275E-1,9.557525635E0,-9.440277100E0
1.040198350E0,-3.032989502E-1,9.548400879E0,-9.385803223E0
1.045233750E0,-2.646026611E-1,9.574813843E0,-9.393905640E0
1.050269151E0,-2.815246582E-1,9.578033447E0,-9.410766602E0
1.055304551E0,-2.815246582E-1,9.569259644E0,-9.407913208E0
1.060339951E0,-2.902069092E-1,9.526336670E0,-9.389785767E0
1.065375352E0,-2.998504639E-1,9.552520752E0,-9.433471680E0
1.070410752E0,-2.662048340E-1,9.540557861E0,-9.404205322E0
1.075446152E0,-2.900543213E-1,9.567626953E0,-9.448928833E0
1.080481553E0,-2.908477783E-1,9.561492920E0,-9.380294800E0
1.085516953E0,-2.837524414E-1,9.523513794E0,-9.445220947E0
1.090552354E0,-2.694244385E-1,9.535186768E0,-9.412307739E0
1.095587754E0,-2.957000732E-1,9.578048706E0,-9.463973999E0
1.100623154E0,-3.021087646E-1,9.580810547E0,-9.408767700E0
1.105658555E0,-2.755279541E-1,9.594619751E0,-9.457092285E0
1.110693955E0,-2.481231689E-1,9.530761719E0,-9.446090698E0
1.115729356E0,-2.519989014E-1,9.538879395E0,-9.452667236E0
1.120764756E0,-2.742919922E-1,9.557403564E0,-9.416961670E0
1.125800156E0,-2.474670410E-1,9.539398193E0,-9.443786621E0
1.130835557E0,-2.670440674E-1,9.560379028E0,-9.432327271E0
1.135870957E0,-2.685394287E-1,9.573760986E0,-9.499572754E0
1.140906358E0,-2.818908691E-1,9.581634521E0,-9.434402466E0
1.145941758E0,-2.817993164E-1,9.603454590E0,-9.457839966E0
1.150977158E0,-2.561340332E-1,9.566467285E0,-9.452850342E0
1.156012559E0,-2.714691162E-1,9.567779541E0,-9.413940430E0
1.161047959E0,-2.440338135E-1,9.561767578E0,-9.442016602E0
1.166083360E0,-2.534790039E-1,9.547637939E0,-9.462127686E0
1.171118760E0,-2.719421387E-1,9.527603149E0,-9.414871216E0
1.176154160E0,-2.506866455E-1,9.533599854E0,-9.407028198E0
1.181189561E0,-2.809295654E-1,9.562652588E0,-9.426589966E0
1.186224961E0,-2.516632080E-1,9.555770874E0,-9.457611084E0
1.191260361E0,-2.863006592E-1,9.575271606E0,-9.418563843E0
1.196295762E0,-2.913665771E-1,9.558151245E0,-9.457427979E0
1.201331162E0,-2.533416748E-1,9.533401489E0,-9.452621460E0
1.206366563E0,-2.480010986E-1,9.537109375E0,-9.440185547E0
1.211401963E0,-2.493591309E-1,9.545013428E0,-9.484619141E0
1.216437363E0,-2.618865967E-1,9.567260742E0,-9.420959473E0
1.221472764E0,-2.793579102E-1,9.588973999E0,-9.400024414E0
1.226508164E0,-2.709197998E-1,9.551986694E0,-9.447265625E0
1.231543565E0,-2.718658447E-1,9.540893555E0,-9.458786011E0
1.236578965E0,-2.734832764E-1,9.540084839E0,-9.465209961E0
1.241614365E0,-2.827606201E-1,9.560409546E0,-9.450836182E0
1.246649766E0,-2.748565674E-1,9.560256958E0,-9.474533081E0
1.251685166E0,-2.797851562E-1,9.560256958E0,-9.408599854E0
1.256720567E0,-2.868957520E-1,9.553192139E0,-9.401382446E0
1.261755967E0,-2.672271729E-1,9.575561523E0,-9.438156128E0
1.266791367E0,-2.412109375E-1,9.572189331E0,-9.453567505E0
1.271826768E0,-2.490234375E-1,9.541702271E0,-9.447555542E0
1.276862168E0,-2.745208740E-1,9.547470093E0,-9.387817383E0
1.281897568E0,-2.749023438E-1,9.570175171E0,-9.425857544E0
1.286932969E0,-2.822113037E-1,9.550979614E0,-9.429229736E0
1.291968369E0,-2.618255615E-1,9.545974731E0,-9.407043457E0
1.297003770E0,-2.469787598E-1,9.543563843E0,-9.446258545E0
1.302039170E0,-2.549285889E-1,9.554000854E0,-9.459915161E0
1.307074570E0,-2.634582520E-1,9.575698853E0,-9.463500977E0
1.312109971E0,-2.843017578E-1,9.565658569E0,-9.469482422E0
1.317145371E0,-2.915802002E-1,9.563018799E0,-9.466903687E0
1.322180772E0,-2.413787842E-1,9.560424805E0,-9.448471069E0
1.327216172E0,-2.333221436E-1,9.562896729E0,-9.424407959E0
1.332251572E0,-2.594146729E-1,9.579360962E0,-9.408035278E0
1.337286973E0,-2.701110840E-1,9.564102173E0,-9.421798706E0
1.342322373E0,-2.811279297E-1,9.569869995E0,-9.431945801E0
1.347357774E0,-2.875061035E-1,9.579971313E0,-9.451492310E0
1.352393174E0,-2.970581055E-1,9.546539307E0,-9.468475342E0
1.357428574E0,-2.633209229E-1,9.556320190E0,-9.482574463E0
1.362463975E0,-2.355041504E-1,9.548828125E0,-9.468505859E0
1.367499375E0,-2.671356201E-1,9.540390015E0,-9.433883667E0
1.372534776E0,-2.830047607E-1,9.553985596E0,-9.441940308E0
1.377570176E0,-2.908020020E-1,9.552673340E0,-9.459075928E0
1.382605576E0,-2.667083740E-1,9.554275513E0,-9.414093018E0
1.387640977E0,-2.723999023E-1,9.536972046E0,-9.382705688E0
1.392676377E0,-2.730102539E-1,9.551345825E0,-9.440567017E0
1.397711777E0,-2.525939941E-1,9.544525146E0,-9.446838379E0
1.402747178E0,-2.592926025E-1,9.551223755E0,-9.388931274E0
1.407782578E0,-2.959442139E-1,9.572235107E0,-9.409423828E0
1.412817979E0,-3.075103760E-1,9.597457886E0,-9.372955322E0
1.417853379E0,-3.039245605E-1,9.557510376E0,-9.401870728E0
1.422888779E0,-2.772064209E-1,9.525894165E0,-9.413406372E0
1.427924180E0,-2.768554688E-1,9.545013428E0,-9.373352051E0
1.432959580E0,-2.752075195E-1,9.549972534E0,-9.384780884E0
1.437994981E0,-2.646942139E-1,9.566543579E0,-9.444030762E0
1.443030381E0,-2.834930420E-1,9.565109253E0,-9.405487061E0
1.448065781E0,-3.021697998E-1,9.546127319E0,-9.395217896E0
1.453101182E0,-3.051300049E-1,9.566146851E0,-9.431381226E0
1.458136582E0,-2.910308838E-1,9.576934814E0,-9.422363281E0
1.463171983E0,-2.598571777E-1,9.565765381E0,-9.417404175E0
1.468207383E0,-2.675933838E-1,9.534713745E0,-9.394256592E0
1.473242783E0,-2.652282715E-1,9.534622192E0,-9.445556641E0
1.478278184E0,-2.859954834E-1,9.556503296E0,-9.397338867E0
1.483313584E0,-2.798309326E-1,9.597885132E0,-9.434097290E0
1.488348985E0,-2.877197266E-1,9.582107544E0,-9.464767456E0
1.493384385E0,-2.906799316E-1,9.556137085E0,-9.453811646E0
1.498419785E0,-2.930908203E-1,9.551986694E0,-9.430419922E0
1.503455186E0,-2.728576660E-1,9.538253784E0,-9.404067993E0
1.508490586E0,-2.695159912E-1,9.546737671E0,-9.432586670E0
1.513525986E0,-2.880096436E-1,9.547088623E0,-9.377990723E0
1.518561387E0,-2.555541992E-1,9.568237305E0,-9.381301880E0
1.523596787E0,-2.575225830E-1,9.592315674E0,-9.440872192E0
1.528632188E0,-2.789459229E-1,9.568878174E0,-9.448318481E0
1.533667588E0,-2.801361084E-1,9.598831177E0,-9.473144531E0
1.538702988E0,-3.399353027E-1,9.564376831E0,-9.417785645E0
1.543738389E0,-2.388610840E-1,9.510421753E0,-9.438308716E0
1.548773789E0,-2.990570068E-1,9.542984009E0,-9.381484985E0
1.553809190E0,-2.785034180E-1,9.552780151E0,-9.386306763E0
1.558844590E0,-3.030548096E-1,9.532424927E0,-9.419357300E0
1.563879990E0,-2.793884277E-1,9.530441284E0,-9.388244629E0
1.568915391E0,-2.837066650E-1,9.557449341E0,-9.367034912E0
1.573950791E0,-2.801055908E-1,9.582946777E0,-9.408096313E0
1.578986192E0,-2.564239502E-1,9.563690186E0,-9.414123535E0
1.584021592E0,-2.819824219E-1,9.545150757E0,-9.430755615E0
1.589056992E0,-2.811889648E-1,9.532806396E0,-9.446319580E0
1.594092393E0,-2.573242188E-1,9.535079956E0,-9.387054443E0
1.599127793E0,-2.882843018E-1,9.550354004E0,-9.424011230E0
1.604163193E0,-3.152313232E-1,9.568313599E0,-9.456649780E0
1.609198594E0,-2.874908447E-1,9.578033447E0,-9.438369751E0
1.614233994E0,-2.879333496E-1,9.575134277E0,-9.382354736E0
1.619269395E0,-2.675628662E-1,9.558197021E0,-9.412811279E0
1.624304795E0,-2.787475586E-1,9.545837402E0,-9.465179443E0
1.629340195E0,-3.043060303E-1,9.566528320E0,-9.425903320E0
1.634375596E0,-2.807464600E-1,9.541748047E0,-9.421157837E0
1.639410996E0,-2.835845947E-1,9.557983398E0,-9.401550293E0
1.644446397E0,-2.876739502E-1,9.567199707E0,-9.424163818E0
1.649481797E0,-3.130035400E-1,9.560379028E0,-9.400451660E0
1.654517197E0,-2.943420410E-1,9.560256958E0,-9.399017334E0
1.659552598E0,-2.741851807E-1,9.563613892E0,-9.421279907E0
1.664587998E0,-2.908935547E-1,9.538574219E0,-9.409362793E0
1.669623399E0,-3.092193604E-1,9.570861816E0,-9.394073486E0
1.674658799E0,-2.676544189E-1,9.573043823E0,-9.390197754E0
1.679694199E0,-2.788696289E-1,9.553054810E0,-9.402252197E0
1.684729600E0,-3.209228516E-1,9.547546387E0,-9.389892578E0
1.689765000E0,-3.096160889E-1,9.551254272E0,-9.388137817E0
1.694800401E0,-2.840423584E-1,9.546005249E0,-9.425765991E0
1.699835801E0,-2.779693604E-1,9.554687500E0,-9.412261963E0
1.704871201E0,-2.918395996E-1,9.562896729E0,-9.394592285E0
1.709906602E0,-2.972717285E-1,9.572540283E0,-9.369750977E0
1.714942002E0,-2.975769043E-1,9.570770264E0,-9.420593262E0
1.719977402E0,-3.025817871E-1,9.563491821E0,-9.400421143E0
1.725012803E0,-3.038940430E-1,9.545318604E0,-9.369979858E0
1.730048203E0,-3.052368164E-1,9.527603149E0,-9.404678345E0
1.735083604E0,-3.093719482E-1,9.544296265E0,-9.408660889E0
1.740119004E0,-2.815551758E-1,9.568237305E0,-9.389526367E0
1.745154404E0,-2.861938477E-1,9.570816040E0,-9.394424438E0
1.750189805E0,-2.953948975E-1,9.565109253E0,-9.382293701E0
1.755225205E0,-2.771759033E-1,9.569625854E0,-9.357894897E0
1.760260606E0,-2.555541992E-1,9.583831787E0,-9.353485107E0
1.765296006E0,-2.651214600E-1,9.569778442E0,-9.345413208E0
1.770331406E0,-2.839965820E-1,9.535125732E0,-9.397811890E0
1.775366807E0,-3.010406494E-1,9.551467896E0,-9.432723999E0
1.780402207E0,-3.108978271E-1,9.558395386E0,-9.402786255E0
1.785437608E0,-3.014068604E-1,9.559371948E0,-9.399368286E0
1.790473008E0,-2.927246094E-1,9.555999756E0,-9.387817383E0
1.795508408E0,-2.776641846E-1,9.565582275E0,-9.419113159E0
1.800543809E0,-2.902832031E-1,9.536911011E0,-9.402435303E0
1.805579209E0,-2.936401367E-1,9.542617798E0,-9.400894165E0
1.810614610E0,-2.652587891E-1,9.545043945E0,-9.403839111E0
1.815650010E0,-2.716979980E-1,9.561218262E0,-9.375930786E0
1.820685410E0,-2.765197754E-1,9.578079224E0,-9.369506836E0
1.825720811E0,-2.938232422E-1,9.560775757E0,-9.393096924E0
1.830756211E0,-3.160705566E-1,9.536865234E0,-9.409439087E0
1.835791611E0,-3.082427979E-1,9.562606812E0,-9.432632446E0
1.840827012E0,-2.820739746E-1,9.560134888E0,-9.418457031E0
1.845862412E0,-2.741851807E-1,9.564743042E0,-9.395904541E0
1.850897813E0,-2.883605957E-1,9.586212158E0,-9.435150146E0
1.855933213E0,-3.022155762E-1,9.572555542E0,-9.437805176E0
1.860968613E0,-2.777557373E-1,9.547866821E0,-9.409988403E0
1.866004014E0,-2.916870117E-1,9.564575195E0,-9.439865112E0
1.871039414E0,-2.961120605E-1,9.535095215E0,-9.433425903E0
1.876074815E0,-2.650146484E-1,9.579223633E0,-9.383056641E0
1.881110215E0,-2.866668701E-1,9.584533691E0,-9.354354858E0
1.886145615E0,-2.736358643E-1,9.565155029E0,-9.393524170E0
1.891181016E0,-2.753906250E-1,9.547454834E0,-9.388870239E0
1.896216416E0,-2.886657715E-1,9.548736572E0,-9.359924316E0
1.901251817E0,-2.683715820E-1,9.559677124E0,-9.389923096E0
1.906287217E0,-3.061523438E-1,9.555145264E0,-9.385269165E0
1.911322617E0,-3.017578125E-1,9.566833496E0,-9.394256592E0
1.916358018E0,-3.088989258E-1,9.570632935E0,-9.412689209E0
1.921393418E0,-2.796325684E-1,9.536300659E0,-9.481674194E0
1.926428818E0,-2.787170410E-1,9.539245605E0,-9.473419189E0
1.931464219E0,-2.900390625E-1,9.582061768E0,-9.418609619E0
1.936499619E0,-3.110961914E-1,9.526687622E0,-9.412429810E0
1.941535020E0,-2.556762695E-1,9.527801514E0,-9.421356201E0
1.946570420E0,-2.619476318E-1,9.564727783E0,-9.476852417E0
1.951605820E0,-3.017578125E-1,9.549865723E0,-9.420898438E0
1.956641221E0,-3.239135742E-1,9.537704468E0,-9.386520386E0
1.961676621E0,-2.956085205E-1,9.528045654E0,-9.400405884E0
1.966712022E0,-2.787475586E-1,9.533264160E0,-9.407135010E0
1.971747422E0,-2.624664307E-1,9.570541382E0,-9.375381470E0
1.976782822E0,-2.695159912E-1,9.556076050E0,-9.419982910E0
1.981818223E0,-2.736663818E-1,9.543136597E0,-9.376007080E0
1.986853623E0,-3.095092773E-1,9.558319092E0,-9.454879761E0
1.991889024E0,-3.010101318E-1,9.545852661E0,-9.408340454E0
1.996924424E0,-2.769165039E-1,9.535491943E0,-9.385238647E0
2.001959824E0,-2.562408447E-1,9.585113525E0,-9.360260010E0
2.006995225E0,-2.692871094E-1,9.540542603E0,-9.448837280E0
2.012030625E0,-2.868041992E-1,9.566406250E0,-9.376159668E0
2.017066026E0,-2.665252686E-1,9.566665649E0,-9.390258789E0
2.022101426E0,-2.244262695E-1,9.550186157E0,-9.387130737E0
2.027136826E0,-2.811584473E-1,9.527847290E0,-9.392532349E0
2.032172227E0,-2.698059082E-1,9.543884277E0,-9.388504028E0
2.037207627E0,-2.765197754E-1,9.565017700E0,-9.391464233E0
2.042243027E0,-2.513885498E-1,9.568176270E0,-9.406967163E0
2.047278428E0,-2.851257324E-1,9.552261353E0,-9.415649414E0
2.052313828E0,-2.833709717E-1,9.541778564E0,-9.411819458E0
2.057349229E0,-2.903289795E-1,9.557189941E0,-9.391098022E0
2.062384629E0,-2.834777832E-1,9.533981323E0,-9.414840698E0
2.067420029E0,-2.676391602E-1,9.559020996E0,-9.420394897E0
2.072455430E0,-2.718811035E-1,9.547546387E0,-9.449478149E0
2.077490830E0,-2.821655273E-1,9.548034668E0,-9.412368774E0
2.082526231E0,-2.747344971E-1,9.587493896E0,-9.406021118E0
2.087561631E0,-2.525329590E-1,9.595275879E0,-9.432907104E0
2.092597031E0,-2.843933105E-1,9.578720093E0,-9.431610107E0
2.097632432E0,-2.617034912E-1,9.557037354E0,-9.449478149E0
2.102667832E0,-2.751464844E-1,9.553161621E0,-9.433547974E0
2.107703233E0,-2.630920410E-1,9.574035645E0,-9.438369751E0
2.112738633E0,-2.779846191E-1,9.570892334E0,-9.410278320E0
2.117774033E0,-2.906951904E-1,9.577774048E0,-9.406173706E0
2.122809434E0,-2.782897949E-1,9.589035034E0,-9.425415039E0
2.127844834E0,-2.778472900E-1,9.585739136E0,-9.419448853E0
2.132880235E0,-2.565002441E-1,9.565963745E0,-9.420379639E0
2.137915635E0,-2.516937256E-1,9.558258057E0,-9.407363892E0
2.142951035E0,-2.589416504E-1,9.570266724E0,-9.401016235E0
2.147986436E0,-2.857513428E-1,9.556610107E0,-9.422836304E0
2.153021836E0,-2.726440430E-1,9.571380615E0,-9.416839600E0
2.158057236E0,-2.614288330E-1,9.579101562E0,-9.424835205E0
2.163092637E0,-2.586364746E-1,9.553924561E0,-9.475402832E0
2.168128037E0,-2.756500244E-1,9.528900146E0,-9.475036621E0
2.173163438E0,-2.609405518E-1,9.559402466E0,-9.428024292E0
2.178198838E0,-2.360534668E-1,9.582794189E0,-9.440734863E0
2.183234238E0,-2.735137939E-1,9.559799194E0,-9.487747192E0
2.188269639E0,-2.767944336E-1,9.585861206E0,-9.466354370E0
2.193305039E0,-2.564239502E-1,9.577194214E0,-9.417846680E0
2.198340440E0,-2.497253418E-1,9.534103394E0,-9.453887939E0
2.203375840E0,-2.577819824E-1,9.573486328E0,-9.450164795E0
2.208411240E0,-2.559967041E-1,9.565246582E0,-9.442276001E0
2.213446641E0,-2.346496582E-1,9.557144165E0,-9.458541870E0
2.218482041E0,-2.644348145E-1,9.573272705E0,-9.460327148E0
2.223517442E0,-2.765502930E-1,9.563247681E0,-9.457992554E0
2.228552842E0,-2.569580078E-1,9.575363159E0,-9.482559204E0
2.233588242E0,-2.770080566E-1,9.553543091E0,-9.479675293E0
2.238623643E0,-2.841796875E-1,9.552429199E0,-9.471572876E0
2.243659043E0,-2.682189941E-1,9.569869995E0,-9.446594238E0
2.248694443E0,-2.669830322E-1,9.551391602E0,-9.454788208E0
2.253729844E0,-2.582855225E-1,9.530395508E0,-9.436798096E0
2.258765244E0,-2.770843506E-1,9.541870117E0,-9.416961670E0
2.263800645E0,-2.637176514E-1,9.554412842E0,-9.437789917E0
2.268836045E0,-2.594909668E-1,9.556610107E0,-9.453048706E0
2.273871445E0,-2.725372314E-1,9.570266724E0,-9.460266113E0
2.278906846E0,-2.783050537E-1,9.572189331E0,-9.422561646E0
2.283942246E0,-2.877197266E-1,9.584899902E0,-9.418060303E0
2.288977647E0,-2.694702148E-1,9.570327759E0,-9.427169800E0
2.294013047E0,-2.586669922E-1,9.576416016E0,-9.441635132E0
2.299048447E0,-2.924957275E-1,9.580413818E0,-9.469543457E0
2.304083848E0,-2.840576172E-1,9.569183350E0,-9.381240845E0
2.309119248E0,-2.618713379E-1,9.543350220E0,-9.406433105E0
2.314154649E0,-2.633056641E-1,9.552978516E0,-9.452209473E0
2.319190049E0,-2.783660889E-1,9.556610107E0,-9.442291260E0
2.324225449E0,-2.793426514E-1,9.518859863E0,-9.482177734E0
2.329260850E0,-2.930603027E-1,9.593994141E0,-9.502944946E0
2.334296250E0,-2.649536133E-1,9.608978271E0,-9.456069946E0
2.339331651E0,-2.433166504E-1,9.561279297E0,-9.433486938E0
2.344367051E0,-2.931213379E-1,9.547958374E0,-9.420898438E0
2.349402451E0,-3.003692627E-1,9.525909424E0,-9.415206909E0
2.354437852E0,-2.531433105E-1,9.538299561E0,-9.418975830E0
2.359473252E0,-2.850036621E-1,9.570404053E0,-9.408554077E0
2.364508652E0,-3.061218262E-1,9.582092285E0,-9.449432373E0
2.369544053E0,-2.248535156E-1,9.576080322E0,-9.448303223E0
2.374579453E0,-2.556610107E-1,9.553009033E0,-9.457061768E0
2.379614854E0,-2.368927002E-1,9.574768066E0,-9.457534790E0
2.384650254E0,-2.593231201E-1,9.568679810E0,-9.450561523E0
2.389685654E0,-2.739257812E-1,9.580184937E0,-9.448043823E0
2.394721055E0,-2.481689453E-1,9.547286987E0,-9.419616699E0
2.399756455E0,-2.553100586E-1,9.539947510E0,-9.403305054E0
2.404791856E0,-2.812957764E-1,9.540206909E0,-9.487380981E0
2.409827256E0,-2.791748047E-1,9.554443359E0,-9.427139282E0
2.414862656E0,-2.845764160E-1,9.560455322E0,-9.369857788E0
2.419898057E0,-2.512054443E-1,9.540176392E0,-9.379791260E0
2.424933457E0,-2.664642334E-1,9.546020508E0,-9.397247314E0
2.429968858E0,-2.575225830E-1,9.567169189E0,-9.421646118E0
2.435004258E0,-2.579345703E-1,9.578369141E0,-9.423736572E0
2.440039658E0,-2.625274658E-1,9.554504395E0,-9.462188721E0
2.445075059E0,-2.636260986E-1,9.538330078E0,-9.397476196E0
2.450110459E0,-2.568969727E-1,9.563156128E0,-9.415802002E0
2.455145860E0,-2.710418701E-1,9.564437866E0,-9.437011719E0
2.460181260E0,-2.788848877E-1,9.597000122E0,-9.420013428E0
2.465216660E0,-2.673339844E-1,9.575195312E0,-9.463531494E0
2.470252061E0,-2.776489258E-1,9.537216187E0,-9.454666138E0
2.475287461E0,-2.564239502E-1,9.547515869E0,-9.432586670E0
2.480322861E0,-2.440338135E-1,9.556701660E0,-9.403778076E0
2.485358262E0,-2.628326416E-1,9.578872681E0,-9.436553955E0
2.490393662E0,-2.903594971E-1,9.551345825E0,-9.426406860E0
2.495429063E0,-3.141174316E-1,9.574569702E0,-9.409500122E0
2.500464463E0,-3.071594238E-1,9.583984375E0,-9.399108887E0
2.505499863E0,-2.866668701E-1,9.595703125E0,-9.451599121E0
2.510535264E0,-2.785644531E-1,9.519714355E0,-9.443557739E0
2.515570664E0,-2.831420898E-1,9.554031372E0,-9.394088745E0
2.520606065E0,-2.636413574E-1,9.547760010E0,-9.401428223E0
2.525641465E0,-2.733612061E-1,9.558578491E0,-9.391006470E0
2.530676865E0,-2.841491699E-1,9.568862915E0,-9.400177002E0
2.535712266E0,-2.734527588E-1,9.548233032E0,-9.456954956E0
2.540747666E0,-2.741851807E-1,9.559783936E0,-9.444869995E0
2.545783067E0,-3.002166748E-1,9.553329468E0,-9.435363770E0
2.550818467E0,-3.231658936E-1,9.557189941E0,-9.433425903E0
2.555853867E0,-2.813720703E-1,9.569610596E0,-9.394912720E0
2.560889268E0,-2.548675537E-1,9.557205200E0,-9.364654541E0
2.565924668E0,-2.578125000E-1,9.538589478E0,-9.422485352E0
2.570960068E0,-2.979736328E-1,9.538436890E0,-9.432846069E0
2.575995469E0,-3.064117432E-1,9.572708130E0,-9.412277222E0
2.581030869E0,-3.020324707E-1,9.558425903E0,-9.430053711E0
2.586066270E0,-2.919616699E-1,9.555068970E0,-9.422851562E0
2.591101670E0,-2.866516113E-1,9.572738647E0,-9.426315308E0
2.596137070E0,-3.116149902E-1,9.554244995E0,-9.406265259E0
2.601172471E0,-3.138732910E-1,9.538970947E0,-9.397842407E0
2.606207871E0,-2.892913818E-1,9.554229736E0,-9.421722412E0
2.611243272E0,-2.881164551E-1,9.539031982E0,-9.437057495E0
2.616278672E0,-3.015289307E-1,9.540039062E0,-9.407272339E0
2.621314072E0,-2.759857178E-1,9.556610107E0,-9.395355225E0
2.626349473E0,-2.712554932E-1,9.564086914E0,-9.416717529E0
2.631384873E0,-3.002319336E-1,9.560714722E0,-9.407379150E0
2.636420274E0,-3.146514893E-1,9.551849365E0,-9.446746826E0
2.641455674E0,-2.880859375E-1,9.539886475E0,-9.413558960E0
2.646491074E0,-2.738494873E-1,9.548080444E0,-9.383026123E0
2.651526475E0,-2.803344727E-1,9.564132690E0,-9.417053223E0
2.656561875E0,-2.997436523E-1,9.550537109E0,-9.420471191E0
2.661597276E0,-2.963714600E-1,9.537048340E0,-9.372756958E0
2.666632676E0,-3.110198975E-1,9.558639526E0,-9.420410156E0
2.671668076E0,-3.250732422E-1,9.580718994E0,-9.391082764E0
2.676703477E0,-3.059539795E-1,9.562393188E0,-9.376022339E0
2.681738877E0,-2.847747803E-1,9.578872681E0,-9.433502197E0
2.686774277E0,-2.962951660E-1,9.539489746E0,-9.418869019E0
2.691809678E0,-2.938995361E-1,9.541900635E0,-9.413253784E0
2.696845078E0,-2.999267578E-1,9.561508179E0,-9.439071655E0
2.701880479E0,-3.267822266E-1,9.555419922E0,-9.389739990E0
2.706915879E0,-2.954254150E-1,9.563705444E0,-9.383331299E0
2.711951279E0,-3.151397705E-1,9.535766602E0,-9.377090454E0
2.716986680E0,-2.871398926E-1,9.549407959E0,-9.366607666E0
2.722022080E0,-2.788848877E-1,9.557220459E0,-9.428298950E0
2.727057481E0,-3.010864258E-1,9.569183350E0,-9.448593140E0
2.732092881E0,-3.148193359E-1,9.576919556E0,-9.384109497E0
2.737128281E0,-3.170318604E-1,9.568756104E0,-9.414764404E0
2.742163682E0,-3.113861084E-1,9.575546265E0,-9.395050049E0
2.747199082E0,-2.984924316E-1,9.587539673E0,-9.431747437E0
2.752234483E0,-2.744140625E-1,9.534027100E0,-9.364212036E0
2.757269883E0,-2.870483398E-1,9.546340942E0,-9.357391357E0
2.762305283E0,-2.829132080E-1,9.549850464E0,-9.419509888E0
2.767340684E0,-3.236541748E-1,9.535354614E0,-9.409179688E0
2.772376084E0,-2.904357910E-1,9.543014526E0,-9.419464111E0
2.777411485E0,-2.691955566E-1,9.559219360E0,-9.392791748E0
2.782446885E0,-2.816772461E-1,9.563446045E0,-9.407302856E0
2.787482285E0,-2.858276367E-1,9.587036133E0,-9.443801880E0
2.792517686E0,-2.925415039E-1,9.549133301E0,-9.368576050E0
2.797553086E0,-2.779998779E-1,9.562103271E0,-9.425216675E0
2.802588486E0,-2.589263916E-1,9.557128906E0,-9.407089233E0
2.807623887E0,-2.776336670E-1,9.552139282E0,-9.443145752E0
2.812659287E0,-3.036956787E-1,9.565338135E0,-9.456878662E0
2.817694688E0,-2.686920166E-1,9.561569214E0,-9.432464600E0
2.822730088E0,-2.785949707E-1,9.582122803E0,-9.461334229E0
2.827765488E0,-2.626037598E-1,9.561752319E0,-9.371170044E0
2.832800889E0,-3.143310547E-1,9.577926636E0,-9.438064575E0
2.837836289E0,-2.768096924E-1,9.575653076E0,-9.433746338E0
2.842871690E0,-3.104705811E-1,9.558944702E0,-9.475784302E0
2.847907090E0,-3.399047852E-1,9.555374146E0,-9.432708740E0
2.852942490E0,-3.103332520E-1,9.515960693E0,-9.401367188E0
2.857977891E0,-3.219146729E-1,9.515457153E0,-9.427871704E0
2.863013291E0,-3.211212158E-1,9.590606689E0,-9.453353882E0
2.868048692E0,-2.720947266E-1,9.529785156E0,-9.463867188E0
2.873084092E0,-2.507324219E-1,9.550415039E0,-9.480438232E0
2.878119492E0,-3.014221191E-1,9.538665771E0,-9.453979492E0
2.883154893E0,-2.745056152E-1,9.569641113E0,-9.522384644E0
2.888190293E0,-3.384552002E-1,9.560089111E0,-9.454223633E0
2.893225693E0,-3.372344971E-1,9.571258545E0,-9.505920410E0
2.898261094E0,-3.238983154E-1,9.581527710E0,-9.418716431E0
2.903296494E0,-2.899475098E-1,9.532608032E0,-9.428634644E0
2.908331895E0,-2.789154053E-1,9.552185059E0,-9.361831665E0
2.913367295E0,-3.167724609E-1,9.589080811E0,-9.423721313E0
2.918402695E0,-3.206787109E-1,9.578384399E0,-9.384429932E0
2.923438096E0,-2.927398682E-1,9.552810669E0,-9.380477905E0
2.928473496E0,-2.788543701E-1,9.569107056E0,-9.438186646E0
2.933508897E0,-2.773132324E-1,9.571990967E0,-9.457778931E0
2.938544297E0,-3.106842041E-1,9.547317505E0,-9.466491699E0
2.943579697E0,-3.312835693E-1,9.558486938E0,-9.454742432E0
2.948615098E0,-3.311004639E-1,9.547225952E0,-9.411315918E0
2.953650498E0,-2.958526611E-1,9.575408936E0,-9.369110107E0
2.958685899E0,-2.713317871E-1,9.597305298E0,-9.367004395E0
2.963721299E0,-3.027191162E-1,9.549423218E0,-9.400756836E0
2.968756699E0,-2.937164307E-1,9.549728394E0,-9.414688110E0
2.973792100E0,-2.899475098E-1,9.574295044E0,-9.447723389E0
2.978827500E0,-2.771148682E-1,9.560699463E0,-9.458938599E0
2.983862901E0,-2.899627686E-1,9.555892944E0,-9.410751343E0
2.988898301E0,-2.750244141E-1,9.574325562E0,-9.428710938E0
2.993933701E0,-2.774353027E-1,9.569656372E0,-9.464172363E0
2.998969102E0,-2.816162109E-1,9.547637939E0,-9.484039307E0
3.004004502E0,-2.897186279E-1,9.566558838E0,-9.465698242E0
3.009039902E0,-2.872009277E-1,9.585586548E0,-9.452682495E0
3.014075303E0,-2.896118164E-1,9.569686890E0,-9.426177979E0
3.019110703E0,-3.092956543E-1,9.561782837E0,-9.397445679E0
3.024146104E0,-2.959442139E-1,9.575958252E0,-9.426589966E0
3.029181504E0,-2.742462158E-1,9.555267334E0,-9.439193726E0
3.034216904E0,-2.795867920E-1,9.573898315E0,-9.459472656E0
3.039252305E0,-3.014831543E-1,9.574707031E0,-9.460235596E0
3.044287705E0,-2.902984619E-1,9.551849365E0,-9.443832397E0
3.049323106E0,-2.765655518E-1,9.548385620E0,-9.411727905E0
3.054358506E0,-2.671051025E-1,9.560073853E0,-9.400344849E0
3.059393906E0,-2.769165039E-1,9.572006226E0,-9.440216064E0
3.064429307E0,-2.906494141E-1,9.567260742E0,-9.461975098E0
3.069464707E0,-3.064270020E-1,9.573745728E0,-9.428466797E0
3.074500108E0,-2.802581787E-1,9.584274292E0,-9.450378418E0
3.079535508E0,-2.603302002E-1,9.570465088E0,-9.463500977E0
3.084570908E0,-2.500152588E-1,9.579437256E0,-9.467422485E0
3.089606309E0,-2.546844482E-1,9.577850342E0,-9.476486206E0
3.094641709E0,-2.619934082E-1,9.566543579E0,-9.490463257E0
3.099677110E0,-2.622985840E-1,9.539886475E0,-9.493682861E0
3.104712510E0,-2.597503662E-1,9.557403564E0,-9.474411011E0
3.109747910E0,-2.743988037E-1,9.592254639E0,-9.404861450E0
3.114783311E0,-2.695465088E-1,9.551315308E0,-9.428741455E0
3.119818711E0,-2.614440918E-1,9.549346924E0,-9.401794434E0
3.124854111E0,-2.794799805E-1,9.573120117E0,-9.401443481E0
3.129889512E0,-3.059844971E-1,9.558929443E0,-9.422622681E0
3.134924912E0,-2.741394043E-1,9.567291260E0,-9.406372070E0
3.139960313E0,-2.469940186E-1,9.552825928E0,-9.409423828E0
3.144995713E0,-2.532653809E-1,9.567382812E0,-9.453109741E0
3.150031113E0,-2.575225830E-1,9.571228027E0,-9.447357178E0
3.155066514E0,-2.644195557E-1,9.559890747E0,-9.419525146E0
3.160101914E0,-2.775726318E-1,9.567123413E0,-9.398284912E0
3.165137315E0,-2.617340088E-1,9.553070068E0,-9.407516479E0
3.170172715E0,-2.642059326E-1,9.563385010E0,-9.439468384E0
3.175208115E0,-2.707366943E-1,9.566665649E0,-9.449844360E0
3.180243516E0,-2.309417725E-1,9.562408447E0,-9.468963623E0
3.185278916E0,-2.554626465E-1,9.548095703E0,-9.440078735E0
3.190314317E0,-2.897338867E-1,9.542770386E0,-9.450622559E0
3.195349717E0,-3.286743164E-1,9.561767578E0,-9.459030151E0
3.200385117E0,-2.434234619E-1,9.550354004E0,-9.390899658E0
3.205420518E0,-2.762298584E-1,9.571090698E0,-9.448623657E0
3.210455918E0,-2.495574951E-1,9.567520142E0,-9.446044922E0
3.215491318E0,-2.617797852E-1,9.555831909E0,-9.404129028E0
3.220526719E0,-2.145538330E-1,9.564666748E0,-9.471099854E0
3.225562119E0,-2.727813721E-1,9.580856323E0,-9.464492798E0
3.230597520E0,-2.834625244E-1,9.514556885E0,-9.440963745E0
3.235632920E0,-2.772369385E-1,9.571456909E0,-9.440643311E0
3.240668320E0,-2.721862793E-1,9.573638916E0,-9.405822754E0
3.245703721E0,-2.762451172E-1,9.577697754E0,-9.489349365E0
3.250739121E0,-2.810668945E-1,9.528549194E0,-9.482116699E0
3.255774522E0,-2.699432373E-1,9.534774780E0,-9.408432007E0
3.260809922E0,-2.694244385E-1,9.569580078E0,-9.407455444E0
3.265845322E0,-2.694244385E-1,9.580169678E0,-9.440048218E0
3.270880723E0,-2.294616699E-1,9.556900024E0,-9.440872192E0
3.275916123E0,-2.313385010E-1,9.558990479E0,-9.481338501E0
3.280951524E0,-2.878875732E-1,9.573410034E0,-9.532974243E0
3.285986924E0,-2.406311035E-1,9.584121704E0,-9.474838257E0
3.291022324E0,-2.342224121E-1,9.543533325E0,-9.497238159E0
3.296057725E0,-3.071441650E-1,9.574005127E0,-9.413345337E0
3.301093125E0,-2.486572266E-1,9.537429810E0,-9.385833740E0
3.306128526E0,-2.984466553E-1,9.537261963E0,-9.421661377E0
3.311163926E0,-2.706756592E-1,9.567825317E0,-9.419250488E0
3.316199326E0,-2.579650879E-1,9.582077026E0,-9.418807983E0
3.321234727E0,-2.615509033E-1,9.528289795E0,-9.438339233E0
3.326270127E0,-2.628784180E-1,9.533996582E0,-9.458908081E0
3.331305527E0,-3.150482178E-1,9.562240601E0,-9.468841553E0
3.336340928E0,-2.663879395E-1,9.568511963E0,-9.453979492E0
3.341376328E0,-2.664947510E-1,9.574111938E0,-9.393753052E0
3.346411729E0,-2.923736572E-1,9.594818115E0,-9.420791626E0
3.351447129E0,-2.942504883E-1,9.538116455E0,-9.398284912E0
3.356482529E0,-2.646636963E-1,9.560684204E0,-9.394561768E0
3.361517930E0,-2.702789307E-1,9.544281006E0,-9.466720581E0
3.366553330E0,-2.907562256E-1,9.538253784E0,-9.442062378E0
3.371588731E0,-2.787170410E-1,9.556365967E0,-9.461532593E0
3.376624131E0,-2.802429199E-1,9.547088623E0,-9.449310303E0
3.381659531E0,-2.885589600E-1,9.545379639E0,-9.438796997E0
3.386694932E0,-2.297515869E-1,9.548324585E0,-9.434417725E0
3.391730332E0,-3.022003174E-1,9.566360474E0,-9.499282837E0
3.396765733E0,-2.402038574E-1,9.544448853E0,-9.532791138E0
3.401801133E0,-2.419128418E-1,9.545104980E0,-9.513885498E0
3.406836533E0,-2.482452393E-1,9.570892334E0,-9.484893799E0
3.411871934E0,-2.610168457E-1,9.574218750E0,-9.478057861E0
3.416907334E0,-2.851867676E-1,9.556091309E0,-9.475250244E0
3.421942735E0,-2.543487549E-1,9.573303223E0,-9.438629150E0
3.426978135E0,-2.501678467E-1,9.559799194E0,-9.389236450E0
3.432013535E0,-2.589721680E-1,9.557128906E0,-9.419998169E0
3.437048936E0,-2.889862061E-1,9.560852051E0,-9.470809937E0
3.442084336E0,-2.873229980E-1,9.565200806E0,-9.450088501E0
3.447119736E0,-2.996215820E-1,9.555526733E0,-9.414459229E0
3.452155137E0,-2.679595947E-1,9.582336426E0,-9.389755249E0
3.457190537E0,-2.394561768E-1,9.592117310E0,-9.442474365E0
3.462225938E0,-2.207489014E-1,9.589630127E0,-9.458572388E0
3.467261338E0,-2.654418945E-1,9.555633545E0,-9.410980225E0
3.472296738E0,-2.865142822E-1,9.541320801E0,-9.404708862E0
3.477332139E0,-2.617645264E-1,9.557312012E0,-9.469757080E0
3.482367539E0,-2.460174561E-1,9.556991577E0,-9.432983398E0
3.487402940E0,-2.407989502E-1,9.551773071E0,-9.388198853E0
3.492438340E0,-2.657165527E-1,9.547119141E0,-9.388549805E0
3.497473740E0,-2.957458496E-1,9.552062988E0,-9.431091309E0
3.502509141E0,-2.642822266E-1,9.567474365E0,-9.415542603E0
3.507544541E0,-2.594604492E-1,9.572158813E0,-9.383117676E0
3.512579942E0,-2.886962891E-1,9.543365479E0,-9.402343750E0
3.517615342E0,-2.935180664E-1,9.537124634E0,-9.427246094E0
3.522650742E0,-2.983093262E-1,9.574783325E0,-9.427444458E0
3.527686143E0,-3.003692627E-1,9.564849854E0,-9.430511475E0
3.532721543E0,-2.933654785E-1,9.560119629E0,-9.441421509E0
3.537756943E0,-2.698669434E-1,9.566589355E0,-9.409866333E0
3.542792344E0,-2.677459717E-1,9.565200806E0,-9.374816895E0
3.547827744E0,-2.682342529E-1,9.581024170E0,-9.379592896E0
3.552863145E0,-2.661743164E-1,9.550674438E0,-9.379440308E0
3.557898545E0,-2.118530273E-1,9.558700562E0,-9.384948730E0
3.562933945E0,-2.001037598E-1,9.583465576E0,-9.376815796E0
3.567969346E0,-2.274322510E-1,9.584365845E0,-9.375823975E0
3.573004746E0,-2.523193359E-1,9.548751831E0,-9.476226807E0
3.578040147E0,-2.401123047E-1,9.554244995E0,-9.492095947E0
3.583075547E0,-1.960754395E-1,9.567108154E0,-9.475585938E0
3.588110947E0,-2.292022705E-1,9.554840088E0,-9.446853638E0
3.593146348E0,-2.290039062E-1,9.539093018E0,-9.386016846E0
3.598181748E0,-2.340850830E-1,9.573730469E0,-9.360061646E0
3.603217149E0,-2.438354492E-1,9.566162109E0,-9.380706787E0
3.608252549E0,-2.510681152E-1,9.551742554E0,-9.375823975E0
3.613287949E0,-2.141265869E-1,9.577056885E0,-9.406799316E0
3.618323350E0,-2.326965332E-1,9.558990479E0,-9.403976440E0
3.623358750E0,-2.218780518E-1,9.591705322E0,-9.392807007E0
3.628394151E0,-2.343139648E-1,9.563507080E0,-9.415786743E0
3.633429551E0,-2.210083008E-1,9.530914307E0,-9.417938232E0
3.638464951E0,-1.855163574E-1,9.529602051E0,-9.381576538E0
3.643500352E0,-1.809844971E-1,9.560424805E0,-9.342208862E0
3.648535752E0,-1.976013184E-1,9.553939819E0,-9.409210205E0
3.653571152E0,-1.942291260E-1,9.568313599E0,-9.442413330E0
3.658606553E0,-1.702880859E-1,9.556274414E0,-9.380889893E0
3.663641953E0,-1.607208252E-1,9.539398193E0,-9.401473999E0
3.668677354E0,-1.942749023E-1,9.556884766E0,-9.370819092E0
3.673712754E0,-1.699066162E-1,9.582778931E0,-9.427627563E0
3.678748154E0,-1.517486572E-1,9.565444946E0,-9.346099854E0
3.683783555E0,-1.481933594E-1,9.523788452E0,-9.402877808E0
3.688818955E0,-1.255493164E-1,9.559127808E0,-9.373809814E0
3.693854356E0,-2.130737305E-1,9.552246094E0,-9.396896362E0
3.698889756E0,-1.270751953E-1,9.542617798E0,-9.319564819E0
3.703925156E0,-1.242218018E-1,9.598403931E0,-9.380172729E0
3.708960557E0,-1.171722412E-1,9.585342407E0,-9.484817505E0
3.713995957E0,-1.099395752E-1,9.554229736E0,-9.436111450E0
3.719031358E0,-7.914733887E-2,9.570831299E0,-9.441238403E0
3.724066758E0,-9.194946289E-2,9.566360474E0,-9.469772339E0
3.729102158E0,-1.327056885E-1,9.576690674E0,-9.387268066E0
3.734137559E0,-1.049499512E-1,9.603042603E0,-9.355636597E0
3.739172959E0,-9.356689453E-2,9.580703735E0,-9.364990234E0
3.744208360E0,4.562377930E-3,9.585678101E0,-9.363601685E0
3.749243760E0,-7.823181152E-2,9.592636108E0,-9.290802002E0
3.754279160E0,-3.051757812E-3,9.595977783E0,-9.322723389E0
3.759314561E0,-7.202148438E-3,9.582931519E0,-9.345764160E0
3.764349961E0,-2.148437500E-2,9.562637329E0,-9.464996338E0
3.769385361E0,-5.355834961E-3,9.555145264E0,-9.427658081E0
3.774420762E0,-4.391479492E-2,9.561019897E0,-9.394714355E0
3.779456162E0,-6.311035156E-2,9.561904907E0,-9.346374512E0
3.784491563E0,7.507324219E-3,9.573684692E0,-9.350799561E0
3.789526963E0,-3.509521484E-3,9.550582886E0,-9.348159790E0
3.794562363E0,3.237915039E-2,9.553024292E0,-9.320480347E0
3.799597764E0,1.280212402E-2,9.593658447E0,-9.298889160E0
3.804633164E0,2.960205078E-2,9.608474731E0,-9.325820923E0
3.809668565E0,3.367614746E-2,9.600814819E0,-9.330368042E0
3.814703965E0,2.755737305E-2,9.577072144E0,-9.302154541E0
3.819739365E0,3.450012207E-2,9.554443359E0,-9.316177368E0
3.824774766E0,5.778503418E-2,9.525222778E0,-9.272521973E0
3.829810166E0,4.527282715E-2,9.547210693E0,-9.276351929E0
3.834845567E0,4.789733887E-2,9.556854248E0,-9.274826050E0
3.839880967E0,5.485534668E-2,9.568542480E0,-9.294525146E0
3.844916367E0,2.098083496E-2,9.581115723E0,-9.269485474E0
3.849951768E0,3.512573242E-2,9.582046509E0,-9.326354980E0
3.854987168E0,7.470703125E-2,9.575759888E0,-9.380630493E0
3.860022568E0,8.676147461E-2,9.568527222E0,-9.317169189E0
3.865057969E0,4.492187500E-2,9.574096680E0,-9.354675293E0
3.870093369E0,2.383422852E-2,9.570480347E0,-9.378204346E0
3.875128770E0,9.207153320E-2,9.562255859E0,-9.345046997E0
3.880164170E0,6.294250488E-2,9.566482544E0,-9.361740112E0
3.885199570E0,2.206420898E-2,9.564346313E0,-9.357574463E0
3.890234971E0,3.121948242E-2,9.565780640E0,-9.306488037E0
3.895270371E0,4.005432129E-2,9.601654053E0,-9.296859741E0
3.900305772E0,7.774353027E-2,9.613708496E0,-9.287811279E0
3.905341172E0,4.777526855E-2,9.583129883E0,-9.291000366E0
3.910376572E0,5.197143555E-2,9.567428589E0,-9.311340332E0
3.915411973E0,8.139038086E-2,9.562835693E0,-9.306610107E0
3.920447373E0,5.825805664E-2,9.553359985E0,-9.339706421E0
3.925482774E0,5.119323730E-2,9.571304321E0,-9.328857422E0
3.930518174E0,6.507873535E-2,9.581695557E0,-9.300384521E0
3.935553574E0,6.884765625E-2,9.555221558E0,-9.324539185E0
3.940588975E0,1.039581299E-1,9.552154541E0,-9.317306519E0
3.945624375E0,5.599975586E-2,9.584396362E0,-9.304550171E0
3.950659776E0,2.816772461E-2,9.576873779E0,-9.294235229E0
3.955695176E0,7.269287109E-2,9.540008545E0,-9.298721313E0
3.960730576E0,7.015991211E-2,9.564010620E0,-9.348297119E0
3.965765977E0,4.295349121E-2,9.558349609E0,-9.371475220E0
3.970801377E0,7.633972168E-2,9.557617188E0,-9.306365967E0
3.975836777E0,6.230163574E-2,9.560379028E0,-9.288101196E0
3.980872178E0,5.915832520E-2,9.604415894E0,-9.286193848E0
3.985907578E0,6.381225586E-2,9.607742310E0,-9.332336426E0
3.990942979E0,4.301452637E-2,9.576263428E0,-9.272903442E0
3.995978379E0,6.620788574E-2,9.571594238E0,-9.248901367E0
4.001013779E0,5.151367188E-2,9.581100464E0,-9.233367920E0
4.006049180E0,8.778381348E-2,9.566070557E0,-9.291915894E0
4.011084580E0,8.139038086E-2,9.580917358E0,-9.252807617E0
4.016119981E0,6.785583496E-2,9.585708618E0,-9.255065918E0
4.021155381E0,8.201599121E-2,9.592864990E0,-9.250030518E0
4.026190781E0,8.079528809E-2,9.591949463E0,-9.240921021E0
4.031226182E0,1.247406006E-1,9.593383789E0,-9.228820801E0
4.036261582E0,9.506225586E-2,9.573654175E0,-9.201477051E0
4.041296983E0,1.137390137E-1,9.605316162E0,-9.250320435E0
4.046332383E0,8.044433594E-2,9.594955444E0,-9.251373291E0
4.051367783E0,9.164428711E-2,9.582092285E0,-9.212951660E0
4.056403184E0,1.051177979E-1,9.574813843E0,-9.154388428E0
4.061438584E0,1.085662842E-1,9.609329224E0,-9.173217773E0
4.066473985E0,1.339569092E-1,9.587844849E0,-9.233139038E0
4.071509385E0,1.089172363E-1,9.562927246E0,-9.162155151E0
4.076544785E0,1.255645752E-1,9.582641602E0,-9.153182983E0
4.081580186E0,1.464691162E-1,9.593551636E0,-9.213241577E0
4.086615586E0,1.616973877E-1,9.574386597E0,-9.171478271E0
4.091650986E0,1.452636719E-1,9.574996948E0,-9.158248901E0
4.096686387E0,1.444549561E-1,9.619491577E0,-9.197280884E0
4.101721787E0,1.384429932E-1,9.579330444E0,-9.185989380E0
4.106757188E0,1.631927490E-1,9.571136475E0,-9.228561401E0
4.111792588E0,1.769866943E-1,9.549270630E0,-9.166778564E0
4.116827988E0,1.474151611E-1,9.562408447E0,-9.140258789E0
4.121863389E0,1.514129639E-1,9.599258423E0,-9.202926636E0
4.126898789E0,2.148590088E-1,9.577087402E0,-9.180603027E0
4.131934190E0,1.843719482E-1,9.582473755E0,-9.069671631E0
4.136969590E0,1.874237061E-1,9.589660645E0,-9.101455688E0
4.142004990E0,1.736602783E-1,9.555099487E0,-9.151611328E0
4.147040391E0,1.568603516E-1,9.594192505E0,-9.150482178E0
4.152075791E0,2.447357178E-1,9.611358643E0,-9.217117310E0
4.157111192E0,2.493743896E-1,9.594802856E0,-9.141662598E0
4.162146592E0,2.389221191E-1,9.603561401E0,-9.200042725E0
4.167181992E0,1.972045898E-1,9.577682495E0,-9.181594849E0
4.172217393E0,2.007904053E-1,9.570022583E0,-9.125442505E0
4.177252793E0,2.271423340E-1,9.600463867E0,-9.147781372E0
4.182288193E0,2.501373291E-1,9.615310669E0,-9.145721436E0
4.187323594E0,2.590179443E-1,9.601165771E0,-9.176361084E0
4.192358994E0,2.616424561E-1,9.566787720E0,-9.146133423E0
4.197394395E0,2.841033936E-1,9.577728271E0,-9.145996094E0
4.202429795E0,2.592163086E-1,9.613906860E0,-9.112030029E0
4.207465195E0,3.032226562E-1,9.597076416E0,-9.144531250E0
4.212500596E0,3.429107666E-1,9.596099854E0,-9.122680664E0
4.217535996E0,3.098297119E-1,9.590270996E0,-9.046371460E0
4.222571397E0,2.805023193E-1,9.598007202E0,-9.105606079E0
4.227606797E0,3.197479248E-1,9.623107910E0,-9.102706909E0
4.232642197E0,3.204040527E-1,9.597702026E0,-9.080795288E0
4.237677598E0,2.975616455E-1,9.594604492E0,-9.086700439E0
4.242712998E0,3.069305420E-1,9.613235474E0,-9.072097778E0
4.247748399E0,3.414916992E-1,9.609771729E0,-9.052032471E0
4.252783799E0,3.521575928E-1,9.596481323E0,-9.069320679E0
4.257819199E0,3.211669922E-1,9.575439453E0,-9.062545776E0
4.262854600E0,3.560791016E-1,9.592926025E0,-9.102310181E0
4.267890000E0,3.786315918E-1,9.590530396E0,-9.114593506E0
4.272925401E0,3.556213379E-1,9.574096680E0,-9.069686890E0
4.277960801E0,3.677368164E-1,9.606872559E0,-9.059677124E0
4.282996201E0,3.351745605E-1,9.600662231E0,-9.072631836E0
4.288031602E0,3.393707275E-1,9.621902466E0,-9.050735474E0
4.293067002E0,3.712310791E-1,9.599029541E0,-8.946151733E0
4.298102402E0,3.247680664E-1,9.579681396E0,-8.938766479E0
4.303137803E0,3.308410645E-1,9.592834473E0,-9.014694214E0
4.308173203E0,3.869476318E-1,9.584121704E0,-9.065093994E0
4.313208604E0,3.672332764E-1,9.606460571E0,-9.081298828E0
4.318244004E0,3.728637695E-1,9.622116089E0,-9.054397583E0
4.323279404E0,3.490295410E-1,9.613998413E0,-8.998443604E0
4.328314805E0,3.890075684E-1,9.576019287E0,-8.991821289E0
4.333350205E0,3.731689453E-1,9.573364258E0,-8.958923340E0
4.338385606E0,3.634796143E-1,9.604217529E0,-8.960586548E0
4.343421006E0,3.902435303E-1,9.609390259E0,-9.003341675E0
4.348456406E0,3.800811768E-1,9.615051270E0,-9.010040283E0
4.353491807E0,3.838653564E-1,9.611572266E0,-8.966522217E0
4.358527207E0,3.850402832E-1,9.606750488E0,-8.964462280E0
4.363562608E0,4.031219482E-1,9.606521606E0,-8.955703735E0
4.368598008E0,4.316864014E-1,9.599563599E0,-8.940994263E0
4.373633408E0,4.076843262E-1,9.585144043E0,-8.969726562E0
4.378668809E0,4.107055664E-1,9.591445923E0,-8.956405640E0
4.383704209E0,4.066619873E-1,9.579223633E0,-8.917190552E0
4.388739610E0,4.171142578E-1,9.591110229E0,-8.900482178E0
4.393775010E0,4.173278809E-1,9.631637573E0,-8.871780396E0
4.398810410E0,4.064788818E-1,9.619461060E0,-8.882888794E0
4.403845811E0,4.192199707E-1,9.605941772E0,-8.873062134E0
4.408881211E0,4.372711182E-1,9.599151611E0,-8.858520508E0
4.413916611E0,4.341735840E-1,9.578002930E0,-8.883895874E0
4.418952012E0,4.532165527E-1,9.575759888E0,-8.860397339E0
4.423987412E0,4.797058105E-1,9.593673706E0,-8.856903076E0
4.429022813E0,4.550628662E-1,9.609344482E0,-8.836486816E0
4.434058213E0,4.329376221E-1,9.636734009E0,-8.820266724E0
4.439093613E0,4.382171631E-1,9.588500977E0,-8.800094604E0
4.444129014E0,5.075683594E-1,9.577301025E0,-8.756805420E0
4.449164414E0,4.880218506E-1,9.579437256E0,-8.762115479E0
4.454199815E0,4.752044678E-1,9.580566406E0,-8.768707275E0
4.459235215E0,4.537506104E-1,9.612747192E0,-8.732254028E0
4.464270615E0,4.643249512E-1,9.649353027E0,-8.674880981E0
4.469306016E0,4.818572998E-1,9.638275146E0,-8.709411621E0
4.474341416E0,4.939117432E-1,9.625137329E0,-8.708099365E0
4.479376817E0,5.041809082E-1,9.621475220E0,-8.720169067E0
4.484412217E0,4.920806885E-1,9.597335815E0,-8.643463135E0
4.489447617E0,5.113067627E-1,9.611877441E0,-8.615432739E0
4.494483018E0,4.999237061E-1,9.622207642E0,-8.681640625E0
4.499518418E0,4.833679199E-1,9.623260498E0,-8.713760376E0
4.504553818E0,5.243835449E-1,9.617507935E0,-8.684707642E0
4.509589219E0,5.370788574E-1,9.606399536E0,-8.620437622E0
4.514624619E0,5.079345703E-1,9.596328735E0,-8.588012695E0
4.519660020E0,4.637908936E-1,9.572677612E0,-8.597930908E0
4.524695420E0,4.727172852E-1,9.596755981E0,-8.618743896E0
4.529730820E0,5.144653320E-1,9.593658447E0,-8.611801147E0
4.534766221E0,5.498809814E-1,9.602676392E0,-8.597671509E0
4.539801621E0,5.247344971E-1,9.602111816E0,-8.621063232E0
4.544837022E0,5.187225342E-1,9.580505371E0,-8.600936890E0
4.549872422E0,5.400848389E-1,9.621246338E0,-8.578765869E0
4.554907822E0,5.028381348E-1,9.594970703E0,-8.622787476E0
4.559943223E0,5.504760742E-1,9.605621338E0,-8.633438110E0
4.564978623E0,5.474243164E-1,9.595352173E0,-8.640670776E0
4.570014024E0,5.198669434E-1,9.576568604E0,-8.611618042E0
4.575049424E0,4.886627197E-1,9.642135620E0,-8.667434692E0
4.580084824E0,5.269927979E-1,9.626098633E0,-8.651046753E0
4.585120225E0,5.044860840E-1,9.611526489E0,-8.561233521E0
4.590155625E0,5.660858154E-1,9.639923096E0,-8.495864868E0
4.595191026E0,5.786743164E-1,9.643981934E0,-8.553451538E0
4.600226426E0,6.339263916E-1,9.588165283E0,-8.589324951E0
4.605261826E0,5.716400146E-1,9.620727539E0,-8.493881226E0
4.610297227E0,5.899658203E-1,9.616119385E0,-8.431900024E0
4.615332627E0,4.407958984E-1,9.616241455E0,-8.440826416E0
4.620368027E0,5.773315430E-1,9.617370605E0,-8.473281860E0
4.625403428E0,5.688323975E-1,9.601455688E0,-8.429763794E0
4.630438828E0,5.727844238E-1,9.600982666E0,-8.499588013E0
4.635474229E0,5.682220459E-1,9.639678955E0,-8.579956055E0
4.640509629E0,5.639801025E-1,9.638061523E0,-8.535842896E0
4.645545029E0,5.514221191E-1,9.639373779E0,-8.471511841E0
4.650580430E0,5.772857666E-1,9.617843628E0,-8.448059082E0
4.655615830E0,5.315399170E-1,9.614074707E0,-8.434005737E0
4.660651231E0,4.833831787E-1,9.620727539E0,-8.446472168E0
4.665686631E0,5.635833740E-1,9.636489868E0,-8.430252075E0
4.670722031E0,5.424346924E-1,9.588973999E0,-8.425628662E0
4.675757432E0,5.514678955E-1,9.602966309E0,-8.539276123E0
4.680792832E0,5.297698975E-1,9.596221924E0,-8.516143799E0
4.685828233E0,5.047302246E-1,9.620681763E0,-8.444656372E0
4.690863633E0,5.519104004E-1,9.588409424E0,-8.409729004E0
4.695899033E0,5.319824219E-1,9.611404419E0,-8.423309326E0
4.700934434E0,5.404968262E-1,9.647064209E0,-8.403030396E0
4.705969834E0,5.286102295E-1,9.635620117E0,-8.374496460E0
4.711005235E0,5.078887939E-1,9.622604370E0,-8.434417725E0
4.716040635E0,4.591522217E-1,9.620880127E0,-8.427185059E0
4.721076035E0,4.941101074E-1,9.614562988E0,-8.436782837E0
4.726111436E0,5.085754395E-1,9.608947754E0,-8.430435181E0
4.731146836E0,5.070800781E-1,9.615203857E0,-8.369018555E0
4.736182236E0,4.875030518E-1,9.599349976E0,-8.422958374E0
4.741217637E0,4.937896729E-1,9.614074707E0,-8.379745483E0
4.746253037E0,4.850311279E-1,9.588012695E0,-8.360290527E0
4.751288438E0,4.812469482E-1,9.612625122E0,-8.367523193E0
4.756323838E0,4.765319824E-1,9.625930786E0,-8.377426147E0
4.761359238E0,4.799041748E-1,9.624877930E0,-8.378997803E0
4.766394639E0,4.771270752E-1,9.626556396E0,-8.353073120E0
4.771430039E0,4.506835938E-1,9.611968994E0,-8.346282959E0
4.776465440E0,4.450683594E-1,9.567504883E0,-8.358306885E0
4.781500840E0,4.385986328E-1,9.579406738E0,-8.370422363E0
4.786536240E0,4.506072998E-1,9.611785889E0,-8.370422363E0
4.791571641E0,4.312591553E-1,9.623916626E0,-8.321670532E0
4.796607041E0,4.395904541E-1,9.605010986E0,-8.320343018E0
4.801642442E0,4.275970459E-1,9.602554321E0,-8.337203979E0
4.806677842E0,4.287109375E-1,9.613739014E0,-8.323837280E0
4.811713242E0,4.080352783E-1,9.620834351E0,-8.292388916E0
4.816748643E0,3.709716797E-1,9.648620605E0,-8.297332764E0
4.821784043E0,3.657226562E-1,9.648620605E0,-8.290328979E0
4.826819443E0,3.718566895E-1,9.601165771E0,-8.283538818E0
4.831854844E0,3.708801270E-1,9.583450317E0,-8.301330566E0
4.836890244E0,3.735198975E-1,9.597854614E0,-8.273468018E0
4.841925645E0,3.677062988E-1,9.616302490E0,-8.260696411E0
4.846961045E0,3.638305664E-1,9.631118774E0,-8.258377075E0
4.851996445E0,3.456573486E-1,9.622543335E0,-8.249694824E0
4.857031846E0,3.309020996E-1,9.606582642E0,-8.233505249E0
4.862067246E0,3.152770996E-1,9.617889404E0,-8.241104126E0
4.867102647E0,3.340301514E-1,9.625030518E0,-8.232208252E0
4.872138047E0,3.669433594E-1,9.626266479E0,-8.222747803E0
4.877173447E0,3.495788574E-1,9.631072998E0,-8.241363525E0
4.882208848E0,3.351898193E-1,9.635894775E0,-8.266311646E0
4.887244248E0,3.001708984E-1,9.637542725E0,-8.212402344E0
4.892279649E0,3.119964600E-1,9.640777588E0,-8.192993164E0
4.897315049E0,3.075103760E-1,9.625793457E0,-8.229660034E0
4.902350449E0,2.608489990E-1,9.626892090E0,-8.226745605E0
4.907385850E0,1.422119141E-1,9.667984009E0,-8.168472290E0
4.912421250E0,1.554565430E-1,9.586044312E0,-7.958328247E0
4.917456651E0,3.176422119E-1,9.573989868E0,-8.156356812E0
4.922492051E0,1.796569824E-1,9.598815918E0,-8.204956055E0
4.927527451E0,2.773437500E-1,9.633178711E0,-8.244918823E0
4.932562852E0,2.176361084E-1,9.623901367E0,-8.148498535E0
4.937598252E0,2.356872559E-1,9.629714966E0,-8.210327148E0
4.942633652E0,1.678619385E-1,9.602401733E0,-8.114898682E0
4.947669053E0,1.818237305E-1,9.590835571E0,-8.240188599E0
4.952704453E0,1.547546387E-1,9.629058838E0,-8.241638184E0
4.957739854E0,2.083282471E-1,9.611877441E0,-8.228088379E0
4.962775254E0,2.209320068E-1,9.610549927E0,-8.246643066E0
4.967810654E0,1.439514160E-1,9.605270386E0,-8.256759644E0
4.972846055E0,1.716461182E-1,9.604217529E0,-8.253707886E0
4.977881455E0,1.029052734E-1,9.652236938E0,-8.200851440E0
4.982916856E0,1.156768799E-1,9.597549438E0,-8.246490479E0
4.987952256E0,9.722900391E-2,9.624069214E0,-8.229583740E0
4.992987656E0,1.163787842E-1,9.617202759E0,-8.192291260E0
4.998023057E0,1.098022461E-1,9.613922119E0,-8.223831177E0
5.003058457E0,1.179199219E-1,9.615951538E0,-8.206893921E0
5.008093858E0,4.209899902E-2,9.589126587E0,-8.252685547E0
5.013129258E0,8.091735840E-2,9.601211548E0,-8.262268066E0
5.018164658E0,5.305480957E-2,9.654571533E0,-8.296981812E0
5.023200059E0,7.513427734E-2,9.654251099E0,-8.326156616E0
5.028235459E0,2.838134766E-3,9.616577148E0,-8.357421875E0
5.033270860E0,2.574157715E-2,9.616119385E0,-8.245925903E0
5.038306260E0,-1.208496094E-2,9.599533081E0,-8.310073853E0
5.043341660E0,8.666992188E-3,9.607177734E0,-8.299621582E0
5.048377061E0,-1.089477539E-2,9.629440308E0,-8.258163452E0
5.053412461E0,-9.416198730E-2,9.603393555E0,-8.269073486E0
5.058447861E0,-6.011962891E-3,9.587402344E0,-8.312927246E0
5.063483262E0,1.840209961E-2,9.624984741E0,-8.393417358E0
5.068518662E0,-1.483154297E-2,9.620483398E0,-8.296569824E0
5.073554063E0,6.408691406E-3,9.664733887E0,-8.330291748E0
5.078589463E0,-4.205322266E-2,9.602722168E0,-8.320556641E0
5.083624863E0,-2.891540527E-2,9.592681885E0,-8.342208862E0
5.088660264E0,-2.078247070E-2,9.614318848E0,-8.285385132E0
5.093695664E0,-9.547424316E-2,9.618820190E0,-8.221130371E0
5.098731065E0,-7.585144043E-2,9.619125366E0,-8.291152954E0
5.103766465E0,-5.226135254E-2,9.605560303E0,-8.292663574E0
5.108801865E0,-2.957153320E-2,9.592864990E0,-8.290451050E0
5.113837266E0,-5.432128906E-2,9.622436523E0,-8.259994507E0
5.118872666E0,-5.323791504E-2,9.642715454E0,-8.336044312E0
5.123908067E0,-6.025695801E-2,9.650222778E0,-8.319824219E0
5.128943467E0,-4.066467285E-2,9.625167847E0,-8.351852417E0
5.133978867E0,-4.518127441E-2,9.595993042E0,-8.284240723E0
5.139014268E0,-8.007812500E-2,9.612121582E0,-8.314788818E0
5.144049668E0,-5.764770508E-2,9.606033325E0,-8.278015137E0
5.149085068E0,-8.261108398E-2,9.623748779E0,-8.272766113E0
5.154120469E0,-6.069946289E-2,9.609298706E0,-8.311096191E0
5.159155869E0,-6.903076172E-2,9.603012085E0,-8.333435059E0
5.164191270E0,-4.138183594E-2,9.638519287E0,-8.370880127E0
5.169226670E0,-5.171203613E-2,9.613388062E0,-8.382141113E0
5.174262070E0,-4.400634766E-2,9.612457275E0,-8.392532349E0
5.179297471E0,-2.731323242E-2,9.635162354E0,-8.392761230E0
5.184332871E0,-5.743408203E-2,9.627792358E0,-8.373565674E0
5.189368272E0,-3.196716309E-2,9.629821777E0,-8.363922119E0
5.194403672E0,-7.217407227E-3,9.639678955E0,-8.383209229E0
5.199439072E0,-3.860473633E-3,9.612930298E0,-8.415954590E0
5.204474473E0,1.197814941E-2,9.617675781E0,-8.380615234E0
5.209509873E0,5.340576172E-4,9.611816406E0,-8.341644287E0
5.214545274E0,1.014709473E-2,9.616119385E0,-8.345016479E0
5.219580674E0,6.355285645E-2,9.628204346E0,-8.407714844E0
5.224616074E0,6.646728516E-2,9.635345459E0,-8.403244019E0
5.229651475E0,3.288269043E-2,9.616851807E0,-8.368606567E0
5.234686875E0,3.834533691E-2,9.613357544E0,-8.406494141E0
5.239722276E0,6.838989258E-2,9.627487183E0,-8.403289795E0
5.244757676E0,9.938049316E-2,9.630615234E0,-8.391342163E0
5.249793076E0,1.007385254E-1,9.599594116E0,-8.413543701E0
5.254828477E0,9.353637695E-2,9.588897705E0,-8.409759521E0
5.259863877E0,9.123229980E-2,9.596923828E0,-8.359664917E0
5.264899277E0,9.114074707E-2,9.625808716E0,-8.386932373E0
5.269934678E0,1.014404297E-1,9.637512207E0,-8.439544678E0
5.274970078E0,1.324615479E-1,9.619552612E0,-8.420394897E0
5.280005479E0,1.481628418E-1,9.618499756E0,-8.397232056E0
5.285040879E0,1.402740479E-1,9.634963989E0,-8.433944702E0
5.290076279E0,1.143341064E-1,9.624755859E0,-8.430892944E0
5.295111680E0,1.023559570E-1,9.633056641E0,-8.445571899E0
5.300147080E0,1.042938232E-1,9.619079590E0,-8.433532715E0
5.305182481E0,1.588592529E-1,9.624526978E0,-8.441131592E0
5.310217881E0,1.412200928E-1,9.632400513E0,-8.425552368E0
5.315253281E0,1.420898438E-1,9.615753174E0,-8.432998657E0
5.320288682E0,1.402893066E-1,9.624603271E0,-8.448257446E0
5.325324082E0,1.623077393E-1,9.618453979E0,-8.454620361E0
5.330359483E0,1.813201904E-1,9.637283325E0,-8.473983765E0
5.335394883E0,1.580810547E-1,9.614776611E0,-8.484878540E0
5.340430283E0,1.353759766E-1,9.614562988E0,-8.498092651E0
5.345465684E0,1.474456787E-1,9.605590820E0,-8.467330933E0
5.350501084E0,1.422119141E-1,9.616683960E0,-8.478851318E0
5.355536485E0,1.866760254E-1,9.593460083E0,-8.502731323E0
5.360571885E0,1.472473145E-1,9.581008911E0,-8.504196167E0
5.365607285E0,1.534423828E-1,9.614807129E0,-8.526535034E0
5.370642686E0,1.853332520E-1,9.620117188E0,-8.504501343E0
5.375678086E0,1.626281738E-1,9.611053467E0,-8.514434814E0
5.380713486E0,1.919555664E-1,9.618392944E0,-8.465026855E0
5.385748887E0,1.942291260E-1,9.634262085E0,-8.548202515E0
5.390784287E0,2.467498779E-1,9.633651733E0,-8.573974609E0
5.395819688E0,2.511291504E-1,9.676147461E0,-8.568496704E0
5.400855088E0,1.814727783E-1,9.567108154E0,-8.573272705E0
5.405890488E0,1.908874512E-1,9.591384888E0,-8.556137085E0
5.410925889E0,1.885681152E-1,9.642684937E0,-8.590042114E0
5.415961289E0,1.959075928E-1,9.607925415E0,-8.562622070E0
5.420996690E0,2.475891113E-1,9.652297974E0,-8.528305054E0
5.426032090E0,1.945495605E-1,9.633377075E0,-8.505233765E0
5.431067490E0,1.984100342E-1,9.621749878E0,-8.524612427E0
5.436102891E0,2.564544678E-1,9.640594482E0,-8.489562988E0
5.441138291E0,2.081146240E-1,9.624542236E0,-8.459701538E0
5.446173692E0,2.784729004E-1,9.623260498E0,-8.473510742E0
5.451209092E0,2.691497803E-1,9.634643555E0,-8.463043213E0
5.456244492E0,2.477722168E-1,9.593627930E0,-8.506378174E0
5.461279893E0,2.378234863E-1,9.610885620E0,-8.484542847E0
5.466315293E0,2.516937256E-1,9.592544556E0,-8.516876221E0
5.471350693E0,3.018646240E-1,9.651824951E0,-8.529190063E0
5.476386094E0,2.902221680E-1,9.587310791E0,-8.533126831E0
5.481421494E0,3.108520508E-1,9.569152832E0,-8.467987061E0
5.486456895E0,2.899627686E-1,9.596008301E0,-8.497344971E0
5.491492295E0,2.919311523E-1,9.629226685E0,-8.534820557E0
5.496527695E0,3.310852051E-1,9.607116699E0,-8.503005981E0
5.501563096E0,3.408813477E-1,9.617233276E0,-8.467666626E0
5.506598496E0,3.239440918E-1,9.629928589E0,-8.538131714E0
5.511633897E0,3.578948975E-1,9.597946167E0,-8.528060913E0
5.516669297E0,3.510589600E-1,9.608581543E0,-8.494720459E0
5.521704697E0,3.835144043E-1,9.625640869E0,-8.513381958E0
5.526740098E0,3.752746582E-1,9.625640869E0,-8.572952271E0
5.531775498E0,4.088439941E-1,9.621459961E0,-8.560577393E0
5.536810899E0,4.201049805E-1,9.604156494E0,-8.542617798E0
5.541846299E0,4.052429199E-1,9.650985718E0,-8.512802124E0
5.546881699E0,4.224395752E-1,9.608566284E0,-8.527618408E0
5.551917100E0,4.228820801E-1,9.604843140E0,-8.537689209E0
5.556952500E0,4.479064941E-1,9.601745605E0,-8.570495605E0
5.561987901E0,4.629211426E-1,9.628814697E0,-8.579055786E0
5.567023301E0,4.482574463E-1,9.659469604E0,-8.527008057E0
5.572058701E0,4.953918457E-1,9.650985718E0,-8.545120239E0
5.577094102E0,4.734039307E-1,9.619430542E0,-8.581909180E0
5.582129502E0,5.041961670E-1,9.621368408E0,-8.586837769E0
5.587164902E0,5.035552979E-1,9.578292847E0,-8.561782837E0
5.592200303E0,5.090332031E-1,9.598876953E0,-8.577117920E0
5.597235703E0,5.341644287E-1,9.618850708E0,-8.573577881E0
5.602271104E0,5.272369385E-1,9.620620728E0,-8.617950439E0
5.607306504E0,4.934997559E-1,9.620147705E0,-8.626800537E0
5.612341904E0,5.389099121E-1,9.654678345E0,-8.672225952E0
5.617377305E0,5.494232178E-1,9.658279419E0,-8.670333862E0
5.622412705E0,5.323944092E-1,9.618347168E0,-8.694168091E0
5.627448106E0,5.174255371E-1,9.604736328E0,-8.693588257E0
5.632483506E0,5.529022217E-1,9.603195190E0,-8.689422607E0
5.637518906E0,5.875091553E-1,9.616455078E0,-8.680725098E0
5.642554307E0,5.884399414E-1,9.637695312E0,-8.690109253E0
5.647589707E0,5.850677490E-1,9.649261475E0,-8.679992676E0
5.652625108E0,5.680541992E-1,9.627014160E0,-8.658309937E0
5.657660508E0,5.663757324E-1,9.639862061E0,-8.684432983E0
5.662695908E0,5.651092529E-1,9.636154175E0,-8.717605591E0
5.667731309E0,5.710601807E-1,9.597000122E0,-8.722213745E0
5.672766709E0,5.933990479E-1,9.607070923E0,-8.767547607E0
5.677802110E0,5.982208252E-1,9.633895874E0,-8.766754150E0
5.682837510E0,6.139068604E-1,9.651306152E0,-8.741394043E0
5.687872910E0,6.053619385E-1,9.646011353E0,-8.731506348E0
5.692908311E0,5.835571289E-1,9.634155273E0,-8.718139648E0
5.697943711E0,5.798339844E-1,9.632263184E0,-8.725296021E0
5.702979111E0,5.895843506E-1,9.634765625E0,-8.792510986E0
5.708014512E0,6.082458496E-1,9.629058838E0,-8.810745239E0
5.713049912E0,6.121978760E-1,9.630813599E0,-8.791030884E0
5.718085313E0,5.913391113E-1,9.623184204E0,-8.799087524E0
5.723120713E0,5.892333984E-1,9.596984863E0,-8.776473999E0
5.728156113E0,5.838470459E-1,9.582916260E0,-8.774948120E0
5.733191514E0,5.779876709E-1,9.598068237E0,-8.821563721E0
5.738226914E0,5.997467041E-1,9.592483521E0,-8.853546143E0
5.743262315E0,5.723876953E-1,9.598098755E0,-8.861526489E0
5.748297715E0,5.500488281E-1,9.627014160E0,-8.854919434E0
5.753333115E0,5.579223633E-1,9.622207642E0,-8.836730957E0
5.758368516E0,5.706939697E-1,9.613739014E0,-8.825988770E0
5.763403916E0,5.389862061E-1,9.618499756E0,-8.827529907E0
5.768439317E0,5.646209717E-1,9.624114990E0,-8.871261597E0
5.773474717E0,5.801696777E-1,9.615737915E0,-8.872848511E0
5.778510117E0,5.511169434E-1,9.616394043E0,-8.854736328E0
5.783545518E0,5.484313965E-1,9.596282959E0,-8.847122192E0
5.788580918E0,5.222473145E-1,9.624038696E0,-8.892684937E0
5.793616318E0,5.253753662E-1,9.619979858E0,-8.913558960E0
5.798651719E0,5.464019775E-1,9.635116577E0,-8.836410522E0
5.803687119E0,5.536041260E-1,9.606079102E0,-8.911468506E0
5.808722520E0,5.247344971E-1,9.609405518E0,-8.864242554E0
5.813757920E0,5.441284180E-1,9.624954224E0,-8.904571533E0
5.818793320E0,5.062408447E-1,9.610931396E0,-8.800445557E0
5.823828721E0,4.678497314E-1,9.614257812E0,-8.825164795E0
5.828864121E0,4.846496582E-1,9.635528564E0,-8.869705200E0
5.833899522E0,5.037078857E-1,9.614288330E0,-8.874740601E0
5.838934922E0,4.745635986E-1,9.590957642E0,-8.808319092E0
5.843970322E0,4.766082764E-1,9.583480835E0,-8.883071899E0
5.849005723E0,4.780120850E-1,9.613677979E0,-8.867248535E0
5.854041123E0,4.905395508E-1,9.599700928E0,-8.843643188E0
5.859076524E0,4.691314697E-1,9.588653564E0,-8.805236816E0
5.864111924E0,4.597015381E-1,9.585418701E0,-8.809066772E0
5.869147324E0,4.784088135E-1,9.602462769E0,-8.816543579E0
5.874182725E0,4.262847900E-1,9.617187500E0,-8.711166382E0
5.879218125E0,5.140228271E-1,9.609619141E0,-8.849151611E0
5.884253526E0,4.601287842E-1,9.629211426E0,-8.770095825E0
5.889288926E0,5.177154541E-1,9.637191772E0,-8.753524780E0
5.894324326E0,3.970489502E-1,9.582504272E0,-8.785034180E0
5.899359727E0,4.712524414E-1,9.619873047E0,-8.795547485E0
5.904395127E0,4.332733154E-1,9.616165161E0,-8.824005127E0
5.909430527E0,4.304046631E-1,9.606597900E0,-8.824356079E0
5.914465928E0,4.420928955E-1,9.644210815E0,-8.810760498E0
5.919501328E0,4.248199463E-1,9.606643677E0,-8.866500854E0
5.924536729E0,3.928222656E-1,9.609115601E0,-8.839431763E0
5.929572129E0,4.063110352E-1,9.613113403E0,-8.861648560E0
5.934607529E0,3.511505127E-1,9.599182129E0,-8.793655396E0
5.939642930E0,4.200744629E-1,9.597579956E0,-8.836868286E0
5.944678330E0,4.044189453E-1,9.636779785E0,-8.813781738E0
5.949713731E0,3.553466797E-1,9.626037598E0,-8.826705933E0
5.954749131E0,3.877105713E-1,9.608078003E0,-8.815017700E0
5.959784531E0,3.666687012E-1,9.622970581E0,-8.915878296E0
5.964819932E0,3.562316895E-1,9.637878418E0,-8.880401611E0
5.969855332E0,3.817749023E-1,9.618759155E0,-8.842483521E0
5.974890733E0,3.531188965E-1,9.589935303E0,-8.861938477E0
5.979926133E0,3.934783936E-1,9.587265015E0,-8.833770752E0
5.984961533E0,3.519134521E-1,9.584304810E0,-8.849044800E0
5.989996934E0,3.602600098E-1,9.631439209E0,-8.860458374E0
5.995032334E0,3.460540771E-1,9.606918335E0,-8.846435547E0
6.000067735E0,3.585968018E-1,9.614639282E0,-8.882110596E0
6.005103135E0,3.800659180E-1,9.604049683E0,-8.922775269E0
6.010138535E0,3.521881104E-1,9.616012573E0,-8.889923096E0
6.015173936E0,3.288726807E-1,9.601150513E0,-8.895919800E0
6.020209336E0,3.494415283E-1,9.602401733E0,-8.926101685E0
6.025244736E0,3.408355713E-1,9.597457886E0,-8.915527344E0
6.030280137E0,3.520355225E-1,9.617843628E0,-8.897537231E0
6.035315537E0,3.385925293E-1,9.616119385E0,-8.920181274E0
6.040350938E0,3.442993164E-1,9.623825073E0,-8.917724609E0
6.045386338E0,3.566284180E-1,9.633529663E0,-8.892242432E0
6.050421738E0,3.313903809E-1,9.611450195E0,-8.942443848E0
6.055457139E0,3.193359375E-1,9.599487305E0,-8.979110718E0
6.060492539E0,3.040618896E-1,9.609558105E0,-8.965606689E0
6.065527940E0,2.716369629E-1,9.650756836E0,-8.954681396E0
6.070563340E0,2.436218262E-1,9.626998901E0,-8.940948486E0
6.075598740E0,2.783050537E-1,9.589950562E0,-8.942504883E0
6.080634141E0,3.120727539E-1,9.584518433E0,-8.910736084E0
6.085669541E0,3.113555908E-1,9.626068115E0,-8.932800293E0
6.090704942E0,2.974548340E-1,9.612579346E0,-8.978530884E0
6.095740342E0,2.437133789E-1,9.571090698E0,-8.934585571E0
6.100775742E0,2.399902344E-1,9.577011108E0,-8.923049927E0
6.105811143E0,2.222137451E-1,9.583007812E0,-8.970932007E0
6.110846543E0,2.070312500E-1,9.593383789E0,-8.956573486E0
6.115881943E0,2.380676270E-1,9.595794678E0,-8.966369629E0
6.120917344E0,2.418365479E-1,9.618713379E0,-8.977935791E0
6.125952744E0,2.320556641E-1,9.615432739E0,-8.984863281E0
6.130988145E0,2.126007080E-1,9.603027344E0,-8.985031128E0
6.136023545E0,2.100982666E-1,9.613647461E0,-8.947601318E0
6.141058945E0,2.141876221E-1,9.587875366E0,-8.964248657E0
6.146094346E0,2.296600342E-1,9.607894897E0,-8.958251953E0
6.151129746E0,2.131042480E-1,9.617599487E0,-8.944473267E0
6.156165147E0,2.080230713E-1,9.575805664E0,-8.971160889E0
6.161200547E0,1.832275391E-1,9.578002930E0,-8.955291748E0
6.166235947E0,1.663055420E-1,9.571624756E0,-8.918930054E0
6.171271348E0,1.873321533E-1,9.581832886E0,-8.932342529E0
6.176306748E0,1.942901611E-1,9.636199951E0,-8.996719360E0
6.181342149E0,1.967010498E-1,9.617874146E0,-8.986114502E0
6.186377549E0,1.756744385E-1,9.607803345E0,-8.954071045E0
6.191412949E0,1.659698486E-1,9.626083374E0,-8.947463989E0
6.196448350E0,1.793975830E-1,9.610275269E0,-8.985992432E0
6.201483750E0,1.820678711E-1,9.638885498E0,-8.958740234E0
6.206519151E0,1.499328613E-1,9.626831055E0,-8.948303223E0
6.211554551E0,1.482391357E-1,9.583709717E0,-8.956893921E0
6.216589951E0,1.559295654E-1,9.590682983E0,-8.954345703E0
6.221625352E0,1.700897217E-1,9.599456787E0,-9.006622314E0
6.226660752E0,1.808166504E-1,9.633621216E0,-9.025650024E0
6.231696152E0,1.480865479E-1,9.614044189E0,-9.005187988E0
6.236731553E0,1.246337891E-1,9.601837158E0,-9.014022827E0
6.241766953E0,9.596252441E-2,9.607192993E0,-8.987411499E0
6.246802354E0,1.165924072E-1,9.601730347E0,-8.962203979E0
6.251837754E0,9.994506836E-2,9.612335205E0,-8.974212646E0
6.256873154E0,1.428527832E-1,9.591812134E0,-8.887481689E0
6.261908555E0,1.509552002E-1,9.621231079E0,-8.887115479E0
6.266943955E0,1.321716309E-1,9.578353882E0,-8.914581299E0
6.271979356E0,9.678649902E-2,9.591567993E0,-8.923477173E0
6.277014756E0,1.475982666E-1,9.608978271E0,-8.970001221E0
6.282050156E0,9.494018555E-2,9.583312988E0,-8.939010620E0
6.287085557E0,1.092529297E-1,9.586151123E0,-8.941619873E0
6.292120957E0,1.076354980E-1,9.589599609E0,-8.928955078E0
6.297156358E0,1.338195801E-1,9.594100952E0,-8.945495605E0
6.302191758E0,9.738159180E-2,9.637039185E0,-8.954483032E0
6.307227158E0,1.009674072E-1,9.655181885E0,-8.925216675E0
6.312262559E0,1.084289551E-1,9.604354858E0,-8.926300049E0
6.317297959E0,1.002807617E-1,9.619171143E0,-8.972732544E0
6.322333360E0,8.612060547E-2,9.634277344E0,-8.981155396E0
6.327368760E0,1.078796387E-1,9.583099365E0,-8.902236938E0
6.332404160E0,1.318359375E-1,9.619140625E0,-8.961944580E0
6.337439561E0,4.516601562E-2,9.609329224E0,-8.964797974E0
6.342474961E0,8.212280273E-2,9.601959229E0,-8.999832153E0
6.347510361E0,1.207122803E-1,9.582901001E0,-8.905868530E0
6.352545762E0,1.232452393E-1,9.585342407E0,-9.003128052E0
6.357581162E0,1.091766357E-1,9.613952637E0,-9.041427612E0
6.362616563E0,1.156616211E-1,9.623764038E0,-8.939300537E0
6.367651963E0,9.458923340E-2,9.551483154E0,-8.968215942E0
6.372687363E0,9.024047852E-2,9.605606079E0,-8.993164062E0
6.377722764E0,9.506225586E-2,9.631454468E0,-8.943664551E0
6.382758164E0,1.004028320E-1,9.612747192E0,-8.950927734E0
6.387793565E0,1.120452881E-1,9.627120972E0,-8.985595703E0
6.392828965E0,1.139221191E-1,9.594635010E0,-8.979309082E0
6.397864365E0,7.542419434E-2,9.614379883E0,-8.972015381E0
6.402899766E0,1.088104248E-1,9.595565796E0,-8.893218994E0
6.407935166E0,7.647705078E-2,9.572875977E0,-8.913421631E0
6.412970567E0,1.107788086E-1,9.614456177E0,-8.936904907E0
6.418005967E0,9.420776367E-2,9.592117310E0,-8.948654175E0
6.423041367E0,1.062622070E-1,9.604217529E0,-8.996887207E0
6.428076768E0,1.195526123E-1,9.603790283E0,-9.019104004E0
6.433112168E0,1.216583252E-1,9.600509644E0,-8.995666504E0
6.438147568E0,8.200073242E-2,9.601226807E0,-9.042968750E0
6.443182969E0,1.443328857E-1,9.619567871E0,-9.029861450E0
6.448218369E0,6.617736816E-2,9.580184937E0,-9.058425903E0
6.453253770E0,9.063720703E-2,9.556442261E0,-9.050094604E0
6.458289170E0,1.109313965E-1,9.583602905E0,-9.052062988E0
6.463324570E0,9.906005859E-2,9.627502441E0,-9.078216553E0
6.468359971E0,9.214782715E-2,9.573532104E0,-9.053314209E0
6.473395371E0,5.613708496E-2,9.564727783E0,-9.062210083E0
6.478430772E0,9.715270996E-2,9.574645996E0,-9.082946777E0
6.483466172E0,9.645080566E-2,9.587753296E0,-9.047805786E0
6.488501572E0,9.922790527E-2,9.600173950E0,-9.062545776E0
6.493536973E0,1.044006348E-1,9.576416016E0,-9.091552734E0
6.498572373E0,9.155273438E-2,9.597305298E0,-9.094757080E0
6.503607774E0,9.190368652E-2,9.628494263E0,-9.067855835E0
6.508643174E0,9.829711914E-2,9.604125977E0,-9.089599609E0
6.513678574E0,9.288024902E-2,9.580154419E0,-9.097869873E0
6.518713975E0,1.091461182E-1,9.581085205E0,-9.055221558E0
6.523749375E0,1.069335938E-1,9.580581665E0,-9.059082031E0
6.528784776E0,9.584045410E-2,9.584442139E0,-9.031616211E0
6.533820176E0,1.243438721E-1,9.595458984E0,-9.066772461E0
6.538855576E0,1.546325684E-1,9.603927612E0,-9.109695435E0
6.543890977E0,1.667633057E-1,9.623779297E0,-9.157653809E0
6.548926377E0,1.635437012E-1,9.602401733E0,-9.139587402E0
6.553961777E0,1.464691162E-1,9.606781006E0,-9.097518921E0
6.558997178E0,1.087188721E-1,9.594085693E0,-9.046768188E0
6.564032578E0,1.339111328E-1,9.565475464E0,-9.042602539E0
6.569067979E0,1.295776367E-1,9.568374634E0,-9.059112549E0
6.574103379E0,1.095733643E-1,9.600830078E0,-9.026992798E0
6.579138779E0,1.252746582E-1,9.595306396E0,-9.011260986E0
6.584174180E0,1.464538574E-1,9.599243164E0,-9.011596680E0
6.589209580E0,1.923980713E-1,9.621246338E0,-9.007736206E0
6.594244981E0,2.013854980E-1,9.612487793E0,-8.970932007E0
6.599280381E0,1.998138428E-1,9.596450806E0,-8.983901978E0
6.604315781E0,2.032470703E-1,9.614273071E0,-9.012847900E0
6.609351182E0,2.014770508E-1,9.623428345E0,-8.985687256E0
6.614386582E0,2.009124756E-1,9.636901855E0,-9.012435913E0
6.619421983E0,2.062225342E-1,9.639312744E0,-9.056777954E0
6.624457383E0,2.237701416E-1,9.613601685E0,-9.060913086E0
6.629492783E0,2.493743896E-1,9.610855103E0,-9.070541382E0
6.634528184E0,2.283477783E-1,9.599243164E0,-9.041397095E0
6.639563584E0,2.379608154E-1,9.596176147E0,-9.046920776E0
6.644598985E0,2.518768311E-1,9.591491699E0,-9.009063721E0
6.649634385E0,2.356567383E-1,9.600509644E0,-8.949798584E0
6.654669785E0,2.511749268E-1,9.596694946E0,-8.980056763E0
6.659705186E0,2.780761719E-1,9.612335205E0,-8.980468750E0
6.664740586E0,2.631683350E-1,9.610702515E0,-8.951599121E0
6.669775986E0,2.783813477E-1,9.577301025E0,-8.962326050E0
6.674811387E0,2.718048096E-1,9.597671509E0,-9.013366699E0
6.679846787E0,3.053436279E-1,9.605407715E0,-9.030838013E0
6.684882188E0,3.040313721E-1,9.595153809E0,-9.042312622E0
6.689917588E0,3.232574463E-1,9.616088867E0,-8.974395752E0
6.694952988E0,3.081665039E-1,9.628814697E0,-8.991836548E0
6.699988389E0,3.131561279E-1,9.596481323E0,-9.029251099E0
6.705023789E0,2.855377197E-1,9.602844238E0,-8.988372803E0
6.710059190E0,3.227233887E-1,9.577453613E0,-8.961151123E0
6.715094590E0,3.190002441E-1,9.594543457E0,-9.010879517E0
6.720129990E0,3.581542969E-1,9.605453491E0,-9.033920288E0
6.725165391E0,3.681488037E-1,9.616683960E0,-9.026107788E0
6.730200791E0,3.398895264E-1,9.610321045E0,-8.995681763E0
6.735236192E0,3.372497559E-1,9.596527100E0,-8.974380493E0
6.740271592E0,3.712158203E-1,9.600997925E0,-9.030807495E0
6.745306992E0,3.351440430E-1,9.578369141E0,-8.985275269E0
6.750342393E0,3.131256104E-1,9.586456299E0,-8.961776733E0
6.755377793E0,3.266143799E-1,9.628906250E0,-8.977447510E0
6.760413193E0,3.258361816E-1,9.577651978E0,-8.963638306E0
6.765448594E0,3.144836426E-1,9.579971313E0,-9.060714722E0
6.770483994E0,3.296051025E-1,9.618881226E0,-8.974334717E0
6.775519395E0,3.327178955E-1,9.588775635E0,-9.054382324E0
6.780554795E0,3.397674561E-1,9.592193604E0,-9.013504028E0
6.785590195E0,3.330230713E-1,9.578460693E0,-8.977767944E0
6.790625596E0,3.233337402E-1,9.611145020E0,-9.019271851E0
6.795660996E0,3.400878906E-1,9.603942871E0,-9.052886963E0
6.800696397E0,3.624267578E-1,9.561981201E0,-9.056961060E0
6.805731797E0,2.930603027E-1,9.595565796E0,-9.022140503E0
6.810767197E0,3.172607422E-1,9.623153687E0,-9.027221680E0
6.815802598E0,3.431091309E-1,9.619949341E0,-8.987258911E0
6.820837998E0,3.538818359E-1,9.605819702E0,-9.005737305E0
6.825873399E0,3.159484863E-1,9.628204346E0,-9.013916016E0
6.830908799E0,3.157348633E-1,9.627761841E0,-9.029251099E0
6.835944199E0,3.391265869E-1,9.600601196E0,-9.003692627E0
6.840979600E0,3.719482422E-1,9.592300415E0,-8.976654053E0
6.846015000E0,3.555297852E-1,9.614273071E0,-9.030029297E0
6.851050401E0,3.095855713E-1,9.633224487E0,-8.996124268E0
6.856085801E0,2.891235352E-1,9.616317749E0,-8.962356567E0
6.861121201E0,3.237609863E-1,9.591827393E0,-9.004257202E0
6.866156602E0,3.182220459E-1,9.600204468E0,-8.938262939E0
6.871192002E0,3.323211670E-1,9.598236084E0,-8.947280884E0
6.876227402E0,2.948303223E-1,9.625183105E0,-8.952423096E0
6.881262803E0,2.929077148E-1,9.608306885E0,-8.980377197E0
6.886298203E0,3.161315918E-1,9.559677124E0,-8.945251465E0
6.891333604E0,2.969818115E-1,9.606246948E0,-8.959823608E0
6.896369004E0,3.134918213E-1,9.631271362E0,-8.928985596E0
6.901404404E0,2.833709717E-1,9.604766846E0,-8.933837891E0
6.906439805E0,2.637786865E-1,9.590164185E0,-8.918594360E0
6.911475205E0,2.631225586E-1,9.606781006E0,-8.915679932E0
6.916510606E0,2.768402100E-1,9.607009888E0,-8.953430176E0
6.921546006E0,3.126373291E-1,9.580810547E0,-8.909622192E0
6.926581406E0,2.976684570E-1,9.572128296E0,-8.898513794E0
6.931616807E0,2.911682129E-1,9.600311279E0,-8.887863159E0
6.936652207E0,3.176727295E-1,9.594696045E0,-8.866516113E0
6.941687608E0,3.237304688E-1,9.611190796E0,-8.852905273E0
6.946723008E0,2.899932861E-1,9.629791260E0,-8.900360107E0
6.951758408E0,2.702789307E-1,9.590805054E0,-8.887878418E0
6.956793809E0,2.768859863E-1,9.593200684E0,-8.872543335E0
6.961829209E0,3.021392822E-1,9.599288940E0,-8.855773926E0
6.966864610E0,3.271026611E-1,9.609436035E0,-8.836715698E0
6.971900010E0,2.911224365E-1,9.598083496E0,-8.843948364E0
6.976935410E0,2.498474121E-1,9.568588257E0,-8.850173950E0
6.981970811E0,2.668151855E-1,9.562088013E0,-8.840469360E0
6.987006211E0,2.902221680E-1,9.578842163E0,-8.809509277E0
6.992041611E0,2.929840088E-1,9.615219116E0,-8.813720703E0
6.997077012E0,2.961425781E-1,9.615493774E0,-8.826583862E0
7.002112412E0,2.763824463E-1,9.605773926E0,-8.813476562E0
7.007147813E0,2.356414795E-1,9.608108521E0,-8.859268188E0
7.012183213E0,2.664947510E-1,9.581542969E0,-8.893325806E0
7.017218613E0,2.828674316E-1,9.599029541E0,-8.866683960E0
7.022254014E0,2.760009766E-1,9.613204956E0,-8.846771240E0
7.027289414E0,2.852478027E-1,9.614425659E0,-8.854888916E0
7.032324815E0,2.852020264E-1,9.628448486E0,-8.840118408E0
7.037360215E0,2.731781006E-1,9.595565796E0,-8.819595337E0
7.042395615E0,2.556152344E-1,9.586502075E0,-8.835891724E0
7.047431016E0,2.760467529E-1,9.596282959E0,-8.860641479E0
7.052466416E0,2.956237793E-1,9.589477539E0,-8.839828491E0
7.057501817E0,2.835693359E-1,9.615020752E0,-8.832595825E0
7.062537217E0,2.571716309E-1,9.612243652E0,-8.821960449E0
7.067572617E0,2.605895996E-1,9.603942871E0,-8.829544067E0
7.072608018E0,2.578582764E-1,9.605072021E0,-8.816619873E0
7.077643418E0,2.549591064E-1,9.596466064E0,-8.818405151E0
7.082678818E0,2.518920898E-1,9.603347778E0,-8.798339844E0
7.087714219E0,2.653503418E-1,9.608978271E0,-8.836242676E0
7.092749619E0,2.944335938E-1,9.602462769E0,-8.841293335E0
7.097785020E0,2.742767334E-1,9.604446411E0,-8.783218384E0
7.102820420E0,2.783355713E-1,9.603195190E0,-8.794647217E0
7.107855820E0,2.732086182E-1,9.584701538E0,-8.799118042E0
7.112891221E0,2.476806641E-1,9.586715698E0,-8.834014893E0
7.117926621E0,2.682342529E-1,9.641174316E0,-8.795135498E0
7.122962022E0,2.690734863E-1,9.632019043E0,-8.812667847E0
7.127997422E0,2.533721924E-1,9.641510010E0,-8.849899292E0
7.133032822E0,2.142486572E-1,9.602539062E0,-8.861389160E0
7.138068223E0,2.287445068E-1,9.616302490E0,-8.868087769E0
7.143103623E0,2.694244385E-1,9.634658813E0,-8.827743530E0
7.148139024E0,2.086639404E-1,9.618255615E0,-8.797927856E0
7.153174424E0,2.354125977E-1,9.627426147E0,-8.791442871E0
7.158209824E0,2.209014893E-1,9.594650269E0,-8.832733154E0
7.163245225E0,1.819000244E-1,9.595611572E0,-8.826904297E0
7.168280625E0,2.268066406E-1,9.625686646E0,-8.818222046E0
7.173316026E0,2.434997559E-1,9.599288940E0,-8.769515991E0
7.178351426E0,2.194976807E-1,9.615722656E0,-8.798202515E0
7.183386826E0,2.013244629E-1,9.616378784E0,-8.779617310E0
7.188422227E0,2.059478760E-1,9.613967896E0,-8.828262329E0
7.193457627E0,1.609497070E-1,9.611557007E0,-8.768585205E0
7.198493027E0,1.743011475E-1,9.580474854E0,-8.815383911E0
7.203528428E0,2.092132568E-1,9.600372314E0,-8.821823120E0
7.208563828E0,1.751861572E-1,9.570144653E0,-8.767639160E0
7.213599229E0,2.191772461E-1,9.586853027E0,-8.796936035E0
7.218634629E0,2.001495361E-1,9.617553711E0,-8.830474854E0
7.223670029E0,1.665802002E-1,9.592636108E0,-8.876159668E0
7.228705430E0,1.709136963E-1,9.632522583E0,-8.748962402E0
7.233740830E0,1.519927979E-1,9.604248047E0,-8.713333130E0
7.238776231E0,1.681671143E-1,9.611007690E0,-8.851821899E0
7.243811631E0,1.491699219E-1,9.592315674E0,-8.793838501E0
7.248847031E0,2.136840820E-1,9.591796875E0,-8.809020996E0
7.253882432E0,2.091827393E-1,9.581848145E0,-8.837066650E0
7.258917832E0,1.694793701E-1,9.608627319E0,-8.809768677E0
7.263953233E0,1.506347656E-1,9.637283325E0,-8.805999756E0
7.268988633E0,1.914672852E-1,9.603195190E0,-8.818710327E0
7.274024033E0,1.596984863E-1,9.589035034E0,-8.856552124E0
7.279059434E0,1.891784668E-1,9.563720703E0,-8.824081421E0
7.284094834E0,2.007141113E-1,9.603576660E0,-8.817886353E0
7.289130235E0,1.955566406E-1,9.619949341E0,-8.795028687E0
7.294165635E0,2.057495117E-1,9.640640259E0,-8.826843262E0
7.299201035E0,1.478424072E-1,9.616119385E0,-8.775436401E0
7.304236436E0,1.784667969E-1,9.611770630E0,-8.820297241E0
7.309271836E0,1.842651367E-1,9.590774536E0,-8.868606567E0
7.314307236E0,1.941833496E-1,9.596038818E0,-8.809020996E0
7.319342637E0,1.715393066E-1,9.605682373E0,-8.843246460E0
7.324378037E0,1.914672852E-1,9.623931885E0,-8.794250488E0
7.329413438E0,1.448822021E-1,9.620651245E0,-8.800994873E0
7.334448838E0,2.212524414E-1,9.582046509E0,-8.824401855E0
7.339484238E0,1.792755127E-1,9.608383179E0,-8.798767090E0
7.344519639E0,1.899871826E-1,9.590911865E0,-8.895401001E0
7.349555039E0,1.854858398E-1,9.622879028E0,-8.851058960E0
7.354590440E0,1.867523193E-1,9.610321045E0,-8.850234985E0
7.359625840E0,2.041015625E-1,9.603912354E0,-8.899520874E0
7.364661240E0,1.784057617E-1,9.585510254E0,-8.881637573E0
7.369696641E0,1.901397705E-1,9.589477539E0,-8.872314453E0
7.374732041E0,1.604309082E-1,9.583450317E0,-8.832885742E0
7.379767442E0,1.859283447E-1,9.604217529E0,-8.859191895E0
7.384802842E0,1.824798584E-1,9.605880737E0,-8.843994141E0
7.389838242E0,1.969451904E-1,9.605560303E0,-8.858383179E0
7.394873643E0,1.810150146E-1,9.599456787E0,-8.883316040E0
7.399909043E0,1.917724609E-1,9.593933105E0,-8.872390747E0
7.404944443E0,2.304687500E-1,9.582321167E0,-8.879623413E0
7.409979844E0,2.044982910E-1,9.586776733E0,-8.849456787E0
7.415015244E0,1.965332031E-1,9.600448608E0,-8.874771118E0
7.420050645E0,2.059631348E-1,9.621246338E0,-8.900482178E0
7.425086045E0,1.850585938E-1,9.647064209E0,-8.857238770E0
7.430121445E0,1.800079346E-1,9.647064209E0,-8.875366211E0
7.435156846E0,2.017211914E-1,9.642623901E0,-8.904022217E0
7.440192246E0,2.156524658E-1,9.627288818E0,-8.869155884E0
7.445227647E0,2.257232666E-1,9.618453979E0,-8.882080078E0
7.450263047E0,2.448577881E-1,9.622070312E0,-8.872894287E0
7.455298447E0,2.318115234E-1,9.602401733E0,-8.900177002E0
7.460333848E0,1.894531250E-1,9.597854614E0,-8.954742432E0
7.465369248E0,2.238769531E-1,9.611358643E0,-8.938079834E0
7.470404649E0,2.288970947E-1,9.612655640E0,-8.939270020E0
7.475440049E0,2.032165527E-1,9.611068726E0,-8.931137085E0
7.480475449E0,2.124176025E-1,9.621200562E0,-8.908691406E0
7.485510850E0,2.157745361E-1,9.608200073E0,-8.892196655E0
7.490546250E0,1.981964111E-1,9.597976685E0,-8.910324097E0
7.495581651E0,2.121734619E-1,9.596054077E0,-8.931045532E0
7.500617051E0,2.368621826E-1,9.584976196E0,-8.891326904E0
7.505652451E0,2.527770996E-1,9.602752686E0,-8.882690430E0
7.510687852E0,2.681274414E-1,9.611557007E0,-8.948059082E0
7.515723252E0,2.454223633E-1,9.615158081E0,-8.971328735E0
7.520758652E0,2.462158203E-1,9.624801636E0,-8.967178345E0
7.525794053E0,2.590637207E-1,9.610336304E0,-8.986450195E0
7.530829453E0,2.613983154E-1,9.600189209E0,-8.981018066E0
7.535864854E0,2.430725098E-1,9.576141357E0,-8.965988159E0
7.540900254E0,2.589263916E-1,9.586456299E0,-9.003067017E0
7.545935654E0,2.547454834E-1,9.603302002E0,-8.954055786E0
7.550971055E0,2.582550049E-1,9.589065552E0,-8.939605713E0
7.556006455E0,2.436828613E-1,9.591644287E0,-8.943374634E0
7.561041856E0,2.411804199E-1,9.571334839E0,-9.018814087E0
7.566077256E0,2.770233154E-1,9.592956543E0,-9.017791748E0
7.571112656E0,2.783050537E-1,9.640777588E0,-8.952529907E0
7.576148057E0,2.775573730E-1,9.619796753E0,-8.979553223E0
7.581183457E0,2.589263916E-1,9.601791382E0,-8.969924927E0
7.586218858E0,2.581329346E-1,9.603332520E0,-9.019180298E0
7.591254258E0,2.923278809E-1,9.578735352E0,-9.002044678E0
7.596289658E0,2.736511230E-1,9.587173462E0,-8.969909668E0
7.601325059E0,2.786102295E-1,9.602020264E0,-8.986953735E0
7.606360459E0,2.477264404E-1,9.565368652E0,-8.995056152E0
7.611395860E0,2.568664551E-1,9.585937500E0,-8.925231934E0
7.616431260E0,2.295684814E-1,9.564697266E0,-8.967376709E0
7.621466660E0,2.384796143E-1,9.610397339E0,-8.955123901E0
7.626502061E0,2.399749756E-1,9.596771240E0,-8.993698120E0
7.631537461E0,2.595520020E-1,9.590332031E0,-8.980712891E0
7.636572861E0,2.856445312E-1,9.609771729E0,-8.948196411E0
7.641608262E0,2.786407471E-1,9.638168335E0,-8.990432739E0
7.646643662E0,2.689971924E-1,9.603698730E0,-9.022781372E0
7.651679063E0,2.754058838E-1,9.629348755E0,-8.992202759E0
7.656714463E0,2.640686035E-1,9.565383911E0,-9.039733887E0
7.661749863E0,2.801361084E-1,9.605804443E0,-9.052642822E0
7.666785264E0,2.780609131E-1,9.592391968E0,-9.024475098E0
7.671820664E0,2.687377930E-1,9.630279541E0,-8.988555908E0
7.676856065E0,3.019866943E-1,9.610961914E0,-8.981842041E0
7.681891465E0,3.089294434E-1,9.589935303E0,-9.002365112E0
7.686926865E0,3.062133789E-1,9.590438843E0,-8.988449097E0
7.691962266E0,2.972106934E-1,9.600326538E0,-9.038925171E0
7.696997666E0,2.984008789E-1,9.572189331E0,-9.045013428E0
7.702033067E0,2.801361084E-1,9.597076416E0,-9.029739380E0
7.707068467E0,3.022003174E-1,9.599517822E0,-9.008590698E0
7.712103867E0,2.813720703E-1,9.622589111E0,-8.994049072E0
7.717139268E0,2.915344238E-1,9.597320557E0,-9.001815796E0
7.722174668E0,3.030700684E-1,9.619949341E0,-9.007431030E0
7.727210068E0,2.889404297E-1,9.626541138E0,-8.974182129E0
7.732245469E0,2.599334717E-1,9.603576660E0,-8.982635498E0
7.737280869E0,3.051147461E-1,9.614105225E0,-8.954544067E0
7.742316270E0,2.931518555E-1,9.611373901E0,-8.994110107E0
7.747351670E0,2.728729248E-1,9.589248657E0,-9.019378662E0
7.752387070E0,2.749786377E-1,9.599334717E0,-9.018493652E0
7.757422471E0,2.904052734E-1,9.606567383E0,-9.039703369E0
7.762457871E0,2.797546387E-1,9.598602295E0,-8.947113037E0
7.767493272E0,2.739410400E-1,9.607986450E0,-8.995483398E0
7.772528672E0,2.889404297E-1,9.612945557E0,-9.063430786E0
7.777564072E0,2.798004150E-1,9.580535889E0,-8.995193481E0
7.782599473E0,2.760009766E-1,9.566955566E0,-8.994796753E0
7.787634873E0,2.539825439E-1,9.598281860E0,-9.020187378E0
7.792670274E0,2.567443848E-1,9.622894287E0,-9.030654907E0
7.797705674E0,2.433471680E-1,9.608383179E0,-9.029739380E0
7.802741074E0,2.641754150E-1,9.574432373E0,-8.986648560E0
7.807776475E0,2.527618408E-1,9.591552734E0,-9.011795044E0
7.812811875E0,2.448425293E-1,9.572250366E0,-8.998291016E0
7.817847276E0,2.400207520E-1,9.601165771E0,-8.998291016E0
7.822882676E0,2.586517334E-1,9.601608276E0,-9.007537842E0
7.827918076E0,2.584381104E-1,9.576004028E0,-8.987442017E0
7.832953477E0,2.289581299E-1,9.609848022E0,-9.014785767E0
7.837988877E0,2.395935059E-1,9.620513916E0,-8.990097046E0
7.843024277E0,2.523803711E-1,9.610504150E0,-8.944900513E0
7.848059678E0,2.465972900E-1,9.590270996E0,-8.950683594E0
7.853095078E0,2.294311523E-1,9.576248169E0,-8.954055786E0
7.858130479E0,2.359313965E-1,9.579391479E0,-8.953613281E0
7.863165879E0,2.611694336E-1,9.593795776E0,-8.991470337E0
7.868201279E0,2.550964355E-1,9.612655640E0,-8.986297607E0
7.873236680E0,2.535400391E-1,9.592727661E0,-8.974121094E0
7.878272080E0,2.482299805E-1,9.594497681E0,-8.992431641E0
7.883307481E0,2.264099121E-1,9.610488892E0,-9.015792847E0
7.888342881E0,2.184448242E-1,9.607727051E0,-8.989974976E0
7.893378281E0,2.364196777E-1,9.617324829E0,-8.968551636E0
7.898413682E0,2.462768555E-1,9.594909668E0,-9.005142212E0
7.903449082E0,2.351989746E-1,9.588516235E0,-9.025253296E0
7.908484483E0,2.172393799E-1,9.616119385E0,-9.051818848E0
7.913519883E0,2.016296387E-1,9.596313477E0,-9.076675415E0
7.918555283E0,2.074432373E-1,9.593719482E0,-9.048461914E0
7.923590684E0,2.168121338E-1,9.605865479E0,-9.004714966E0
7.928626084E0,2.236022949E-1,9.618652344E0,-9.005416870E0
7.933661485E0,2.104034424E-1,9.628967285E0,-9.032897949E0
7.938696885E0,2.029571533E-1,9.598800659E0,-8.989303589E0
7.943732285E0,1.857910156E-1,9.613174438E0,-8.986541748E0
7.948767686E0,1.960906982E-1,9.599365234E0,-9.018920898E0
7.953803086E0,2.090301514E-1,9.612716675E0,-9.046676636E0
7.958838486E0,2.090301514E-1,9.597579956E0,-9.012313843E0
7.963873887E0,1.755981445E-1,9.585174561E0,-8.988601685E0
7.968909287E0,1.817321777E-1,9.613479614E0,-8.993453979E0
7.973944688E0,1.692504883E-1,9.612426758E0,-9.003982544E0
7.978980088E0,1.926269531E-1,9.611633301E0,-9.012680054E0
7.984015488E0,2.066497803E-1,9.591522217E0,-9.045532227E0
7.989050889E0,1.753692627E-1,9.591476440E0,-9.017654419E0
7.994086289E0,1.973724365E-1,9.612365723E0,-9.077087402E0
7.999121690E0,2.427368164E-1,9.613174438E0,-9.063812256E0
8.004157090E0,2.108764648E-1,9.604125977E0,-9.012527466E0
8.009192490E0,1.805572510E-1,9.587112427E0,-8.989456177E0
8.014227891E0,1.719512939E-1,9.588394165E0,-9.021728516E0
8.019263291E0,1.633453369E-1,9.601318359E0,-8.974487305E0
8.024298692E0,2.115325928E-1,9.642761230E0,-8.996658325E0
8.029334092E0,1.841735840E-1,9.589202881E0,-8.999389648E0
8.034369492E0,1.875457764E-1,9.581573486E0,-9.053390503E0
8.039404893E0,1.859741211E-1,9.636810303E0,-8.992736816E0
8.044440293E0,2.075500488E-1,9.622695923E0,-8.999374390E0
8.049475693E0,1.969909668E-1,9.567016602E0,-9.006988525E0
8.054511094E0,1.842956543E-1,9.627899170E0,-9.007644653E0
8.059546494E0,1.997833252E-1,9.610000610E0,-8.980102539E0
8.064581895E0,1.889953613E-1,9.578689575E0,-9.011032104E0
8.069617295E0,1.832427979E-1,9.584350586E0,-8.942977905E0
8.074652695E0,1.784515381E-1,9.607086182E0,-8.993209839E0
8.079688096E0,1.825103760E-1,9.604537964E0,-8.953720093E0
8.084723496E0,1.805877686E-1,9.619949341E0,-9.035964966E0
8.089758897E0,1.485595703E-1,9.623153687E0,-8.999954224E0
8.094794297E0,1.332855225E-1,9.632476807E0,-8.975036621E0
8.099829697E0,1.445312500E-1,9.590713501E0,-9.018707275E0
8.104865098E0,1.518554688E-1,9.608856201E0,-9.014801025E0
8.109900498E0,1.685638428E-1,9.597076416E0,-9.055252075E0
8.114935899E0,1.543884277E-1,9.596984863E0,-9.030792236E0
8.119971299E0,1.637420654E-1,9.590164185E0,-8.980590820E0
8.125006699E0,1.613311768E-1,9.599014282E0,-9.040878296E0
8.130042100E0,1.579895020E-1,9.589889526E0,-9.037185669E0
8.135077500E0,1.381988525E-1,9.633697510E0,-9.009719849E0
8.140112901E0,1.460876465E-1,9.610656738E0,-8.999481201E0
8.145148301E0,1.330566406E-1,9.604278564E0,-8.932632446E0
8.150183701E0,1.366271973E-1,9.625289917E0,-8.997131348E0
8.155219102E0,1.447906494E-1,9.579757690E0,-9.010757446E0
8.160254502E0,1.084442139E-1,9.593017578E0,-9.016876221E0
8.165289902E0,1.372375488E-1,9.577957153E0,-9.015396118E0
8.170325303E0,1.118469238E-1,9.568420410E0,-9.021224976E0
8.175360703E0,7.716369629E-2,9.609893799E0,-9.030715942E0
8.180396104E0,1.145782471E-1,9.594726562E0,-9.034561157E0
8.185431504E0,1.308898926E-1,9.564880371E0,-9.071334839E0
8.190466904E0,1.284637451E-1,9.591430664E0,-9.058059692E0
8.195502305E0,1.090545654E-1,9.582412720E0,-9.051132202E0
8.200537705E0,1.159973145E-1,9.569305420E0,-9.017257690E0
8.205573106E0,1.355438232E-1,9.598403931E0,-9.031417847E0
8.210608506E0,1.103210449E-1,9.588577271E0,-9.037002563E0
8.215643906E0,1.165313721E-1,9.573150635E0,-9.000503540E0
8.220679307E0,1.387481689E-1,9.594726562E0,-9.004089355E0
8.225714707E0,1.188354492E-1,9.605438232E0,-9.018539429E0
8.230750108E0,1.302185059E-1,9.587478638E0,-9.021835327E0
8.235785508E0,1.116638184E-1,9.602020264E0,-9.009735107E0
8.240820908E0,1.086273193E-1,9.582107544E0,-9.020233154E0
8.245856309E0,1.566467285E-1,9.622207642E0,-9.015686035E0
8.250891709E0,1.281585693E-1,9.602676392E0,-9.019348145E0
8.255927110E0,1.217498779E-1,9.597869873E0,-8.986953735E0
8.260962510E0,1.275634766E-1,9.587326050E0,-9.003692627E0
8.265997910E0,1.328887939E-1,9.580886841E0,-9.015426636E0
8.271033311E0,1.201934814E-1,9.607833862E0,-9.030319214E0
8.276068711E0,1.352386475E-1,9.623153687E0,-9.045120239E0
8.281104111E0,1.240234375E-1,9.599197388E0,-9.061294556E0
8.286139512E0,1.143341064E-1,9.584243774E0,-9.025192261E0
8.291174912E0,1.247253418E-1,9.583084106E0,-9.044692993E0
8.296210313E0,1.273651123E-1,9.584350586E0,-9.094985962E0
8.301245713E0,1.277313232E-1,9.604568481E0,-9.082031250E0
8.306281113E0,1.219940186E-1,9.617645264E0,-9.053421021E0
8.311316514E0,1.244201660E-1,9.605926514E0,-9.080963135E0
8.316351914E0,8.523559570E-2,9.591781616E0,-9.066665649E0
8.321387315E0,1.023101807E-1,9.598373413E0,-9.038787842E0
8.326422715E0,1.472625732E-1,9.597061157E0,-9.049438477E0
8.331458115E0,1.184844971E-1,9.622344971E0,-9.038726807E0
8.336493516E0,1.089782715E-1,9.626281738E0,-9.052932739E0
8.341528916E0,1.342926025E-1,9.601440430E0,-9.066543579E0
8.346564317E0,1.551818848E-1,9.595977783E0,-9.075378418E0
8.351599717E0,1.334991455E-1,9.585235596E0,-9.080856323E0
8.356635117E0,1.279754639E-1,9.594451904E0,-9.076782227E0
8.361670518E0,1.120300293E-1,9.610336304E0,-9.054519653E0
8.366705918E0,1.072540283E-1,9.611358643E0,-9.073867798E0
8.371741318E0,9.494018555E-2,9.609939575E0,-9.095718384E0
8.376776719E0,8.337402344E-2,9.597412109E0,-9.062454224E0
8.381812119E0,1.014709473E-1,9.581085205E0,-9.079315186E0
8.386847520E0,1.279754639E-1,9.593688965E0,-9.111877441E0
8.391882920E0,1.162719727E-1,9.601165771E0,-9.095794678E0
8.396918320E0,9.500122070E-2,9.610290527E0,-9.077621460E0
8.401953721E0,9.474182129E-2,9.579833984E0,-9.101104736E0
8.406989121E0,8.911132812E-2,9.580642700E0,-9.119567871E0
8.412024522E0,1.032409668E-1,9.594833374E0,-9.090820312E0
8.417059922E0,8.978271484E-2,9.582092285E0,-9.104965210E0
8.422095322E0,1.143646240E-1,9.601058960E0,-9.103576660E0
8.427130723E0,1.108551025E-1,9.585510254E0,-9.118774414E0
8.432166123E0,1.129913330E-1,9.606994629E0,-9.151046753E0
8.437201524E0,8.792114258E-2,9.581390381E0,-9.115798950E0
8.442236924E0,1.014556885E-1,9.591857910E0,-9.100479126E0
8.447272324E0,8.166503906E-2,9.588500977E0,-9.126022339E0
8.452307725E0,9.559631348E-2,9.577743530E0,-9.126373291E0
8.457343125E0,8.494567871E-2,9.575653076E0,-9.118621826E0
8.462378526E0,6.326293945E-2,9.573730469E0,-9.132431030E0
8.467413926E0,6.871032715E-2,9.621520996E0,-9.120727539E0
8.472449326E0,7.487487793E-2,9.597549438E0,-9.164093018E0
8.477484727E0,1.253662109E-1,9.617736816E0,-9.166320801E0
8.482520127E0,9.089660645E-2,9.584960938E0,-9.162719727E0
8.487555527E0,1.155700684E-1,9.590286255E0,-9.088760376E0
8.492590928E0,8.984375000E-2,9.575714111E0,-9.134735107E0
8.497626328E0,7.263183594E-2,9.600601196E0,-9.092849731E0
8.502661729E0,1.136016846E-1,9.591415405E0,-9.135223389E0
8.507697129E0,1.358642578E-1,9.585601807E0,-9.119323730E0
8.512732529E0,1.310729980E-1,9.596054077E0,-9.134552002E0
8.517767930E0,8.195495605E-2,9.605895996E0,-9.122940063E0
8.522803330E0,1.428985596E-1,9.552963257E0,-9.137527466E0
8.527838731E0,1.244964600E-1,9.601516724E0,-9.183822632E0
8.532874131E0,1.004028320E-1,9.640899658E0,-9.131134033E0
8.537909531E0,1.227416992E-1,9.619079590E0,-9.129043579E0
8.542944932E0,1.186523438E-1,9.602127075E0,-9.164093018E0
8.547980332E0,9.017944336E-2,9.585266113E0,-9.157638550E0
8.553015733E0,1.136474609E-1,9.575515747E0,-9.140960693E0
8.558051133E0,8.824157715E-2,9.554840088E0,-9.146621704E0
8.563086533E0,1.189727783E-1,9.587692261E0,-9.194442749E0
8.568121934E0,5.932617188E-2,9.591094971E0,-9.155426025E0
8.573157334E0,1.184539795E-1,9.565261841E0,-9.162429810E0
8.578192735E0,1.144409180E-1,9.594985962E0,-9.208511353E0
8.583228135E0,8.901977539E-2,9.598922729E0,-9.184066772E0
8.588263535E0,1.017608643E-1,9.591903687E0,-9.162094116E0
8.593298936E0,5.351257324E-2,9.588943481E0,-9.208801270E0
8.598334336E0,9.104919434E-2,9.597091675E0,-9.190185547E0
8.603369736E0,9.895324707E-2,9.564147949E0,-9.134399414E0
8.608405137E0,9.448242188E-2,9.601272583E0,-9.193450928E0
8.613440537E0,9.306335449E-2,9.596389771E0,-9.203277588E0
8.618475938E0,9.642028809E-2,9.593032837E0,-9.162322998E0
8.623511338E0,9.120178223E-2,9.593124390E0,-9.238540649E0
8.628546738E0,8.609008789E-2,9.578765869E0,-9.223236084E0
8.633582139E0,8.230590820E-2,9.600585938E0,-9.205322266E0
8.638617539E0,5.242919922E-2,9.582763672E0,-9.194244385E0
8.643652940E0,6.228637695E-2,9.567138672E0,-9.202346802E0
8.648688340E0,5.938720703E-2,9.555511475E0,-9.240921021E0
8.653723740E0,6.573486328E-2,9.591735840E0,-9.209564209E0
8.658759141E0,5.787658691E-2,9.589340210E0,-9.223068237E0
8.663794541E0,6.205749512E-2,9.594909668E0,-9.168060303E0
8.668829942E0,6.317138672E-2,9.608398438E0,-9.167739868E0
8.673865342E0,6.547546387E-2,9.590911865E0,-9.227050781E0
8.678900742E0,6.520080566E-2,9.598052979E0,-9.213470459E0
8.683936143E0,4.658508301E-2,9.599792480E0,-9.231369019E0
8.688971543E0,5.012512207E-2,9.603805542E0,-9.252822876E0
8.694006943E0,2.882385254E-2,9.584457397E0,-9.241210938E0
8.699042344E0,4.087829590E-2,9.590881348E0,-9.221923828E0
8.704077744E0,4.275512695E-2,9.597793579E0,-9.236389160E0
8.709113145E0,3.004455566E-2,9.574951172E0,-9.240509033E0
8.714148545E0,5.812072754E-2,9.599136353E0,-9.246536255E0
8.719183945E0,7.305908203E-2,9.600143433E0,-9.266342163E0
8.724219346E0,3.669738770E-2,9.598464966E0,-9.243331909E0
8.729254746E0,2.519226074E-2,9.602600098E0,-9.233535767E0
8.734290147E0,2.593994141E-2,9.583969116E0,-9.223617554E0
8.739325547E0,4.104614258E-2,9.578704834E0,-9.204559326E0
8.744360947E0,5.192565918E-2,9.579635620E0,-9.225860596E0
8.749396348E0,4.327392578E-2,9.592941284E0,-9.208908081E0
8.754431748E0,3.620910645E-2,9.599304199E0,-9.242141724E0
8.759467149E0,3.318786621E-2,9.587341309E0,-9.245651245E0
8.764502549E0,4.208374023E-2,9.600479126E0,-9.209579468E0
8.769537949E0,6.744384766E-2,9.602981567E0,-9.223007202E0
8.774573350E0,7.203674316E-2,9.588485718E0,-9.214736938E0
8.779608750E0,7.856750488E-2,9.599136353E0,-9.182281494E0
8.784644151E0,8.381652832E-2,9.598327637E0,-9.188415527E0
8.789679551E0,6.488037109E-2,9.589279175E0,-9.218185425E0
8.794714951E0,5.058288574E-2,9.592025757E0,-9.217117310E0
8.799750352E0,6.719970703E-2,9.611663818E0,-9.184509277E0
8.804785752E0,6.382751465E-2,9.614135742E0,-9.159988403E0
8.809821152E0,6.739807129E-2,9.581680298E0,-9.183914185E0
8.814856553E0,9.956359863E-2,9.561828613E0,-9.154647827E0
8.819891953E0,9.190368652E-2,9.583801270E0,-9.156402588E0
8.824927354E0,1.049194336E-1,9.583068848E0,-9.157272339E0
8.829962754E0,9.361267090E-2,9.573272705E0,-9.142654419E0
8.834998154E0,7.191467285E-2,9.596481323E0,-9.113067627E0
8.840033555E0,7.962036133E-2,9.602661133E0,-9.131210327E0
8.845068955E0,1.157684326E-1,9.578567505E0,-9.123977661E0
8.850104356E0,1.026611328E-1,9.604492188E0,-9.176162720E0
8.855139756E0,8.168029785E-2,9.612548828E0,-9.193557739E0
8.860175156E0,1.136779785E-1,9.624221802E0,-9.180068970E0
8.865210557E0,1.177520752E-1,9.604553223E0,-9.138732910E0
8.870245957E0,9.465026855E-2,9.573791504E0,-9.110336304E0
8.875281358E0,1.176605225E-1,9.576721191E0,-9.163543701E0
8.880316758E0,1.173095703E-1,9.601959229E0,-9.176605225E0
8.885352158E0,9.738159180E-2,9.590713501E0,-9.101242065E0
8.890387559E0,1.183471680E-1,9.598144531E0,-9.086471558E0
8.895422959E0,1.162872314E-1,9.586761475E0,-9.099868774E0
8.900458360E0,1.233215332E-1,9.611312866E0,-9.097152710E0
8.905493760E0,1.295623779E-1,9.616561890E0,-9.141967773E0
8.910529160E0,1.227416992E-1,9.604507446E0,-9.123840332E0
8.915564561E0,1.387786865E-1,9.593902588E0,-9.146850586E0
8.920599961E0,1.242370605E-1,9.590286255E0,-9.128662109E0
8.925635361E0,1.270751953E-1,9.594009399E0,-9.132446289E0
8.930670762E0,1.550445557E-1,9.584320068E0,-9.079879761E0
8.935706162E0,1.590423584E-1,9.626953125E0,-9.132888794E0
8.940741563E0,1.419830322E-1,9.551757812E0,-9.104690552E0
8.945776963E0,1.464385986E-1,9.580993652E0,-9.121948242E0
8.950812363E0,1.514892578E-1,9.582992554E0,-9.100341797E0
8.955847764E0,1.651306152E-1,9.591613770E0,-9.038558960E0
8.960883164E0,1.639404297E-1,9.599014282E0,-9.100845337E0
8.965918565E0,1.547393799E-1,9.599456787E0,-9.087127686E0
8.970953965E0,1.772003174E-1,9.574234009E0,-9.047210693E0
8.975989365E0,1.293182373E-1,9.580230713E0,-9.117706299E0
8.981024766E0,1.915740967E-1,9.592163086E0,-9.058380127E0
8.986060166E0,1.899871826E-1,9.592315674E0,-9.121902466E0
8.991095567E0,1.896972656E-1,9.625625610E0,-9.086181641E0
8.996130967E0,1.450653076E-1,9.623565674E0,-9.083190918E0
9.001166367E0,1.616363525E-1,9.637207031E0,-9.050994873E0
9.006201768E0,1.686553955E-1,9.555221558E0,-9.069183350E0
9.011237168E0,1.709442139E-1,9.630783081E0,-9.112380981E0
9.016272568E0,1.693420410E-1,9.635940552E0,-9.067123413E0
9.021307969E0,1.509857178E-1,9.611282349E0,-9.006454468E0
9.026343369E0,1.976623535E-1,9.580001831E0,-9.081832886E0
9.031378770E0,1.755065918E-1,9.576110840E0,-9.087829590E0
9.036414170E0,1.584625244E-1,9.584869385E0,-9.102325439E0
9.041449570E0,2.067260742E-1,9.618240356E0,-9.096343994E0
9.046484971E0,1.742858887E-1,9.600418091E0,-9.083160400E0
9.051520371E0,1.790618896E-1,9.606597900E0,-9.079055786E0
9.056555772E0,1.682891846E-1,9.607345581E0,-9.078292847E0
9.061591172E0,1.562500000E-1,9.607009888E0,-9.069549561E0
9.066626572E0,1.767578125E-1,9.587280273E0,-9.044876099E0
9.071661973E0,2.243347168E-1,9.600692749E0,-9.042312622E0
9.076697373E0,2.117919922E-1,9.612258911E0,-9.037017822E0
9.081732774E0,1.862335205E-1,9.601150513E0,-9.001525879E0
9.086768174E0,1.840362549E-1,9.610702515E0,-9.039550781E0
9.091803574E0,1.773834229E-1,9.593444824E0,-9.060348511E0
9.096838975E0,2.104034424E-1,9.591812134E0,-9.025146484E0
9.101874375E0,1.805267334E-1,9.584228516E0,-8.997940063E0
9.106909776E0,1.895294189E-1,9.606399536E0,-9.030868530E0
9.111945176E0,1.940612793E-1,9.597427368E0,-9.005981445E0
9.116980576E0,1.993713379E-1,9.589508057E0,-9.002044678E0
9.122015977E0,2.198181152E-1,9.586441040E0,-9.002548218E0
9.127051377E0,2.250213623E-1,9.599243164E0,-8.986251831E0
9.132086777E0,2.153930664E-1,9.602661133E0,-9.014038086E0
9.137122178E0,2.049560547E-1,9.590744019E0,-9.002182007E0
9.142157578E0,2.054443359E-1,9.603134155E0,-9.000854492E0
9.147192979E0,2.131652832E-1,9.612045288E0,-8.978668213E0
9.152228379E0,1.905975342E-1,9.586959839E0,-8.986480713E0
9.157263779E0,1.784515381E-1,9.597351074E0,-8.998214722E0
9.162299180E0,1.999206543E-1,9.604278564E0,-8.987121582E0
9.167334580E0,2.081756592E-1,9.588928223E0,-9.014877319E0
9.172369981E0,1.778717041E-1,9.596649170E0,-9.009002686E0
9.177405381E0,1.964874268E-1,9.580429077E0,-8.999145508E0
9.182440781E0,2.241363525E-1,9.597351074E0,-9.003707886E0
9.187476182E0,2.107543945E-1,9.603332520E0,-9.001144409E0
9.192511582E0,1.898345947E-1,9.601516724E0,-9.013183594E0
9.197546983E0,1.801452637E-1,9.606918335E0,-9.033203125E0
9.202582383E0,1.957244873E-1,9.617568970E0,-8.992370605E0
9.207617783E0,2.066345215E-1,9.601852417E0,-8.930297852E0
9.212653184E0,2.078247070E-1,9.607849121E0,-8.967422485E0
9.217688584E0,2.201385498E-1,9.608673096E0,-8.988006592E0
9.222723985E0,2.035980225E-1,9.608337402E0,-8.989883423E0
9.227759385E0,2.014770508E-1,9.594009399E0,-9.020629883E0
9.232794785E0,2.195892334E-1,9.592926025E0,-8.986251831E0
9.237830186E0,2.198944092E-1,9.613342285E0,-8.949157715E0
9.242865586E0,2.030792236E-1,9.597900391E0,-9.011276245E0
9.247900986E0,2.110137939E-1,9.570175171E0,-9.007156372E0
9.252936387E0,2.357025146E-1,9.587127686E0,-9.001983643E0
9.257971787E0,2.306671143E-1,9.602752686E0,-9.018997192E0
9.263007188E0,1.979827881E-1,9.595870972E0,-8.972473145E0
9.268042588E0,2.010650635E-1,9.586227417E0,-8.965484619E0
9.273077988E0,2.037048340E-1,9.590484619E0,-8.961303711E0
9.278113389E0,2.136535645E-1,9.619842529E0,-8.965469360E0
9.283148789E0,2.304992676E-1,9.632781982E0,-8.984710693E0
9.288184190E0,2.530364990E-1,9.636016846E0,-9.023391724E0
9.293219590E0,2.382812500E-1,9.640838623E0,-9.020431519E0
9.298254990E0,2.566223145E-1,9.588562012E0,-9.005676270E0
9.303290391E0,2.685394287E-1,9.562713623E0,-8.977249146E0
9.308325791E0,2.077026367E-1,9.623916626E0,-9.034942627E0
9.313361192E0,2.064208984E-1,9.615249634E0,-9.105941772E0
9.318396592E0,2.102203369E-1,9.609573364E0,-9.068344116E0
9.323431992E0,2.235107422E-1,9.647567749E0,-9.030563354E0
9.328467393E0,2.519836426E-1,9.600082397E0,-9.031661987E0
9.333502793E0,2.664947510E-1,9.601486206E0,-8.994567871E0
9.338538193E0,2.685394287E-1,9.593307495E0,-9.006607056E0
9.343573594E0,2.357635498E-1,9.636184692E0,-8.969985962E0
9.348608994E0,2.398071289E-1,9.592269897E0,-9.034393311E0
9.353644395E0,2.443237305E-1,9.592254639E0,-9.005081177E0
9.358679795E0,2.507324219E-1,9.620697021E0,-9.007736206E0
9.363715195E0,1.950378418E-1,9.607360840E0,-8.932876587E0
9.368750596E0,1.975708008E-1,9.567153931E0,-9.006042480E0
9.373785996E0,1.660919189E-1,9.573898315E0,-9.029983521E0
9.378821397E0,2.122344971E-1,9.620117188E0,-8.999679565E0
9.383856797E0,1.734619141E-1,9.602020264E0,-8.963531494E0
9.388892197E0,2.120819092E-1,9.599456787E0,-8.962203979E0
9.393927598E0,2.556152344E-1,9.597259521E0,-9.087341309E0
9.398962998E0,2.057342529E-1,9.621490479E0,-9.078109741E0
9.403998399E0,1.973876953E-1,9.569274902E0,-9.056427002E0
9.409033799E0,2.062377930E-1,9.629913330E0,-8.984619141E0
9.414069199E0,1.858825684E-1,9.618927002E0,-9.073745728E0
9.419104600E0,2.553100586E-1,9.581100464E0,-9.001892090E0
9.424140000E0,2.045898438E-1,9.627716064E0,-9.125885010E0
9.429175401E0,2.187500000E-1,9.627746582E0,-9.116867065E0
9.434210801E0,2.507781982E-1,9.585601807E0,-9.074325562E0
9.439246201E0,1.924133301E-1,9.608154297E0,-9.073974609E0
9.444281602E0,1.944732666E-1,9.575729370E0,-8.970230103E0
9.449317002E0,1.880645752E-1,9.577789307E0,-9.054336548E0
9.454352402E0,1.988677979E-1,9.576187134E0,-9.125534058E0
9.459387803E0,2.298889160E-1,9.620880127E0,-9.076812744E0
9.464423203E0,2.813873291E-1,9.622299194E0,-9.129562378E0
9.469458604E0,2.647552490E-1,9.634262085E0,-9.043395996E0
9.474494004E0,2.476654053E-1,9.601577759E0,-9.127212524E0
9.479529404E0,2.111663818E-1,9.580993652E0,-9.090423584E0
9.484564805E0,2.037048340E-1,9.592834473E0,-9.067687988E0
9.489600205E0,2.770690918E-1,9.639297485E0,-9.051544189E0
9.494635606E0,2.482299805E-1,9.606597900E0,-9.041473389E0
9.499671006E0,2.054290771E-1,9.602249146E0,-9.102111816E0
9.504706406E0,2.364349365E-1,9.582107544E0,-9.057723999E0
9.509741807E0,2.984466553E-1,9.593551636E0,-9.032577515E0
9.514777207E0,2.971038818E-1,9.606109619E0,-9.016204834E0
9.519812608E0,2.743835449E-1,9.584930420E0,-9.020690918E0
9.524848008E0,2.879638672E-1,9.553527832E0,-9.051788330E0
9.529883408E0,2.621765137E-1,9.578414917E0,-9.037002563E0
9.534918809E0,2.804412842E-1,9.594558716E0,-9.014511108E0
9.539954209E0,2.951507568E-1,9.610595703E0,-9.041671753E0
9.544989610E0,3.311309814E-1,9.594039917E0,-8.977737427E0
9.550025010E0,2.956237793E-1,9.593658447E0,-8.947891235E0
9.555060410E0,2.606964111E-1,9.597763062E0,-8.990829468E0
9.560095811E0,2.904815674E-1,9.602355957E0,-8.970367432E0
9.565131211E0,2.956085205E-1,9.606735229E0,-8.957962036E0
9.570166611E0,3.093566895E-1,9.614212036E0,-8.963470459E0
9.575202012E0,3.511352539E-1,9.639923096E0,-8.953033447E0
9.580237412E0,3.512573242E-1,9.634918213E0,-8.886795044E0
9.585272813E0,3.306274414E-1,9.621322632E0,-8.749771118E0
9.590308213E0,3.049011230E-1,9.619964600E0,-8.761062622E0
9.595343613E0,2.579345703E-1,9.623947144E0,-8.737960815E0
9.600369500E0,3.147125244E-1,9.614669800E0,-8.830368042E0
9.605404900E0,3.826751709E-1,9.601654053E0,-8.875991821E0
9.610440301E0,3.585205078E-1,9.603393555E0,-8.942871094E0
9.615475701E0,4.127197266E-1,9.632064819E0,-9.025939941E0
9.620511101E0,4.092864990E-1,9.603836060E0,-8.996139526E0
9.625546502E0,3.215179443E-1,9.605682373E0,-8.897293091E0
9.630581902E0,3.099975586E-1,9.611373901E0,-8.822494507E0
9.635617303E0,3.021850586E-1,9.590347290E0,-8.769088745E0
9.640652703E0,3.787078857E-1,9.630004883E0,-8.776824951E0
9.645688103E0,4.077911377E-1,9.643432617E0,-8.845031738E0
9.650723504E0,3.723907471E-1,9.615646362E0,-8.851348877E0
9.655758904E0,3.599090576E-1,9.615692139E0,-8.819671631E0
9.660794304E0,3.549957275E-1,9.625152588E0,-8.862121582E0
9.665829705E0,3.406066895E-1,9.631484985E0,-8.837951660E0
9.670865105E0,3.417663574E-1,9.615722656E0,-8.813003540E0
9.675900506E0,3.511505127E-1,9.609634399E0,-8.788681030E0
9.680935906E0,3.558197021E-1,9.601455688E0,-8.837966919E0
9.685971306E0,3.801727295E-1,9.622955322E0,-8.856033325E0
9.691006707E0,3.635253906E-1,9.628372192E0,-8.816619873E0
9.696042107E0,3.781433105E-1,9.597015381E0,-8.789138794E0
9.701077508E0,4.153747559E-1,9.610733032E0,-8.770095825E0
9.706112908E0,3.881988525E-1,9.599731445E0,-8.792266846E0
9.711148308E0,3.561248779E-1,9.606842041E0,-8.796844482E0
9.716183709E0,3.463134766E-1,9.609024048E0,-8.770523071E0
9.721219109E0,3.655853271E-1,9.626693726E0,-8.713500977E0
9.726254510E0,3.838195801E-1,9.613006592E0,-8.767913818E0
9.731289910E0,3.509216309E-1,9.596832275E0,-8.782943726E0
9.736325310E0,3.469696045E-1,9.593002319E0,-8.730590820E0
9.741360711E0,3.501434326E-1,9.604263306E0,-8.674880981E0
9.746396111E0,3.737945557E-1,9.600280762E0,-8.646194458E0
9.751431512E0,3.492126465E-1,9.602371216E0,-8.667572021E0
9.756466912E0,3.627166748E-1,9.611389160E0,-8.683944702E0
9.761502312E0,3.873138428E-1,9.582702637E0,-8.635177612E0
9.766537713E0,3.885955811E-1,9.630752563E0,-8.666000366E0
9.771573113E0,3.800201416E-1,9.613143921E0,-8.705520630E0
9.776608513E0,3.818359375E-1,9.587097168E0,-8.697265625E0
9.781643914E0,3.538818359E-1,9.617477417E0,-8.641387939E0
9.786679314E0,2.433776855E-1,9.615844727E0,-8.652633667E0
9.791714715E0,3.281707764E-1,9.625640869E0,-8.649780273E0
9.796750115E0,2.990875244E-1,9.621963501E0,-8.672378540E0
9.801785515E0,3.778686523E-1,9.629043579E0,-8.660415649E0
9.806820916E0,3.531494141E-1,9.624206543E0,-8.705123901E0
9.811856316E0,2.927856445E-1,9.612808228E0,-8.641464233E0
9.816891717E0,2.978973389E-1,9.626174927E0,-8.665420532E0
9.821927117E0,3.503723145E-1,9.570755005E0,-8.675979614E0
9.826962517E0,3.131408691E-1,9.598510742E0,-8.607223511E0
9.831997918E0,3.398742676E-1,9.617263794E0,-8.598388672E0
9.837033318E0,2.797698975E-1,9.629669189E0,-8.602676392E0
9.842068719E0,3.413085938E-1,9.610015869E0,-8.555435181E0
9.847104119E0,3.150787354E-1,9.624923706E0,-8.571212769E0
9.852139519E0,2.999114990E-1,9.623321533E0,-8.597412109E0
9.857174920E0,3.111572266E-1,9.616241455E0,-8.623916626E0
9.862210320E0,3.303070068E-1,9.601913452E0,-8.543960571E0
9.867245721E0,3.160705566E-1,9.632537842E0,-8.553253174E0
9.872281121E0,3.031005859E-1,9.594467163E0,-8.595352173E0
9.877316521E0,2.444610596E-1,9.584030151E0,-8.570159912E0
9.882351922E0,3.113861084E-1,9.623550415E0,-8.588745117E0
9.887387322E0,3.119659424E-1,9.628646851E0,-8.641220093E0
9.892422722E0,3.221130371E-1,9.596008301E0,-8.593246460E0
9.897458123E0,3.052825928E-1,9.614013672E0,-8.519561768E0
9.902493523E0,3.179016113E-1,9.589584351E0,-8.548629761E0
9.907528924E0,3.076477051E-1,9.613693237E0,-8.548080444E0
9.912564324E0,2.796020508E-1,9.630157471E0,-8.510879517E0
9.917599724E0,3.330383301E-1,9.589935303E0,-8.575286865E0
9.922635125E0,3.515319824E-1,9.593307495E0,-8.574493408E0
9.927670525E0,3.498077393E-1,9.621826172E0,-8.521423340E0
9.932705926E0,3.449096680E-1,9.654022217E0,-8.500396729E0
9.937741326E0,3.156890869E-1,9.639129639E0,-8.559371948E0
9.942776726E0,3.626403809E-1,9.637268066E0,-8.537918091E0
9.947812127E0,3.648834229E-1,9.639816284E0,-8.554595947E0
9.952847527E0,3.494720459E-1,9.617645264E0,-8.490982056E0
9.957882928E0,3.550567627E-1,9.647750854E0,-8.451995850E0
9.962918328E0,3.767089844E-1,9.627487183E0,-8.461471558E0
9.967953728E0,3.758850098E-1,9.616897583E0,-8.510025024E0
9.972989129E0,3.648681641E-1,9.636459351E0,-8.505599976E0
9.978024529E0,3.768768311E-1,9.613586426E0,-8.478256226E0
9.983059929E0,3.836212158E-1,9.603942871E0,-8.489501953E0
9.988095330E0,3.815612793E-1,9.618133545E0,-8.456375122E0
9.993130730E0,3.500213623E-1,9.624649048E0,-8.464920044E0
9.998166131E0,3.560028076E-1,9.633850098E0,-8.467834473E0
1.000320153E1,3.930664062E-1,9.623657227E0,-8.456314087E0
1.000823693E1,4.016571045E-1,9.581771851E0,-8.418075562E0
1.001327233E1,4.072723389E-1,9.594635010E0,-8.409240723E0
1.001830773E1,3.857727051E-1,9.602645874E0,-8.423706055E0
1.002334313E1,3.788909912E-1,9.632568359E0,-8.473205566E0
1.002837853E1,3.848571777E-1,9.618209839E0,-8.413803101E0
1.003341393E1,3.812713623E-1,9.604583740E0,-8.383178711E0
1.003844933E1,3.485565186E-1,9.607070923E0,-8.397857666E0
1.004348473E1,3.559875488E-1,9.605194092E0,-8.400161743E0
1.004852014E1,4.114685059E-1,9.602584839E0,-8.442611694E0
1.005355554E1,4.075775146E-1,9.616485596E0,-8.405014038E0
1.005859094E1,3.783111572E-1,9.639144897E0,-8.350769043E0
1.006362634E1,3.670043945E-1,9.636230469E0,-8.346298218E0
1.006866174E1,3.876800537E-1,9.615341187E0,-8.377471924E0
1.007369714E1,3.936462402E-1,9.583099365E0,-8.430786133E0
1.007873254E1,3.999176025E-1,9.595504761E0,-8.434799194E0
1.008376794E1,3.968048096E-1,9.604141235E0,-8.386352539E0
1.008880334E1,3.775329590E-1,9.599670410E0,-8.392562866E0
1.009383874E1,3.682403564E-1,9.620315552E0,-8.341979980E0
1.009887414E1,3.513793945E-1,9.639129639E0,-8.267166138E0
1.010390954E1,3.600616455E-1,9.639480591E0,-8.263900757E0
1.010894494E1,3.549957275E-1,9.623199463E0,-8.314071655E0
1.011398034E1,3.735809326E-1,9.612365723E0,-8.372039795E0
1.011901574E1,4.038085938E-1,9.605804443E0,-8.407379150E0
1.012405114E1,3.650512695E-1,9.617126465E0,-8.424255371E0
1.012908654E1,3.630676270E-1,9.643630981E0,-8.406494141E0
1.013412194E1,3.632659912E-1,9.641052246E0,-8.413024902E0
1.013915734E1,3.166961670E-1,9.611923218E0,-8.453643799E0
1.014419274E1,2.910156250E-1,9.608566284E0,-8.457519531E0
1.014922814E1,2.906646729E-1,9.635406494E0,-8.509445190E0
1.015426354E1,2.844543457E-1,9.637588501E0,-8.407028198E0
1.015929894E1,3.205871582E-1,9.621536255E0,-8.366058350E0
1.016433434E1,3.317718506E-1,9.616119385E0,-8.408660889E0
1.016936974E1,3.379669189E-1,9.597915649E0,-8.415451050E0
1.017440514E1,3.171386719E-1,9.610076904E0,-8.387359619E0
1.017944054E1,3.271179199E-1,9.620193481E0,-8.352920532E0
1.018447594E1,2.986907959E-1,9.633041382E0,-8.390426636E0
1.018951135E1,2.975616455E-1,9.632232666E0,-8.455490112E0
1.019454675E1,2.695312500E-1,9.610641479E0,-8.457687378E0
1.019958215E1,3.338470459E-1,9.626113892E0,-8.449356079E0
1.020461755E1,3.139495850E-1,9.610519409E0,-8.420425415E0
1.020965295E1,3.414154053E-1,9.589141846E0,-8.435150146E0
1.021468835E1,3.537445068E-1,9.621292114E0,-8.416397095E0
1.021972375E1,3.214569092E-1,9.616897583E0,-8.392822266E0
1.022475915E1,3.176727295E-1,9.590255737E0,-8.467010498E0
1.022979455E1,2.827758789E-1,9.591125488E0,-8.410476685E0
1.023482995E1,2.635803223E-1,9.610443115E0,-8.407974243E0
1.023986535E1,2.573089600E-1,9.597381592E0,-8.428558350E0
1.024490075E1,3.105468750E-1,9.600906372E0,-8.388046265E0
1.024993615E1,3.353424072E-1,9.637573242E0,-8.434173584E0
1.025497155E1,3.269653320E-1,9.612625122E0,-8.481369019E0
1.026000695E1,2.848663330E-1,9.578918457E0,-8.411193848E0
1.026504235E1,3.370056152E-1,9.606109619E0,-8.398666382E0
1.027007775E1,3.070373535E-1,9.661895752E0,-8.351959229E0
1.027511315E1,3.020019531E-1,9.632583618E0,-8.363906860E0
1.028014855E1,3.199615479E-1,9.639450073E0,-8.328720093E0
1.028518395E1,3.461151123E-1,9.626159668E0,-8.306213379E0
1.029021935E1,3.076171875E-1,9.609375000E0,-8.465637207E0
1.029525475E1,3.489379883E-1,9.623077393E0,-8.432052612E0
1.030029015E1,3.613739014E-1,9.637542725E0,-8.381607056E0
1.030532555E1,3.305511475E-1,9.576019287E0,-8.381668091E0
1.031036096E1,3.512725830E-1,9.637145996E0,-8.394027710E0
1.031539636E1,3.219146729E-1,9.615966797E0,-8.419067383E0
1.032043176E1,3.532104492E-1,9.611862183E0,-8.327636719E0
1.032546716E1,3.288421631E-1,9.625625610E0,-8.395889282E0
1.033050256E1,3.053741455E-1,9.665145874E0,-8.360519409E0
1.033553796E1,3.540496826E-1,9.650238037E0,-8.430191040E0
1.034057336E1,3.487854004E-1,9.629577637E0,-8.419692993E0
1.034560876E1,3.173065186E-1,9.624374390E0,-8.490478516E0
1.035064416E1,3.285675049E-1,9.652633667E0,-8.436904907E0
1.035567956E1,3.263702393E-1,9.621459961E0,-8.402145386E0
