"Time (s)","Gyroscope x (rad/s)","Gyroscope y (rad/s)","Gyroscope z (rad/s)"
3.704900980E-1,1.770019531E-3,4.455566406E-3,2.624511719E-3
3.755254980E-1,1.693725586E-3,5.157470703E-3,2.243041992E-3
3.805608990E-1,7.324218750E-4,5.554199219E-3,1.556396484E-3
3.855962990E-1,1.403808594E-3,5.386352539E-3,1.556396484E-3
3.906316990E-1,2.243041992E-3,3.662109375E-3,1.556396484E-3
3.956671000E-1,3.097534180E-3,3.890991211E-3,1.129150391E-3
4.007025000E-1,2.471923828E-3,4.699707031E-3,9.460449219E-4
4.057379010E-1,2.471923828E-3,3.631591797E-3,1.113891602E-3
4.107733010E-1,2.929687500E-3,3.479003906E-3,3.051757812E-5
4.158087010E-1,2.563476562E-3,4.562377930E-3,-5.798339844E-4
4.208441020E-1,3.967285156E-4,5.645751953E-3,9.155273438E-4
4.258795020E-1,-7.324218750E-4,5.203247070E-3,2.624511719E-3
4.309149020E-1,-2.136230469E-4,4.608154297E-3,1.586914062E-3
4.359503030E-1,8.697509766E-4,4.608154297E-3,1.037597656E-3
4.409857030E-1,1.403808594E-3,3.524780273E-3,1.007080078E-3
4.460211040E-1,1.403808594E-3,3.021240234E-3,-6.103515625E-5
4.510565040E-1,1.403808594E-3,3.021240234E-3,-5.798339844E-4
4.560919040E-1,1.403808594E-3,3.021240234E-3,1.525878906E-5
4.611273050E-1,1.403808594E-3,3.021240234E-3,4.882812500E-4
4.661627050E-1,1.831054688E-4,3.021240234E-3,-1.068115234E-4
4.711981060E-1,-1.220703125E-4,2.395629883E-3,4.577636719E-5
4.762335060E-1,3.356933594E-4,2.578735352E-3,1.129150391E-3
4.812689060E-1,-3.204345703E-4,3.021240234E-3,1.556396484E-3
4.863043070E-1,-7.324218750E-4,3.021240234E-3,9.155273438E-4
4.913397070E-1,-7.324218750E-4,3.021240234E-3,-1.678466797E-4
4.963751080E-1,-1.419067383E-3,3.021240234E-3,1.068115234E-4
5.014105080E-1,-3.204345703E-3,3.021240234E-3,4.882812500E-4
5.064459080E-1,-3.234863281E-3,3.021240234E-3,1.205444336E-3
5.114813090E-1,-1.434326172E-3,3.021240234E-3,2.288818359E-3
5.165167090E-1,-1.480102539E-3,2.273559570E-3,1.159667969E-3
5.215521100E-1,-1.800537109E-3,3.433227539E-3,-2.441406250E-4
5.265875100E-1,-2.563476562E-3,2.563476562E-3,9.460449219E-4
5.316229100E-1,-2.868652344E-3,1.953125000E-3,2.334594727E-3
5.366583110E-1,-2.090454102E-3,2.731323242E-3,1.846313477E-3
5.416937110E-1,-2.593994141E-3,2.227783203E-3,2.349853516E-3
5.467291110E-1,-2.868652344E-3,1.953125000E-3,1.831054688E-3
5.517645120E-1,-2.059936523E-3,1.953125000E-3,2.380371094E-3
5.567999120E-1,-1.800537109E-3,2.777099609E-3,1.800537109E-3
5.618353130E-1,-1.800537109E-3,2.166748047E-3,7.171630859E-4
5.668707130E-1,-1.800537109E-3,2.792358398E-3,2.197265625E-3
5.719061130E-1,-9.460449219E-4,3.021240234E-3,2.624511719E-3
5.769415140E-1,-3.372192383E-3,2.136230469E-3,2.624511719E-3
5.819769140E-1,-3.051757812E-3,1.953125000E-3,1.739501953E-3
5.870123150E-1,-2.868652344E-3,1.037597656E-3,6.561279297E-4
5.920477150E-1,-2.868652344E-3,1.800537109E-3,1.419067383E-3
5.970831150E-1,-2.868652344E-3,1.953125000E-3,1.556396484E-3
6.021185160E-1,-3.814697266E-3,1.953125000E-3,-3.051757812E-4
6.071539160E-1,-3.936767578E-3,9.918212891E-4,-5.798339844E-4
6.121893170E-1,-2.975463867E-3,2.807617188E-3,2.319335938E-3
6.172247170E-1,-3.845214844E-3,2.044677734E-3,2.624511719E-3
6.222601170E-1,-2.960205078E-3,9.613037109E-4,2.624511719E-3
6.272955180E-1,-1.876831055E-3,1.876831055E-3,1.632690430E-3
6.323309180E-1,-1.800537109E-3,9.307861328E-4,3.585815430E-3
6.373663180E-1,-2.822875977E-3,8.850097656E-4,2.685546875E-3
6.424017190E-1,-3.906250000E-3,8.850097656E-4,1.602172852E-3
6.474371190E-1,-3.936767578E-3,-1.678466797E-4,1.556396484E-3
6.524725200E-1,-2.883911133E-3,-1.251220703E-3,5.035400391E-4
6.575079200E-1,-1.800537109E-3,-1.831054688E-4,1.571655273E-3
6.625433200E-1,-7.781982422E-4,9.002685547E-4,2.609252930E-3
6.675787210E-1,-2.914428711E-3,1.953125000E-3,1.556396484E-3
6.726141210E-1,-3.936767578E-3,1.861572266E-3,1.602172852E-3
6.776495220E-1,-3.890991211E-3,-1.373291016E-4,2.624511719E-3
6.826849220E-1,-2.944946289E-3,8.850097656E-4,2.563476562E-3
6.877203220E-1,-3.936767578E-3,7.934570312E-4,1.556396484E-3
6.927557230E-1,-3.845214844E-3,-9.155273438E-5,1.556396484E-3
6.977911230E-1,-2.868652344E-3,8.850097656E-4,1.556396484E-3
7.028265240E-1,-2.761840820E-3,7.629394531E-4,1.556396484E-3
7.078619240E-1,-1.937866211E-3,-3.204345703E-4,1.556396484E-3
7.128973240E-1,-2.746582031E-3,-1.251220703E-3,1.434326172E-3
7.179327250E-1,-1.663208008E-3,-9.613037109E-4,6.408691406E-4
7.229681250E-1,-7.324218750E-4,5.493164062E-4,1.892089844E-3
7.280035260E-1,-1.266479492E-3,-1.083374023E-3,3.341674805E-3
7.330389260E-1,-3.936767578E-3,-3.814697266E-4,1.556396484E-3
7.380743260E-1,-3.540039062E-3,-1.052856445E-3,1.556396484E-3
7.431097270E-1,-2.029418945E-3,-1.831054688E-4,1.556396484E-3
7.481451270E-1,-3.112792969E-3,-1.831054688E-4,2.029418945E-3
7.531805270E-1,-3.707885742E-3,-1.831054688E-4,3.463745117E-3
7.582159280E-1,-3.128051758E-3,6.103515625E-5,2.624511719E-3
7.632513280E-1,-4.211425781E-3,8.850097656E-4,2.624511719E-3
7.682867290E-1,-4.455566406E-3,5.950927734E-4,2.914428711E-3
7.733221290E-1,-2.868652344E-3,-1.831054688E-4,3.128051758E-3
7.783575290E-1,-3.173828125E-3,1.068115234E-4,1.861572266E-3
7.833929300E-1,-3.631591797E-3,2.441406250E-4,2.624511719E-3
7.884283300E-1,-2.868652344E-3,-1.251220703E-3,2.624511719E-3
7.934637310E-1,-2.532958984E-3,-1.251220703E-3,2.624511719E-3
7.984991310E-1,-2.166748047E-3,-1.251220703E-3,2.990722656E-3
8.035345310E-1,-2.868652344E-3,-1.617431641E-3,3.341674805E-3
8.085699320E-1,-2.502441406E-3,-1.953125000E-3,3.005981445E-3
8.136053320E-1,-1.419067383E-3,-8.697509766E-4,2.929687500E-3
8.186407330E-1,-1.541137695E-3,-1.831054688E-4,1.556396484E-3
8.236761330E-1,-2.456665039E-3,-6.103515625E-4,1.556396484E-3
8.287115330E-1,-1.800537109E-3,-1.678466797E-3,1.983642578E-3
8.337469340E-1,-2.243041992E-3,-2.319335938E-3,2.624511719E-3
8.387823340E-1,-2.868652344E-3,-2.777099609E-3,2.624511719E-3
8.438177350E-1,-2.410888672E-3,-2.471923828E-3,2.624511719E-3
8.488531350E-1,-1.800537109E-3,-2.197265625E-3,2.166748047E-3
8.538885350E-1,-1.800537109E-3,-2.914428711E-3,1.556396484E-3
8.589239360E-1,-1.800537109E-3,-1.831054688E-3,1.556396484E-3
8.639593360E-1,-1.800537109E-3,-1.770019531E-3,2.075195312E-3
8.689947360E-1,-2.334594727E-3,-2.319335938E-3,2.624511719E-3
8.740301370E-1,-2.334594727E-3,-2.868652344E-3,3.173828125E-3
8.790655370E-1,-7.171630859E-4,-2.853393555E-3,3.158569336E-3
8.841009380E-1,3.356933594E-4,-1.770019531E-3,3.189086914E-3
8.891363380E-1,-8.239746094E-4,-1.251220703E-3,2.548217773E-3
8.941717380E-1,-1.800537109E-3,-1.846313477E-3,1.556396484E-3
8.992071390E-1,-2.410888672E-3,-2.319335938E-3,9.613037109E-4
9.042425390E-1,-2.868652344E-3,-2.319335938E-3,1.098632812E-3
9.092779400E-1,-1.632690430E-3,-2.944946289E-3,1.556396484E-3
9.143133400E-1,-7.324218750E-4,-4.028320312E-3,2.197265625E-3
9.193487400E-1,-7.324218750E-4,-3.158569336E-3,1.983642578E-3
9.243841410E-1,-7.629394531E-5,-2.319335938E-3,2.227783203E-3
9.294195410E-1,-3.509521484E-4,-3.005981445E-3,2.624511719E-3
9.344549420E-1,-7.324218750E-4,-2.700805664E-3,1.251220703E-3
9.394903420E-1,-7.324218750E-4,-3.021240234E-3,1.892089844E-3
9.445257420E-1,-1.449584961E-3,-4.104614258E-3,3.341674805E-3
9.495611430E-1,-3.662109375E-4,-2.304077148E-3,2.258300781E-3
9.545965430E-1,-4.119873047E-4,-1.998901367E-3,1.556396484E-3
9.596319430E-1,-7.324218750E-4,-3.814697266E-3,1.556396484E-3
9.646673440E-1,1.525878906E-5,-5.218505859E-3,1.556396484E-3
9.697027440E-1,3.356933594E-4,-4.760742188E-3,1.556396484E-3
9.747381450E-1,1.113891602E-3,-4.455566406E-3,2.349853516E-3
9.797735450E-1,2.197265625E-3,-4.455566406E-3,3.433227539E-3
9.848089450E-1,4.577636719E-5,-3.662109375E-3,2.899169922E-3
9.898443460E-1,7.629394531E-5,-3.387451172E-3,2.624511719E-3
9.948797460E-1,-5.035400391E-4,-2.563476562E-3,1.800537109E-3
9.999151470E-1,1.068115234E-4,-4.013061523E-3,3.250122070E-3
1.004950547E0,1.190185547E-3,-4.455566406E-3,3.692626953E-3
1.009985947E0,-3.509521484E-4,-3.585815430E-3,2.822875977E-3
1.015021348E0,-7.324218750E-4,-3.387451172E-3,2.624511719E-3
1.020056748E0,-7.324218750E-4,-4.287719727E-3,3.524780273E-3
1.025092149E0,1.678466797E-4,-4.455566406E-3,2.792358398E-3
1.030127549E0,-5.950927734E-4,-4.455566406E-3,1.708984375E-3
1.035162949E0,1.129150391E-3,-4.455566406E-3,3.433227539E-3
1.040198350E0,1.403808594E-3,-4.455566406E-3,2.746582031E-3
1.045233750E0,1.403808594E-3,-3.509521484E-3,3.585815430E-3
1.050269151E0,1.403808594E-3,-4.364013672E-3,3.692626953E-3
1.055304551E0,2.380371094E-3,-5.447387695E-3,2.716064453E-3
1.060339951E0,1.464843750E-3,-4.531860352E-3,1.632690430E-3
1.065375352E0,3.814697266E-4,-4.455566406E-3,1.556396484E-3
1.070410752E0,1.342773438E-3,-4.455566406E-3,2.578735352E-3
1.075446152E0,1.403808594E-3,-3.433227539E-3,2.624511719E-3
1.080481553E0,1.403808594E-3,-3.387451172E-3,3.677368164E-3
1.085516953E0,1.403808594E-3,-5.523681641E-3,2.639770508E-3
1.090552354E0,3.356933594E-4,-4.455566406E-3,2.624511719E-3
1.095587754E0,3.204345703E-4,-4.455566406E-3,2.624511719E-3
1.100623154E0,-7.324218750E-4,-3.387451172E-3,1.586914062E-3
1.105658555E0,-7.019042969E-4,-3.387451172E-3,2.624511719E-3
1.110693955E0,3.356933594E-4,-3.387451172E-3,2.624511719E-3
1.115729356E0,4.577636719E-4,-3.463745117E-3,2.624511719E-3
1.120764756E0,2.548217773E-3,-4.455566406E-3,2.624511719E-3
1.125800156E0,3.341674805E-3,-4.272460938E-3,2.731323242E-3
1.130835557E0,1.296997070E-3,-2.319335938E-3,3.601074219E-3
1.135870957E0,4.425048828E-4,-2.319335938E-3,2.517700195E-3
1.140906358E0,1.266479492E-3,-2.578735352E-3,1.556396484E-3
1.145941758E0,1.831054688E-4,-4.318237305E-3,1.846313477E-3
1.150977158E0,-7.324218750E-4,-3.387451172E-3,3.555297852E-3
1.156012559E0,-7.324218750E-4,-3.387451172E-3,2.471923828E-3
1.161047959E0,-7.324218750E-4,-3.219604492E-3,1.556396484E-3
1.166083360E0,-7.324218750E-4,-2.319335938E-3,1.373291016E-3
1.171118760E0,-5.493164062E-4,-2.319335938E-3,4.882812500E-4
1.176154160E0,5.340576172E-4,-2.532958984E-3,7.019042969E-4
1.181189561E0,9.460449219E-4,-3.387451172E-3,1.342773438E-3
1.186224961E0,-5.035400391E-4,-3.387451172E-3,4.882812500E-4
1.191260361E0,3.356933594E-4,-3.387451172E-3,9.918212891E-4
1.196295762E0,3.356933594E-4,-3.387451172E-3,2.624511719E-3
1.201331162E0,3.356933594E-4,-3.128051758E-3,2.365112305E-3
1.206366563E0,4.577636719E-5,-2.609252930E-3,1.281738281E-3
1.211401963E0,-1.037597656E-3,-3.387451172E-3,1.098632812E-3
1.216437363E0,-1.495361328E-3,-3.082275391E-3,2.624511719E-3
1.221472764E0,-4.119873047E-4,-2.655029297E-3,2.624511719E-3
1.226508164E0,3.356933594E-4,-3.067016602E-3,1.968383789E-3
1.231543565E0,-1.525878906E-5,-2.319335938E-3,8.392333984E-4
1.236578965E0,-7.324218750E-4,-2.319335938E-3,1.556396484E-3
1.241614365E0,-7.324218750E-4,-2.319335938E-3,1.190185547E-3
1.246649766E0,-3.509521484E-4,-2.319335938E-3,8.850097656E-4
1.251685166E0,-4.730224609E-4,-2.731323242E-3,1.556396484E-3
1.256720567E0,-1.800537109E-3,-2.990722656E-3,1.159667969E-3
1.261755967E0,-2.227783203E-3,-1.907348633E-3,4.882812500E-4
1.266791367E0,-2.014160156E-3,-1.693725586E-3,9.307861328E-4
1.271826768E0,-7.324218750E-4,-1.876831055E-3,2.014160156E-3
1.276862168E0,-1.205444336E-3,-1.724243164E-3,1.708984375E-3
1.281897568E0,-1.342773438E-3,-2.319335938E-3,9.613037109E-4
1.286932969E0,-1.708984375E-3,-1.358032227E-3,2.044677734E-3
1.291968369E0,-2.868652344E-3,-6.866455078E-4,2.624511719E-3
1.297003770E0,-2.365112305E-3,-1.770019531E-3,2.624511719E-3
1.302039170E0,-1.800537109E-3,-3.372192383E-3,2.105712891E-3
1.307074570E0,-1.800537109E-3,-3.921508789E-3,1.022338867E-3
1.312109971E0,-1.800537109E-3,-3.387451172E-3,4.882812500E-4
1.317145371E0,-7.019042969E-4,-3.387451172E-3,1.052856445E-3
1.322180772E0,-2.288818359E-4,-2.273559570E-3,1.556396484E-3
1.327216172E0,-1.327514648E-3,-1.251220703E-3,9.765625000E-4
1.332251572E0,-2.410888672E-3,-1.251220703E-3,-1.068115234E-4
1.337286973E0,-1.663208008E-3,-1.861572266E-3,3.051757812E-5
1.342322373E0,-1.983642578E-3,-2.944946289E-3,4.882812500E-4
1.347357774E0,-2.868652344E-3,-2.761840820E-3,1.129150391E-3
1.352393174E0,-1.586914062E-3,-1.678466797E-3,1.556396484E-3
1.357428574E0,-1.388549805E-3,-1.251220703E-3,1.556396484E-3
1.362463975E0,-1.144409180E-3,-5.950927734E-4,1.556396484E-3
1.367499375E0,-2.105712891E-3,-8.697509766E-4,8.850097656E-4
1.372534776E0,-2.868652344E-3,-5.645751953E-4,4.882812500E-4
1.377570176E0,-2.868652344E-3,-9.002685547E-4,-2.136230469E-4
1.382605576E0,-2.868652344E-3,-5.340576172E-4,-5.798339844E-4
1.387640977E0,-2.136230469E-3,-1.663208008E-3,-1.312255859E-3
1.392676377E0,-4.043579102E-3,-1.586914062E-3,-1.647949219E-3
1.397711777E0,-4.257202148E-3,-1.251220703E-3,-1.220703125E-4
1.402747178E0,-3.173828125E-3,-1.251220703E-3,4.882812500E-4
1.407782578E0,-2.868652344E-3,-4.730224609E-4,-2.899169922E-4
1.412817979E0,-2.868652344E-3,-9.765625000E-4,-5.798339844E-4
1.417853379E0,-3.677368164E-3,-1.251220703E-3,-5.798339844E-4
1.422888779E0,-3.936767578E-3,-2.075195312E-3,1.068115234E-3
1.427924180E0,-3.936767578E-3,-1.495361328E-3,-1.068115234E-4
1.432959580E0,-3.097534180E-3,-1.251220703E-3,-5.798339844E-4
1.437994981E0,-3.723144531E-3,-2.105712891E-3,-5.798339844E-4
1.443030381E0,-2.212524414E-3,-1.464843750E-3,-1.434326172E-3
1.448065781E0,-4.440307617E-3,-1.251220703E-3,-7.629394531E-4
1.453101182E0,-4.119873047E-3,-3.662109375E-4,3.204345703E-4
1.458136582E0,-2.136230469E-3,-1.098632812E-3,1.403808594E-3
1.463171983E0,-1.800537109E-3,-3.356933594E-4,6.408691406E-4
1.468207383E0,-2.731323242E-3,7.324218750E-4,-4.272460938E-4
1.473242783E0,-2.868652344E-3,-6.103515625E-5,-5.798339844E-4
1.478278184E0,-3.829956055E-3,7.629394531E-4,-5.798339844E-4
1.483313584E0,-3.936767578E-3,-9.155273438E-5,-1.541137695E-3
1.488348985E0,-2.960205078E-3,-1.831054688E-4,-1.647949219E-3
1.493384385E0,-3.860473633E-3,-1.831054688E-4,-6.561279297E-4
1.498419785E0,-2.944946289E-3,-1.831054688E-4,-1.571655273E-3
1.503455186E0,-2.868652344E-3,-1.205444336E-3,-6.256103516E-4
1.508490586E0,-3.906250000E-3,-2.288818359E-4,4.577636719E-4
1.513525986E0,-4.989624023E-3,8.544921875E-4,-5.493164062E-4
1.518561387E0,-6.072998047E-3,2.990722656E-3,-1.632690430E-3
1.523596787E0,-3.936767578E-3,1.953125000E-3,-1.647949219E-3
1.528632188E0,-2.868652344E-3,1.922607422E-3,1.556396484E-3
1.533667588E0,-2.868652344E-3,-1.831054688E-4,4.882812500E-4
1.538702988E0,-2.868652344E-3,-1.525878906E-4,4.882812500E-4
1.543738389E0,-2.975463867E-3,8.850097656E-4,3.967285156E-4
1.548773789E0,-4.959106445E-3,8.850097656E-4,-1.586914062E-3
1.553809190E0,-3.875732422E-3,8.850097656E-4,-4.272460938E-4
1.558844590E0,-2.960205078E-3,7.934570312E-4,1.556396484E-3
1.563879990E0,-3.936767578E-3,-9.155273438E-5,1.464843750E-3
1.568915391E0,-4.058837891E-3,9.918212891E-4,4.882812500E-4
1.573950791E0,-4.638671875E-3,1.953125000E-3,6.256103516E-4
1.578986192E0,-1.800537109E-3,1.815795898E-3,1.434326172E-3
1.584021592E0,-1.800537109E-3,8.850097656E-4,3.509521484E-4
1.589056992E0,-1.968383789E-3,8.850097656E-4,-7.324218750E-4
1.594092393E0,-2.532958984E-3,1.220703125E-3,-1.647949219E-3
1.599127793E0,-9.307861328E-4,2.822875977E-3,-1.647949219E-3
1.604163193E0,-1.998901367E-3,1.953125000E-3,-1.449584961E-3
1.609198594E0,-2.670288086E-3,2.151489258E-3,-5.798339844E-4
1.614233994E0,-2.029418945E-3,2.792358398E-3,-7.934570312E-4
1.619269395E0,-2.868652344E-3,1.953125000E-3,-1.419067383E-3
1.624304795E0,-2.868652344E-3,1.953125000E-3,-3.356933594E-4
1.629340195E0,-3.128051758E-3,1.693725586E-3,4.882812500E-4
1.634375596E0,-3.936767578E-3,1.144409180E-3,2.288818359E-4
1.639410996E0,-3.936767578E-3,1.663208008E-3,-2.899169922E-4
1.644446397E0,-3.356933594E-3,1.174926758E-3,1.983642578E-4
1.649481797E0,-1.800537109E-3,1.953125000E-3,-5.798339844E-4
1.654517197E0,-2.120971680E-3,1.632690430E-3,-2.593994141E-4
1.659552598E0,-3.204345703E-3,1.205444336E-3,4.882812500E-4
1.664587998E0,-3.601074219E-3,1.953125000E-3,4.882812500E-4
1.669623399E0,-2.517700195E-3,1.953125000E-3,4.882812500E-4
1.674658799E0,-2.182006836E-3,1.953125000E-3,4.882812500E-4
1.679694199E0,-2.868652344E-3,1.953125000E-3,1.220703125E-4
1.684729600E0,-2.487182617E-3,1.556396484E-3,-5.798339844E-4
1.689765000E0,-1.800537109E-3,8.850097656E-4,-1.678466797E-4
1.694800401E0,-1.388549805E-3,8.850097656E-4,7.629394531E-5
1.699835801E0,-2.014160156E-3,1.296997070E-3,-1.525878906E-4
1.704871201E0,-3.067016602E-3,1.510620117E-3,4.882812500E-4
1.709906602E0,-1.358032227E-3,8.850097656E-4,4.882812500E-4
1.714942002E0,-1.205444336E-3,1.342773438E-3,9.613037109E-4
1.719977402E0,-2.288818359E-3,1.464843750E-3,1.083374023E-3
1.725012803E0,-2.380371094E-3,8.850097656E-4,0.000000000E0
1.730048203E0,-1.800537109E-3,1.373291016E-3,-5.798339844E-4
1.735083604E0,-2.319335938E-3,1.953125000E-3,-6.103515625E-5
1.740119004E0,-2.868652344E-3,1.419067383E-3,1.022338867E-3
1.745154404E0,-2.334594727E-3,8.850097656E-4,1.556396484E-3
1.750189805E0,-2.365112305E-3,8.850097656E-4,1.007080078E-3
1.755225205E0,-2.319335938E-3,1.434326172E-3,4.882812500E-4
1.760260606E0,-1.800537109E-3,1.373291016E-3,1.068115234E-3
1.765296006E0,-1.800537109E-3,1.464843750E-3,1.556396484E-3
1.770331406E0,-1.800537109E-3,1.342773438E-3,1.556396484E-3
1.775366807E0,-1.800537109E-3,2.746582031E-4,9.613037109E-4
1.780402207E0,-1.190185547E-3,4.272460938E-4,1.113891602E-3
1.785437608E0,-7.324218750E-4,1.510620117E-3,1.556396484E-3
1.790473008E0,-7.324218750E-4,6.408691406E-4,2.212524414E-3
1.795508408E0,-1.403808594E-3,4.730224609E-4,1.968383789E-3
1.800543809E0,-1.144409180E-3,8.850097656E-4,2.288818359E-4
1.805579209E0,-1.419067383E-3,8.850097656E-4,1.068115234E-4
1.810614610E0,-1.800537109E-3,1.571655273E-3,1.190185547E-3
1.815650010E0,-1.800537109E-3,1.953125000E-3,1.556396484E-3
1.820685410E0,-1.083374023E-3,2.670288086E-3,1.556396484E-3
1.825720811E0,-7.324218750E-4,3.021240234E-3,8.239746094E-4
1.830756211E0,-1.480102539E-3,3.021240234E-3,1.235961914E-3
1.835791611E0,-1.052856445E-3,2.258300781E-3,8.087158203E-4
1.840827012E0,-1.510620117E-3,1.953125000E-3,4.882812500E-4
1.845862412E0,-1.022338867E-3,1.953125000E-3,-2.899169922E-4
1.850897813E0,6.103515625E-5,1.953125000E-3,2.288818359E-4
1.855933213E0,3.356933594E-4,1.953125000E-3,4.882812500E-4
1.860968613E0,1.144409180E-3,1.129150391E-3,1.312255859E-3
1.866004014E0,5.645751953E-4,1.708984375E-3,3.234863281E-3
1.871039414E0,-5.187988281E-4,1.953125000E-3,3.692626953E-3
1.876074815E0,-1.602172852E-3,2.807617188E-3,2.838134766E-3
1.881110215E0,-9.307861328E-4,3.021240234E-3,1.754760742E-3
1.886145615E0,-7.324218750E-4,3.021240234E-3,1.556396484E-3
1.891181016E0,1.525878906E-4,3.906250000E-3,2.456665039E-3
1.896216416E0,3.356933594E-4,3.173828125E-3,2.624511719E-3
1.901251817E0,1.251220703E-3,2.090454102E-3,3.555297852E-3
1.906287217E0,4.730224609E-4,2.868652344E-3,1.846313477E-3
1.911322617E0,1.266479492E-3,2.075195312E-3,6.256103516E-4
1.916358018E0,1.403808594E-3,2.899169922E-3,1.449584961E-3
1.921393418E0,1.403808594E-3,2.044677734E-3,2.532958984E-3
1.926428818E0,1.403808594E-3,1.953125000E-3,3.601074219E-3
1.931464219E0,1.403808594E-3,2.944946289E-3,2.700805664E-3
1.936499619E0,3.814697266E-4,4.028320312E-3,1.617431641E-3
1.941535020E0,1.342773438E-3,4.089355469E-3,2.578735352E-3
1.946570420E0,3.662109375E-4,3.051757812E-3,2.624511719E-3
1.951605820E0,1.373291016E-3,1.968383789E-3,2.624511719E-3
1.956641221E0,1.403808594E-3,1.953125000E-3,3.692626953E-3
1.961676621E0,2.471923828E-3,1.953125000E-3,2.624511719E-3
1.966712022E0,1.403808594E-3,3.021240234E-3,2.624511719E-3
1.971747422E0,2.441406250E-3,2.990722656E-3,2.624511719E-3
1.976782822E0,1.434326172E-3,1.907348633E-3,2.624511719E-3
1.981818223E0,2.410888672E-3,9.765625000E-4,2.685546875E-3
1.986853623E0,1.403808594E-3,2.960205078E-3,3.646850586E-3
1.991889024E0,1.480102539E-3,1.953125000E-3,2.624511719E-3
1.996924424E0,2.548217773E-3,2.120971680E-3,2.456665039E-3
2.001959824E0,3.341674805E-3,3.982543945E-3,6.866455078E-4
2.006995225E0,1.403808594E-3,2.792358398E-3,2.746582031E-3
2.012030625E0,1.403808594E-3,1.007080078E-3,3.448486328E-3
2.017066026E0,1.541137695E-3,1.800537109E-3,1.419067383E-3
2.022101426E0,2.471923828E-3,1.022338867E-3,7.934570312E-4
2.027136826E0,2.471923828E-3,1.953125000E-3,2.624511719E-3
2.032172227E0,2.471923828E-3,1.770019531E-3,2.456665039E-3
2.037207627E0,2.273559570E-3,1.068115234E-3,1.373291016E-3
2.042243027E0,1.190185547E-3,1.953125000E-3,7.019042969E-4
2.047278428E0,3.356933594E-4,1.724243164E-3,1.785278320E-3
2.052313828E0,5.493164062E-4,1.327514648E-3,2.410888672E-3
2.057349229E0,1.403808594E-3,3.021240234E-3,1.800537109E-3
2.062384629E0,1.647949219E-3,2.761840820E-3,2.380371094E-3
2.067420029E0,2.471923828E-3,1.953125000E-3,1.556396484E-3
2.072455430E0,2.471923828E-3,1.953125000E-3,1.556396484E-3
2.077490830E0,2.182006836E-3,1.953125000E-3,1.556396484E-3
2.082526231E0,1.403808594E-3,1.953125000E-3,1.266479492E-3
2.087561631E0,1.708984375E-3,1.953125000E-3,4.882812500E-4
2.092597031E0,2.471923828E-3,1.617431641E-3,-1.525878906E-4
2.097632432E0,2.471923828E-3,8.850097656E-4,-3.051757812E-4
2.102667832E0,2.120971680E-3,8.850097656E-4,2.624511719E-3
2.107703233E0,1.037597656E-3,5.187988281E-4,1.907348633E-3
2.112738633E0,-4.577636719E-5,1.831054688E-4,8.697509766E-4
2.117774033E0,3.051757812E-5,4.882812500E-4,2.334594727E-3
2.122809434E0,1.800537109E-3,-1.831054688E-4,3.295898438E-3
2.127844834E0,2.868652344E-3,-1.831054688E-4,2.227783203E-3
2.132880235E0,2.700805664E-3,-1.831054688E-4,1.983642578E-3
2.137915635E0,1.403808594E-3,-6.256103516E-4,2.197265625E-3
2.142951035E0,1.846313477E-3,-1.251220703E-3,1.556396484E-3
2.147986436E0,1.998901367E-3,-7.934570312E-4,1.556396484E-3
2.153021836E0,1.861572266E-3,-1.831054688E-4,1.556396484E-3
2.158057236E0,1.983642578E-3,-1.831054688E-4,1.556396484E-3
2.163092637E0,1.403808594E-3,-1.831054688E-4,1.556396484E-3
2.168128037E0,8.850097656E-4,-1.831054688E-4,1.052856445E-3
2.173163438E0,8.392333984E-4,-7.019042969E-4,4.882812500E-4
2.178198838E0,8.697509766E-4,-1.251220703E-3,1.556396484E-3
2.183234238E0,1.419067383E-3,-1.251220703E-3,2.624511719E-3
2.188269639E0,1.342773438E-3,-7.019042969E-4,2.624511719E-3
2.193305039E0,9.002685547E-4,-1.831054688E-4,2.624511719E-3
2.198340440E0,1.403808594E-3,-7.781982422E-4,2.044677734E-3
2.203375840E0,8.087158203E-4,-1.251220703E-3,1.556396484E-3
2.208411240E0,9.307861328E-4,-6.561279297E-4,1.556396484E-3
2.213446641E0,1.403808594E-3,-1.831054688E-4,9.460449219E-4
2.218482041E0,1.403808594E-3,4.425048828E-4,1.129150391E-3
2.223517442E0,1.403808594E-3,8.850097656E-4,9.155273438E-4
2.228552842E0,1.403808594E-3,2.288818359E-4,4.882812500E-4
2.233588242E0,2.059936523E-3,-8.544921875E-4,4.882812500E-4
2.238623643E0,1.113891602E-3,-5.798339844E-4,4.882812500E-4
2.243659043E0,1.022338867E-3,5.035400391E-4,4.882812500E-4
2.248694443E0,7.019042969E-4,1.571655273E-3,-1.983642578E-4
2.253729844E0,3.356933594E-4,5.187988281E-4,1.373291016E-4
2.258765244E0,1.052856445E-3,-9.155273438E-4,-2.288818359E-4
2.263800645E0,6.561279297E-4,-5.187988281E-4,-1.312255859E-3
2.268836045E0,-4.272460938E-4,5.645751953E-4,-8.850097656E-4
2.273871445E0,3.051757812E-5,1.068115234E-4,-5.798339844E-4
2.278906846E0,1.098632812E-3,-9.613037109E-4,-5.798339844E-4
2.283942246E0,-9.613037109E-4,3.204345703E-4,1.007080078E-3
2.288977647E0,-1.007080078E-3,-7.171630859E-4,7.629394531E-4
2.294013047E0,-7.324218750E-4,-1.251220703E-3,1.312255859E-3
2.299048447E0,9.155273438E-5,-4.272460938E-4,7.324218750E-4
2.304083848E0,3.356933594E-4,-1.831054688E-4,4.882812500E-4
2.309119248E0,-5.187988281E-4,-1.831054688E-4,4.882812500E-4
2.314154649E0,-1.602172852E-3,-1.831054688E-4,-3.662109375E-4
2.319190049E0,-1.800537109E-3,6.866455078E-4,3.051757812E-4
2.324225449E0,-1.800537109E-3,-1.525878906E-5,1.388549805E-3
2.329260850E0,-9.002685547E-4,-1.831054688E-4,6.561279297E-4
2.334296250E0,1.831054688E-4,-1.831054688E-4,4.882812500E-4
2.339331651E0,3.356933594E-4,-1.113891602E-3,-4.272460938E-4
2.344367051E0,3.356933594E-4,-1.251220703E-3,3.662109375E-4
2.349402451E0,-6.256103516E-4,-3.051757812E-4,4.882812500E-4
2.354437852E0,-1.708984375E-3,-1.159667969E-3,4.882812500E-4
2.359473252E0,1.373291016E-4,-1.251220703E-3,4.882812500E-4
2.364508652E0,1.312255859E-3,-1.251220703E-3,-4.882812500E-4
2.369544053E0,3.967285156E-4,-1.251220703E-3,-1.571655273E-3
2.374579453E0,3.356933594E-4,-2.441406250E-4,-1.647949219E-3
2.379614854E0,-1.724243164E-3,-1.831054688E-4,4.119873047E-4
2.384650254E0,-7.629394531E-4,-1.831054688E-4,-5.493164062E-4
2.389685654E0,-1.785278320E-3,-1.831054688E-4,4.730224609E-4
2.394721055E0,-1.800537109E-3,-1.831054688E-4,-5.645751953E-4
2.399756455E0,-1.800537109E-3,-1.983642578E-4,-5.798339844E-4
2.404791856E0,-7.324218750E-4,-1.281738281E-3,-5.798339844E-4
2.409827256E0,-7.019042969E-4,-2.319335938E-3,-5.798339844E-4
2.414862656E0,2.899169922E-4,-2.288818359E-3,-5.798339844E-4
2.419898057E0,-7.934570312E-4,-1.205444336E-3,-5.187988281E-4
2.424933457E0,-1.800537109E-3,-2.593994141E-4,4.272460938E-4
2.429968858E0,-1.724243164E-3,-1.342773438E-3,-4.882812500E-4
2.435004258E0,-8.392333984E-4,-2.319335938E-3,3.967285156E-4
2.440039658E0,-1.708984375E-3,-2.426147461E-3,-6.713867188E-4
2.445075059E0,-7.324218750E-4,-3.280639648E-3,-1.403808594E-3
2.450110459E0,-7.324218750E-4,-2.319335938E-3,3.662109375E-4
2.455145860E0,-8.850097656E-4,-2.319335938E-3,-4.272460938E-4
2.460181260E0,-1.968383789E-3,-2.319335938E-3,4.882812500E-4
2.465216660E0,-2.868652344E-3,-2.319335938E-3,3.204345703E-4
2.470252061E0,-3.067016602E-3,-2.136230469E-3,-5.798339844E-4
2.475287461E0,-3.753662109E-3,-1.251220703E-3,-5.798339844E-4
2.480322861E0,-2.868652344E-3,-1.251220703E-3,-3.662109375E-4
2.485358262E0,-2.655029297E-3,-1.251220703E-3,4.882812500E-4
2.490393662E0,-1.571655273E-3,-1.495361328E-3,2.593994141E-4
2.495429063E0,-7.324218750E-4,-2.090454102E-3,-5.798339844E-4
2.500464463E0,-7.324218750E-4,-1.251220703E-3,-3.204345703E-4
2.505499863E0,-1.007080078E-3,-1.251220703E-3,2.288818359E-4
2.510535264E0,-1.525878906E-3,-1.541137695E-3,-8.544921875E-4
2.515570664E0,-4.577636719E-4,-1.754760742E-3,-1.358032227E-3
2.520606065E0,6.256103516E-4,-7.934570312E-4,-2.746582031E-4
2.525641465E0,7.629394531E-4,-2.014160156E-3,4.882812500E-4
2.530676865E0,-1.388549805E-3,-1.586914062E-3,1.678466797E-4
2.535712266E0,-2.868652344E-3,-2.319335938E-3,9.155273438E-5
2.540747666E0,-2.517700195E-3,-1.968383789E-3,1.922607422E-3
2.545783067E0,-1.800537109E-3,-1.251220703E-3,2.258300781E-3
2.550818467E0,-2.563476562E-3,-1.251220703E-3,8.087158203E-4
2.555853867E0,-4.333496094E-3,-8.697509766E-4,-1.831054688E-4
2.560889268E0,-4.211425781E-3,-1.831054688E-4,4.882812500E-4
2.565924668E0,-2.868652344E-3,-1.022338867E-3,4.882812500E-4
2.570960068E0,-2.868652344E-3,-1.907348633E-3,9.155273438E-4
2.575995469E0,-2.868652344E-3,-8.239746094E-4,1.556396484E-3
2.581030869E0,-2.426147461E-3,-6.408691406E-4,1.556396484E-3
2.586066270E0,-1.800537109E-3,-1.724243164E-3,1.098632812E-3
2.591101670E0,-1.800537109E-3,-2.319335938E-3,9.765625000E-4
2.596137070E0,-2.288818359E-3,-1.358032227E-3,1.556396484E-3
2.601172471E0,-2.380371094E-3,3.051757812E-4,2.059936523E-3
2.606207871E0,-1.800537109E-3,-1.373291016E-4,2.120971680E-3
2.611243272E0,-1.281738281E-3,-1.785278320E-3,2.090454102E-3
2.616278672E0,-7.324218750E-4,-2.319335938E-3,2.090454102E-3
2.621314072E0,-1.846313477E-3,-1.220703125E-3,1.007080078E-3
2.626349473E0,-2.319335938E-3,-1.831054688E-4,4.882812500E-4
2.631384873E0,-1.235961914E-3,-7.629394531E-4,4.882812500E-4
2.636420274E0,4.272460938E-4,-1.846313477E-3,4.882812500E-4
2.641455674E0,1.983642578E-4,-2.319335938E-3,1.693725586E-3
2.646491074E0,-7.324218750E-4,-1.724243164E-3,2.624511719E-3
2.651526475E0,5.035400391E-4,-1.251220703E-3,3.875732422E-3
2.656561875E0,7.629394531E-4,-1.251220703E-3,3.494262695E-3
2.661597276E0,-3.204345703E-4,-1.251220703E-3,2.624511719E-3
2.666632676E0,-7.324218750E-4,-5.950927734E-4,1.312255859E-3
2.671668076E0,-7.324218750E-4,-1.831054688E-4,1.159667969E-3
2.676703477E0,-6.103515625E-5,-8.697509766E-4,2.243041992E-3
2.681738877E0,-1.068115234E-3,-1.251220703E-3,1.937866211E-3
2.686774277E0,-1.098632812E-3,-1.251220703E-3,2.273559570E-3
2.691809678E0,-1.464843750E-3,-1.983642578E-3,3.356933594E-3
2.696845078E0,-2.548217773E-3,-2.319335938E-3,2.960205078E-3
2.701880479E0,-2.868652344E-3,-2.319335938E-3,2.624511719E-3
2.706915879E0,-1.358032227E-3,-1.571655273E-3,2.624511719E-3
2.711951279E0,-7.324218750E-4,-1.251220703E-3,3.402709961E-3
2.716986680E0,-1.525878906E-3,-1.251220703E-3,3.692626953E-3
2.722022080E0,-2.593994141E-3,-4.730224609E-4,3.692626953E-3
2.727057481E0,-1.266479492E-3,-1.831054688E-4,5.310058594E-3
2.732092881E0,-7.324218750E-4,-1.831054688E-4,5.020141602E-3
2.737128281E0,-7.324218750E-4,-1.861572266E-3,4.760742188E-3
2.742163682E0,1.068115234E-4,-1.480102539E-3,4.760742188E-3
2.747199082E0,-5.187988281E-4,-2.105712891E-3,3.921508789E-3
2.752234483E0,-7.324218750E-4,-2.319335938E-3,3.692626953E-3
2.757269883E0,-1.617431641E-3,-2.319335938E-3,5.462646484E-3
2.762305283E0,-1.800537109E-3,-5.493164062E-4,4.943847656E-3
2.767340684E0,-1.800537109E-3,-1.831054688E-4,3.860473633E-3
2.772376084E0,-8.850097656E-4,-1.113891602E-3,3.692626953E-3
2.777411485E0,-7.324218750E-4,-1.251220703E-3,4.623413086E-3
2.782446885E0,1.983642578E-4,-1.251220703E-3,5.706787109E-3
2.787482285E0,3.356933594E-4,-3.158569336E-3,5.828857422E-3
2.792517686E0,1.296997070E-3,-3.387451172E-3,5.828857422E-3
2.797553086E0,-5.493164062E-4,-4.364013672E-3,4.867553711E-3
2.802588486E0,-7.324218750E-4,-3.479003906E-3,4.760742188E-3
2.807623887E0,-7.324218750E-4,-1.388549805E-3,4.760742188E-3
2.812659287E0,2.746582031E-4,-2.441406250E-4,6.790161133E-3
2.817694688E0,-1.708984375E-3,-1.205444336E-3,4.867553711E-3
2.822730088E0,2.593994141E-4,-2.288818359E-3,4.760742188E-3
2.827765488E0,1.373291016E-3,-2.319335938E-3,5.813598633E-3
2.832800889E0,1.403808594E-3,-1.266479492E-3,5.828857422E-3
2.837836289E0,-7.324218750E-4,-2.319335938E-3,6.896972656E-3
2.842871690E0,-7.171630859E-4,-2.365112305E-3,6.896972656E-3
2.847907090E0,3.356933594E-4,-4.455566406E-3,6.896972656E-3
2.852942490E0,3.356933594E-4,-4.379272461E-3,6.942749023E-3
2.857977891E0,2.746582031E-4,-2.273559570E-3,7.873535156E-3
2.863013291E0,-7.324218750E-4,-1.388549805E-3,5.905151367E-3
2.868048692E0,-8.239746094E-4,-3.387451172E-3,6.820678711E-3
2.873084092E0,-1.800537109E-3,-3.295898438E-3,6.027221680E-3
2.878119492E0,-1.708984375E-3,-2.227783203E-3,7.965087891E-3
2.883154893E0,-7.324218750E-4,-1.251220703E-3,8.087158203E-3
2.888190293E0,-7.324218750E-4,-1.129150391E-3,8.789062500E-3
2.893225693E0,-7.324218750E-4,-4.730224609E-4,6.896972656E-3
2.898261094E0,-7.324218750E-4,-2.471923828E-3,6.759643555E-3
2.903296494E0,-7.324218750E-4,-3.387451172E-3,5.996704102E-3
2.908331895E0,-7.324218750E-4,-3.219604492E-3,7.263183594E-3
2.913367295E0,-5.493164062E-4,-2.136230469E-3,9.231567383E-3
2.918402695E0,1.220703125E-4,-1.464843750E-3,1.010131836E-2
2.923438096E0,-7.324218750E-4,-2.761840820E-3,9.674072266E-3
2.928473496E0,-7.324218750E-4,-4.241943359E-3,7.965087891E-3
2.933508897E0,-9.765625000E-4,-2.929687500E-3,7.965087891E-3
2.938544297E0,-1.800537109E-3,-1.007080078E-3,7.965087891E-3
2.943579697E0,-1.800537109E-3,-4.577636719E-4,7.965087891E-3
2.948615098E0,-1.800537109E-3,-1.251220703E-3,8.255004883E-3
2.953650498E0,-1.525878906E-3,-1.831054688E-3,9.323120117E-3
2.958685899E0,-7.324218750E-4,-3.387451172E-3,9.811401367E-3
2.963721299E0,-1.052856445E-3,-3.387451172E-3,9.353637695E-3
2.968756699E0,-1.800537109E-3,-3.067016602E-3,9.460449219E-3
2.973792100E0,-2.471923828E-3,-1.998901367E-3,8.300781250E-3
2.978827500E0,-3.936767578E-3,-1.602172852E-3,9.033203125E-3
2.983862901E0,-3.585815430E-3,-2.319335938E-3,9.033203125E-3
2.988898301E0,-2.502441406E-3,-2.319335938E-3,9.033203125E-3
2.993933701E0,-1.800537109E-3,-1.937866211E-3,9.811401367E-3
2.998969102E0,-1.403808594E-3,-2.059936523E-3,1.116943359E-2
3.004004502E0,-1.556396484E-3,-3.799438477E-3,1.077270508E-2
3.009039902E0,-2.456665039E-3,-4.043579102E-3,1.052856445E-2
3.014075303E0,-1.373291016E-3,-2.090454102E-3,1.203918457E-2
3.019110703E0,-7.324218750E-4,-6.408691406E-4,1.286315918E-2
3.024146104E0,-7.324218750E-4,-2.182006836E-3,1.177978516E-2
3.029181504E0,-1.205444336E-3,-4.333496094E-3,1.164245605E-2
3.034216904E0,-2.288818359E-3,-4.074096680E-3,1.223754883E-2
3.039252305E0,-2.380371094E-3,-1.831054688E-3,1.274108887E-2
3.044287705E0,-2.319335938E-3,-2.273559570E-3,1.280212402E-2
3.049323106E0,-2.868652344E-3,-3.906250000E-3,1.173400879E-2
3.054358506E0,-3.402709961E-3,-4.455566406E-3,1.170349121E-2
3.059393906E0,-4.486083984E-3,-3.921508789E-3,1.223754883E-2
3.064429307E0,-4.455566406E-3,-2.838134766E-3,1.223754883E-2
3.069464707E0,-3.936767578E-3,-1.754760742E-3,1.281738281E-2
3.074500108E0,-3.936767578E-3,-1.831054688E-3,1.388549805E-2
3.079535508E0,-4.531860352E-3,-1.739501953E-3,1.379394531E-2
3.084570908E0,-5.004882812E-3,-1.251220703E-3,1.391601562E-2
3.089606309E0,-5.004882812E-3,-1.876831055E-3,1.376342773E-2
3.094641709E0,-5.004882812E-3,-2.319335938E-3,1.394653320E-2
3.099677110E0,-5.004882812E-3,-2.319335938E-3,1.502990723E-2
3.104712510E0,-5.661010742E-3,-3.631591797E-3,1.544189453E-2
3.109747910E0,-6.744384766E-3,-3.799438477E-3,1.411437988E-2
3.114783311E0,-6.469726562E-3,-7.019042969E-4,1.330566406E-2
3.119818711E0,-6.072998047E-3,1.831054688E-4,1.400756836E-2
3.124854111E0,-6.072998047E-3,-1.586914062E-3,1.437377930E-2
3.129889512E0,-6.072998047E-3,-3.753662109E-3,1.437377930E-2
3.134924912E0,-5.355834961E-3,-5.187988281E-3,1.437377930E-2
3.139960313E0,-5.737304688E-3,-3.341674805E-3,1.437377930E-2
3.144995713E0,-6.072998047E-3,-1.571655273E-3,1.588439941E-2
3.150031113E0,-5.325317383E-3,-2.777099609E-3,1.576232910E-2
3.155066514E0,-5.783081055E-3,-4.943847656E-3,1.544189453E-2
3.160101914E0,-5.294799805E-3,-4.745483398E-3,1.544189453E-2
3.165137315E0,-5.004882812E-3,-5.264282227E-3,1.544189453E-2
3.170172715E0,-6.637573242E-3,-3.097534180E-3,1.463317871E-2
3.175208115E0,-8.804321289E-3,-6.713867188E-4,1.437377930E-2
3.180243516E0,-7.614135742E-3,-1.022338867E-3,1.605224609E-2
3.185278916E0,-7.141113281E-3,-2.960205078E-3,1.821899414E-2
3.190314317E0,-8.880615234E-3,-4.257202148E-3,1.864624023E-2
3.195349717E0,-9.277343750E-3,-5.340576172E-3,1.864624023E-2
3.200385117E0,-7.522583008E-3,-2.883911133E-3,1.864624023E-2
3.205420518E0,-8.041381836E-3,-3.219604492E-3,1.776123047E-2
3.210455918E0,-7.308959961E-3,-3.387451172E-3,1.667785645E-2
3.215491318E0,-8.071899414E-3,-2.471923828E-3,1.744079590E-2
3.220526719E0,-8.209228516E-3,-4.196166992E-3,1.852416992E-2
3.225562119E0,-9.155273438E-3,-6.347656250E-3,1.771545410E-2
3.230597520E0,-9.277343750E-3,-5.645751953E-3,1.853942871E-2
3.235632920E0,-1.025390625E-2,-2.624511719E-3,1.962280273E-2
3.240668320E0,-1.034545898E-2,1.602172852E-3,2.070617676E-2
3.245703721E0,-1.135253906E-2,9.460449219E-4,2.078247070E-2
3.250739121E0,-1.141357422E-2,-5.172729492E-3,1.876831055E-2
3.255774522E0,-9.384155273E-3,-7.568359375E-3,1.864624023E-2
3.260809922E0,-9.277343750E-3,-5.615234375E-3,2.070617676E-2
3.265845322E0,-1.136779785E-2,-2.410888672E-3,2.078247070E-2
3.270880723E0,-1.036071777E-2,-2.136230469E-4,2.078247070E-2
3.275916123E0,-1.034545898E-2,-1.251220703E-3,2.078247070E-2
3.280951524E0,-1.144409180E-2,-4.455566406E-3,2.079772949E-2
3.285986924E0,-1.353454590E-2,-4.409790039E-3,2.185058594E-2
3.291022324E0,-1.252746582E-2,-2.319335938E-3,2.185058594E-2
3.296057725E0,-1.350402832E-2,-2.380371094E-3,2.191162109E-2
3.301093125E0,-1.254272461E-2,-3.219604492E-3,2.297973633E-2
3.306128526E0,-1.362609863E-2,-4.577636719E-5,2.384948730E-2
3.311163926E0,-1.454162598E-2,1.693725586E-3,2.194213867E-2
3.316199326E0,-1.336669922E-2,-1.556396484E-3,2.302551270E-2
3.321234727E0,-1.164245605E-2,-4.348754883E-3,2.398681641E-2
3.326270127E0,-1.368713379E-2,-3.265380859E-3,2.398681641E-2
3.331305527E0,-1.489257812E-2,-2.197265625E-3,2.398681641E-2
3.336340928E0,-1.675415039E-2,-1.403808594E-3,2.398681641E-2
3.341376328E0,-1.692199707E-2,-2.487182617E-3,2.415466309E-2
3.346411729E0,-1.748657227E-2,-3.219604492E-3,2.523803711E-2
3.351447129E0,-1.588439941E-2,-2.136230469E-3,2.632141113E-2
3.356482529E0,-1.675415039E-2,-1.251220703E-3,2.700805664E-2
3.361517930E0,-1.655578613E-2,-1.464843750E-3,2.633666992E-2
3.366553330E0,-1.614379883E-2,-2.548217773E-3,2.674865723E-2
3.371588731E0,-1.782226562E-2,-3.387451172E-3,2.505493164E-2
3.376624131E0,-1.759338379E-2,-3.158569336E-3,2.529907227E-2
3.381659531E0,-1.701354980E-2,-2.075195312E-3,2.638244629E-2
3.386694932E0,-1.809692383E-2,-7.171630859E-4,2.719116211E-2
3.391730332E0,-1.861572266E-2,8.850097656E-4,2.804565430E-2
3.396765733E0,-1.812744141E-2,5.798339844E-4,2.981567383E-2
3.401801133E0,-1.858520508E-2,-1.113891602E-3,2.764892578E-2
3.406836533E0,-1.750183105E-2,-3.387451172E-3,2.677917480E-2
3.411871934E0,-1.708984375E-2,-2.731323242E-3,2.893066406E-2
3.416907334E0,-1.884460449E-2,-5.798339844E-4,3.039550781E-2
3.421942735E0,-2.067565918E-2,5.187988281E-4,3.039550781E-2
3.426978135E0,-1.995849609E-2,-1.831054688E-4,3.114318848E-2
3.432013535E0,-1.995849609E-2,-1.831054688E-4,3.253173828E-2
3.437048936E0,-1.957702637E-2,-5.798339844E-4,3.253173828E-2
3.442084336E0,-1.889038086E-2,-2.456665039E-3,3.253173828E-2
3.447119736E0,-1.971435547E-2,-3.234863281E-3,3.253173828E-2
3.452155137E0,-2.146911621E-2,-3.967285156E-4,3.340148926E-2
3.457190537E0,-2.209472656E-2,8.850097656E-4,3.466796875E-2
3.462225938E0,-2.165222168E-2,-3.051757812E-5,3.512573242E-2
3.467261338E0,-2.102661133E-2,-7.934570312E-4,3.527832031E-2
3.472296738E0,-2.198791504E-2,-1.831054688E-4,3.466796875E-2
3.477332139E0,-2.316284180E-2,-1.831054688E-4,3.517150879E-2
3.482367539E0,-2.316284180E-2,-7.019042969E-4,3.625488281E-2
3.487402940E0,-2.368164062E-2,-1.251220703E-3,3.630065918E-2
3.492438340E0,-2.423095703E-2,-7.324218750E-4,3.573608398E-2
3.497473740E0,-2.478027344E-2,-7.324218750E-4,3.520202637E-2
3.502509141E0,-2.529907227E-2,-2.929687500E-3,3.634643555E-2
3.507544541E0,-2.587890625E-2,-3.326416016E-3,3.787231445E-2
3.512579942E0,-2.578735352E-2,-1.159667969E-3,3.846740723E-2
3.517615342E0,-2.529907227E-2,1.007080078E-3,3.894042969E-2
3.522650742E0,-2.470397949E-2,1.342773438E-3,3.894042969E-2
3.527686143E0,-2.423095703E-2,2.593994141E-4,3.956604004E-2
3.532721543E0,-2.487182617E-2,-8.239746094E-4,4.000854492E-2
3.537756943E0,-2.595520020E-2,-1.907348633E-3,4.066467285E-2
3.542792344E0,-2.636718750E-2,-1.678466797E-3,4.107666016E-2
3.547827744E0,-2.703857422E-2,7.629394531E-5,4.174804688E-2
3.552863145E0,-2.743530273E-2,1.983642578E-4,4.214477539E-2
3.557898545E0,-2.743530273E-2,-1.571655273E-3,4.214477539E-2
3.562933945E0,-2.674865723E-2,-3.021240234E-3,4.284667969E-2
3.567969346E0,-2.708435059E-2,-5.340576172E-4,4.393005371E-2
3.573004746E0,-2.890014648E-2,8.850097656E-4,4.356384277E-2
3.578040147E0,-2.957153320E-2,1.373291016E-4,4.396057129E-2
3.583075547E0,-2.882385254E-2,-9.460449219E-4,4.428100586E-2
3.588110947E0,-2.928161621E-2,-2.792358398E-3,4.505920410E-2
3.593146348E0,-3.034973145E-2,-1.068115234E-3,4.612731934E-2
3.598181748E0,-3.063964844E-2,2.166748047E-3,4.641723633E-2
3.603217149E0,-3.063964844E-2,2.212524414E-3,4.722595215E-2
3.608252549E0,-3.063964844E-2,-2.120971680E-3,4.748535156E-2
3.613287949E0,-3.063964844E-2,-4.226684570E-3,4.748535156E-2
3.618323350E0,-3.231811523E-2,-1.113891602E-3,4.666137695E-2
3.623358750E0,-3.277587891E-2,2.365112305E-3,4.727172852E-2
3.628394151E0,-3.277587891E-2,3.021240234E-3,4.920959473E-2
3.633429551E0,-3.277587891E-2,3.967285156E-4,4.875183105E-2
3.638464951E0,-3.277587891E-2,-1.068115234E-3,4.768371582E-2
3.643500352E0,-3.277587891E-2,5.340576172E-4,4.838562012E-2
3.648535752E0,-3.369140625E-2,3.616333008E-3,4.946899414E-2
3.653571152E0,-3.570556641E-2,4.089355469E-3,4.962158203E-2
3.658606553E0,-3.504943848E-2,2.212524414E-3,5.056762695E-2
3.663641953E0,-3.491210938E-2,9.918212891E-4,4.974365234E-2
3.668677354E0,-3.491210938E-2,1.846313477E-3,4.962158203E-2
3.673712754E0,-3.588867188E-2,3.890991211E-3,5.059814453E-2
3.678748154E0,-3.598022461E-2,5.065917969E-3,5.168151855E-2
3.683783555E0,-3.598022461E-2,2.166748047E-3,5.175781250E-2
3.688818955E0,-3.700256348E-2,9.307861328E-4,5.175781250E-2
3.693854356E0,-3.807067871E-2,8.850097656E-4,5.175781250E-2
3.698889756E0,-3.811645508E-2,3.982543945E-3,5.175781250E-2
3.703925156E0,-3.811645508E-2,4.089355469E-3,5.175781250E-2
3.708960557E0,-3.706359863E-2,9.155273438E-4,5.070495605E-2
3.713995957E0,-3.811645508E-2,-1.251220703E-3,5.068969727E-2
3.719031358E0,-3.918457031E-2,1.953125000E-3,5.070495605E-2
3.724066758E0,-3.918457031E-2,3.067016602E-3,5.175781250E-2
3.729102158E0,-3.918457031E-2,5.065917969E-3,5.175781250E-2
3.734137559E0,-3.918457031E-2,2.960205078E-3,5.175781250E-2
3.739172959E0,-3.932189941E-2,2.014160156E-3,5.175781250E-2
3.744208360E0,-4.124450684E-2,2.929687500E-3,5.175781250E-2
3.749243760E0,-4.025268555E-2,2.090454102E-3,5.191040039E-2
3.754279160E0,-4.035949707E-2,3.890991211E-3,5.389404297E-2
3.759314561E0,-4.154968262E-2,2.059936523E-3,5.389404297E-2
3.764349961E0,-4.333496094E-2,2.883911133E-3,5.403137207E-2
3.769385361E0,-4.225158691E-2,2.090454102E-3,5.455017090E-2
3.774420762E0,-4.162597656E-2,2.868652344E-3,5.206298828E-2
3.779456162E0,-4.362487793E-2,2.105712891E-3,5.389404297E-2
3.784491563E0,-4.470825195E-2,3.372192383E-3,5.389404297E-2
3.789526963E0,-4.541015625E-2,5.157470703E-3,5.409240723E-2
3.794562363E0,-4.452514648E-2,4.562377930E-3,5.496215820E-2
3.799597764E0,-4.452514648E-2,1.525878906E-3,5.496215820E-2
3.804633164E0,-4.475402832E-2,3.051757812E-5,5.519104004E-2
3.809668565E0,-4.559326172E-2,1.586914062E-3,5.627441406E-2
3.814703965E0,-4.585266113E-2,4.333496094E-3,5.709838867E-2
3.819739365E0,-4.640197754E-2,4.882812500E-3,5.683898926E-2
3.824774766E0,-4.533386230E-2,3.540039062E-3,5.657958984E-2
3.829810166E0,-4.452514648E-2,1.953125000E-3,5.789184570E-2
3.834845567E0,-4.512023926E-2,1.953125000E-3,5.709838867E-2
3.839880967E0,-4.698181152E-2,2.563476562E-3,5.648803711E-2
3.844916367E0,-4.806518555E-2,4.730224609E-3,5.496215820E-2
3.849951768E0,-4.847717285E-2,5.554199219E-3,5.496215820E-2
3.854987168E0,-4.772949219E-2,3.738403320E-3,5.496215820E-2
3.860022568E0,-4.809570312E-2,3.372192383E-3,5.532836914E-2
3.865057969E0,-4.917907715E-2,3.707885742E-3,5.641174316E-2
3.870093369E0,-5.026245117E-2,3.021240234E-3,5.709838867E-2
3.875128770E0,-5.053710938E-2,2.609252930E-3,5.709838867E-2
3.880164170E0,-4.986572266E-2,1.541137695E-3,5.709838867E-2
3.885199570E0,-4.986572266E-2,2.136230469E-3,5.752563477E-2
3.890234971E0,-5.117797852E-2,4.516601562E-3,5.773925781E-2
3.895270371E0,-5.307006836E-2,5.157470703E-3,5.665588379E-2
3.900305772E0,-5.307006836E-2,5.615234375E-3,5.603027344E-2
3.905341172E0,-5.354309082E-2,5.279541016E-3,5.650329590E-2
3.910376572E0,-5.462646484E-2,3.112792969E-3,5.758666992E-2
3.915411973E0,-5.471801758E-2,2.441406250E-3,5.867004395E-2
3.920447373E0,-5.413818359E-2,4.531860352E-3,5.873107910E-2
3.925482774E0,-5.363464355E-2,6.729125977E-3,5.816650391E-2
3.930518174E0,-5.307006836E-2,5.691528320E-3,5.764770508E-2
3.935553574E0,-5.253601074E-2,4.089355469E-3,5.656433105E-2
3.940588975E0,-5.256652832E-2,4.089355469E-3,5.659484863E-2
3.945624375E0,-5.421447754E-2,4.089355469E-3,5.653381348E-2
3.950659776E0,-5.520629883E-2,5.813598633E-3,5.776977539E-2
3.955695176E0,-5.697631836E-2,7.873535156E-3,5.865478516E-2
3.960730576E0,-5.781555176E-2,5.935668945E-3,5.816650391E-2
3.965765977E0,-5.734252930E-2,2.853393555E-3,5.755615234E-2
3.970801377E0,-5.798339844E-2,2.578735352E-3,5.773925781E-2
3.975836777E0,-5.841064453E-2,4.302978516E-3,5.816650391E-2
3.980872178E0,-5.776977539E-2,5.157470703E-3,5.752563477E-2
3.985907578E0,-5.668640137E-2,4.486083984E-3,5.709838867E-2
3.990942979E0,-5.627441406E-2,4.089355469E-3,5.709838867E-2
3.995978379E0,-5.697631836E-2,5.477905273E-3,5.709838867E-2
4.001013779E0,-5.734252930E-2,8.331298828E-3,5.709838867E-2
4.006049180E0,-5.734252930E-2,9.429931641E-3,5.781555176E-2
4.011084580E0,-5.807495117E-2,5.783081055E-3,5.889892578E-2
4.016119981E0,-5.915832520E-2,1.861572266E-3,5.850219727E-2
4.021155381E0,-5.873107910E-2,4.638671875E-3,5.667114258E-2
4.026190781E0,-5.841064453E-2,8.514404297E-3,5.680847168E-2
4.031226182E0,-5.764770508E-2,8.651733398E-3,5.633544922E-2
4.036261582E0,-5.892944336E-2,5.996704102E-3,5.525207520E-2
4.041296983E0,-6.188964844E-2,3.555297852E-3,5.577087402E-2
4.046332383E0,-6.350708008E-2,2.197265625E-3,5.603027344E-2
4.051367783E0,-6.375122070E-2,1.129150391E-3,5.522155762E-2
4.056403184E0,-6.375122070E-2,1.708984375E-3,5.664062500E-2
4.061438584E0,-6.546020508E-2,1.953125000E-3,5.625915527E-2
4.066473985E0,-6.675720215E-2,1.953125000E-3,5.603027344E-2
4.071509385E0,-6.784057617E-2,1.953125000E-3,5.516052246E-2
4.076544785E0,-6.715393066E-2,-7.019042969E-4,5.584716797E-2
4.081580186E0,-6.785583496E-2,-1.251220703E-3,5.693054199E-2
4.086615586E0,-6.802368164E-2,-1.251220703E-3,5.619812012E-2
4.091650986E0,-6.802368164E-2,5.950927734E-4,5.603027344E-2
4.096686387E0,-6.896972656E-2,1.815795898E-3,5.697631836E-2
4.101721787E0,-6.909179688E-2,1.953125000E-3,5.616760254E-2
4.106757188E0,-6.909179688E-2,9.918212891E-4,5.699157715E-2
4.111792588E0,-7.104492188E-2,8.850097656E-4,5.709838867E-2
4.116827988E0,-7.025146484E-2,2.838134766E-3,5.612182617E-2
4.121863389E0,-7.015991211E-2,2.014160156E-3,5.404663086E-2
4.126898789E0,-7.015991211E-2,-1.083374023E-3,5.389404297E-2
4.131934190E0,-7.220458984E-2,-2.441406250E-4,5.389404297E-2
4.136969590E0,-7.435607910E-2,3.921508789E-3,5.389404297E-2
4.142004990E0,-7.339477539E-2,1.998901367E-3,5.285644531E-2
4.147040391E0,-7.231140137E-2,-1.220703125E-3,5.177307129E-2
4.152075791E0,-7.229614258E-2,-5.523681641E-3,5.389404297E-2
4.157111192E0,-7.339477539E-2,-4.409790039E-3,5.389404297E-2
4.162146592E0,-7.550048828E-2,-1.373291016E-4,5.389404297E-2
4.167181992E0,-7.554626465E-2,1.953125000E-3,5.393981934E-2
4.172217393E0,-7.652282715E-2,1.846313477E-3,5.496215820E-2
4.177252793E0,-7.569885254E-2,-3.204345703E-4,5.484008789E-2
4.182288193E0,-7.870483398E-2,-2.395629883E-3,5.290222168E-2
4.187323594E0,-7.870483398E-2,-3.143310547E-3,5.398559570E-2
4.192358994E0,-7.890319824E-2,1.983642578E-4,5.487060547E-2
4.197394395E0,-8.073425293E-2,4.196166992E-3,5.357360840E-2
4.202429795E0,-7.991027832E-2,4.776000977E-3,5.056762695E-2
4.207465195E0,-8.071899414E-2,1.556396484E-3,4.949951172E-2
4.212500596E0,-7.977294922E-2,-1.403808594E-3,4.855346680E-2
4.217535996E0,-7.977294922E-2,-1.861572266E-3,4.840087891E-2
4.222571397E0,-7.977294922E-2,1.220703125E-3,4.766845703E-2
4.227606797E0,-7.997131348E-2,3.570556641E-3,4.855346680E-2
4.232642197E0,-8.084106445E-2,6.225585938E-3,4.837036133E-2
4.237677598E0,-8.084106445E-2,5.584716797E-3,4.748535156E-2
4.242712998E0,-8.106994629E-2,2.792358398E-3,4.748535156E-2
4.247748399E0,-8.215332031E-2,1.953125000E-3,4.748535156E-2
4.252783799E0,-8.297729492E-2,2.441406250E-3,4.748535156E-2
4.257819199E0,-8.323669434E-2,5.615234375E-3,4.748535156E-2
4.262854600E0,-8.404541016E-2,1.103210449E-2,4.776000977E-2
4.267890000E0,-8.433532715E-2,1.234436035E-2,4.855346680E-2
4.272925401E0,-8.482360840E-2,1.068115234E-2,4.826354980E-2
4.277960801E0,-8.404541016E-2,8.041381836E-3,4.748535156E-2
4.282996201E0,-8.404541016E-2,7.293701172E-3,4.716491699E-2
4.288031602E0,-8.471679688E-2,8.285522461E-3,4.609680176E-2
4.293067002E0,-8.653259277E-2,1.153564453E-2,4.534912109E-2
4.298102402E0,-8.689880371E-2,1.477050781E-2,4.606628418E-2
4.303137803E0,-8.656311035E-2,1.652526855E-2,4.748535156E-2
4.308173203E0,-8.688354492E-2,1.354980469E-2,4.711914062E-2
4.313208604E0,-8.618164062E-2,9.033203125E-3,4.563903809E-2
4.318244004E0,-8.700561523E-2,1.078796387E-2,4.428100586E-2
4.323279404E0,-8.915710449E-2,1.643371582E-2,4.470825195E-2
4.328314805E0,-9.045410156E-2,1.860046387E-2,4.492187500E-2
4.333350205E0,-9.045410156E-2,1.708984375E-2,4.341125488E-2
4.338385606E0,-9.045410156E-2,1.402282715E-2,4.260253906E-2
4.343421006E0,-9.138488770E-2,1.063537598E-2,4.182434082E-2
4.348456406E0,-9.307861328E-2,1.086425781E-2,4.000854492E-2
4.353491807E0,-9.414672852E-2,1.457214355E-2,4.049682617E-2
4.358527207E0,-9.423828125E-2,1.690673828E-2,4.058837891E-2
4.363562608E0,-9.365844727E-2,1.638793945E-2,3.950500488E-2
4.368598008E0,-9.313964844E-2,1.530456543E-2,3.947448730E-2
4.373633408E0,-9.205627441E-2,1.368713379E-2,3.894042969E-2
4.378668809E0,-9.097290039E-2,1.318359375E-2,3.677368164E-2
4.383704209E0,-9.101867676E-2,1.594543457E-2,3.462219238E-2
4.388739610E0,-9.268188477E-2,1.911926270E-2,3.359985352E-2
4.393775010E0,-9.365844727E-2,2.186584473E-2,3.302001953E-2
4.398810410E0,-9.365844727E-2,2.270507812E-2,3.253173828E-2
4.403845811E0,-9.243774414E-2,2.038574219E-2,3.253173828E-2
4.408881211E0,-9.089660645E-2,1.777648926E-2,3.190612793E-2
4.413916611E0,-9.045410156E-2,1.690673828E-2,3.082275391E-2
4.418952012E0,-9.111022949E-2,2.015686035E-2,2.975463867E-2
4.423987412E0,-9.152221680E-2,2.554321289E-2,2.932739258E-2
4.429022813E0,-9.152221680E-2,2.825927734E-2,2.798461914E-2
4.434058213E0,-9.014892578E-2,2.520751953E-2,2.789306641E-2
4.439093613E0,-8.869934082E-2,2.120971680E-2,2.825927734E-2
4.444129014E0,-8.903503418E-2,1.939392090E-2,2.825927734E-2
4.449164414E0,-8.938598633E-2,2.194213867E-2,2.754211426E-2
4.454199815E0,-9.086608887E-2,2.919006348E-2,2.645874023E-2
4.459235215E0,-9.226989746E-2,3.259277344E-2,2.612304688E-2
4.464270615E0,-9.184265137E-2,2.760314941E-2,2.537536621E-2
4.469306016E0,-9.075927734E-2,2.079772949E-2,2.505493164E-2
4.474341416E0,-9.045410156E-2,1.824951172E-2,2.427673340E-2
4.479376817E0,-9.205627441E-2,2.355957031E-2,2.159118652E-2
4.484412217E0,-9.259033203E-2,2.951049805E-2,1.997375488E-2
4.489447617E0,-9.341430664E-2,2.996826172E-2,1.890563965E-2
4.494483018E0,-9.283447266E-2,2.471923828E-2,1.948547363E-2
4.499518418E0,-9.259033203E-2,1.823425293E-2,1.887512207E-2
4.504553818E0,-9.173583984E-2,1.690673828E-2,1.779174805E-2
4.509589219E0,-9.327697754E-2,2.299499512E-2,1.583862305E-2
4.514624619E0,-9.365844727E-2,2.967834473E-2,1.544189453E-2
4.519660020E0,-9.277343750E-2,3.079223633E-2,1.365661621E-2
4.524695420E0,-9.259033203E-2,2.626037598E-2,1.422119141E-2
4.529730820E0,-9.075927734E-2,2.085876465E-2,1.345825195E-2
4.534766221E0,-9.045410156E-2,2.011108398E-2,1.145935059E-2
4.539801621E0,-9.140014648E-2,2.388000488E-2,1.023864746E-2
4.544837022E0,-8.961486816E-2,2.915954590E-2,9.155273438E-3
4.549872422E0,-8.842468262E-2,3.166198730E-2,1.000976562E-2
4.554907822E0,-8.831787109E-2,2.890014648E-2,9.124755859E-3
4.559943223E0,-8.831787109E-2,2.566528320E-2,8.041381836E-3
4.564978623E0,-8.529663086E-2,2.342224121E-2,7.965087891E-3
4.570014024E0,-8.613586426E-2,2.635192871E-2,6.958007812E-3
4.575049424E0,-8.721923828E-2,3.166198730E-2,3.814697266E-3
4.580084824E0,-8.724975586E-2,3.393554688E-2,3.692626953E-3
4.585120225E0,-8.619689941E-2,3.187561035E-2,3.692626953E-3
4.590155625E0,-8.404541016E-2,2.758789062E-2,3.692626953E-3
4.595191026E0,-8.404541016E-2,2.655029297E-2,1.571655273E-3
4.600226426E0,-8.404541016E-2,2.980041504E-2,2.578735352E-3
4.605261826E0,-8.404541016E-2,3.405761719E-2,-5.798339844E-4
4.610297227E0,-8.399963379E-2,3.607177734E-2,-6.256103516E-4
4.615332627E0,-8.293151855E-2,3.494262695E-2,-1.693725586E-3
4.620368027E0,-8.206176758E-2,3.298950195E-2,-2.716064453E-3
4.625403428E0,-8.396911621E-2,3.390502930E-2,-2.883911133E-3
4.630438828E0,-8.288574219E-2,3.273010254E-2,-4.943847656E-3
4.635474229E0,-8.171081543E-2,3.079223633E-2,-5.920410156E-3
4.640509629E0,-7.966613770E-2,3.102111816E-2,-5.920410156E-3
4.645545029E0,-7.897949219E-2,3.318786621E-2,-6.042480469E-3
4.650580430E0,-8.084106445E-2,3.506469727E-2,-6.988525391E-3
4.655615830E0,-8.038330078E-2,3.428649902E-2,-7.141113281E-3
4.660651231E0,-7.733154297E-2,2.940368652E-2,-8.361816406E-3
4.665686631E0,-7.568359375E-2,2.812194824E-2,-1.072692871E-2
4.670722031E0,-7.620239258E-2,3.153991699E-2,-1.319885254E-2
4.675757432E0,-7.464599609E-2,3.526306152E-2,-1.252746582E-2
4.680792832E0,-7.507324219E-2,3.613281250E-2,-1.316833496E-2
4.685828233E0,-7.290649414E-2,3.613281250E-2,-1.232910156E-2
4.690863633E0,-7.099914551E-2,3.588867188E-2,-1.232910156E-2
4.695899033E0,-6.991577148E-2,3.454589844E-2,-1.309204102E-2
4.700934434E0,-6.883239746E-2,3.292846680E-2,-1.525878906E-2
4.705969834E0,-6.774902344E-2,3.402709961E-2,-1.473999023E-2
4.711005235E0,-6.724548340E-2,3.834533691E-2,-1.580810547E-2
4.716040635E0,-6.802368164E-2,4.116821289E-2,-1.719665527E-2
4.721076035E0,-6.771850586E-2,3.881835938E-2,-1.873779297E-2
4.726111436E0,-6.695556641E-2,3.375244141E-2,-1.840209961E-2
4.731146836E0,-6.661987305E-2,3.146362305E-2,-1.834106445E-2
4.736182236E0,-6.588745117E-2,3.540039062E-2,-2.050781250E-2
4.741217637E0,-6.625366211E-2,4.112243652E-2,-2.265930176E-2
4.746253037E0,-6.658935547E-2,4.141235352E-2,-2.369689941E-2
4.751288438E0,-6.434631348E-2,3.778076172E-2,-2.339172363E-2
4.756323838E0,-6.082153320E-2,3.346252441E-2,-2.407836914E-2
4.761359238E0,-5.947875977E-2,3.244018555E-2,-2.407836914E-2
4.766394639E0,-5.947875977E-2,3.804016113E-2,-2.407836914E-2
4.771430039E0,-5.992126465E-2,4.341125488E-2,-2.450561523E-2
4.776465440E0,-6.010437012E-2,4.377746582E-2,-2.514648438E-2
4.781500840E0,-5.856323242E-2,3.977966309E-2,-2.560424805E-2
4.786536240E0,-5.641174316E-2,3.518676758E-2,-2.667236328E-2
4.791571641E0,-5.473327637E-2,3.593444824E-2,-2.775573730E-2
4.796607041E0,-5.364990234E-2,4.124450684E-2,-2.883911133E-2
4.801642442E0,-5.256652832E-2,4.568481445E-2,-2.890014648E-2
4.806677842E0,-5.096435547E-2,4.576110840E-2,-2.886962891E-2
4.811713242E0,-4.881286621E-2,4.307556152E-2,-2.941894531E-2
4.816748643E0,-4.664611816E-2,4.092407227E-2,-2.995300293E-2
4.821784043E0,-4.559326172E-2,4.151916504E-2,-3.103637695E-2
4.826819443E0,-4.502868652E-2,4.367065430E-2,-3.155517578E-2
4.831854844E0,-4.278564453E-2,4.583740234E-2,-3.155517578E-2
4.836890244E0,-4.074096680E-2,4.739379883E-2,-3.155517578E-2
4.841925645E0,-3.965759277E-2,4.727172852E-2,-3.155517578E-2
4.846961045E0,-3.918457031E-2,4.618835449E-2,-3.155517578E-2
4.851996445E0,-3.918457031E-2,4.510498047E-2,-3.155517578E-2
4.857031846E0,-3.918457031E-2,4.531860352E-2,-3.089904785E-2
4.862067246E0,-3.788757324E-2,4.443359375E-2,-3.048706055E-2
4.867102647E0,-3.639221191E-2,4.360961914E-2,-3.114318848E-2
4.872138047E0,-3.598022461E-2,4.360961914E-2,-3.086853027E-2
4.877173447E0,-3.529357910E-2,4.429626465E-2,-2.909851074E-2
4.882208848E0,-3.561401367E-2,4.606628418E-2,-3.044128418E-2
4.887244248E0,-3.598022461E-2,4.537963867E-2,-3.155517578E-2
4.892279649E0,-3.453063965E-2,4.176330566E-2,-3.227233887E-2
4.897315049E0,-3.311157227E-2,3.965759277E-2,-3.410339355E-2
4.902350449E0,-3.277587891E-2,3.933715820E-2,-3.625488281E-2
4.907385850E0,-3.125000000E-2,3.933715820E-2,-3.535461426E-2
4.912421250E0,-2.909851074E-2,3.855895996E-2,-3.398132324E-2
4.917456651E0,-2.772521973E-2,4.061889648E-2,-3.369140625E-2
4.922492051E0,-2.664184570E-2,3.506469727E-2,-3.608703613E-2
4.927527451E0,-2.394104004E-2,3.048706055E-2,-3.445434570E-2
4.932562852E0,-2.233886719E-2,3.302001953E-2,-3.369140625E-2
4.937598252E0,-2.209472656E-2,4.153442383E-2,-3.369140625E-2
4.942633652E0,-2.209472656E-2,4.444885254E-2,-3.369140625E-2
4.947669053E0,-2.124023438E-2,4.121398926E-2,-3.282165527E-2
4.952704453E0,-1.927185059E-2,3.601074219E-2,-3.173828125E-2
4.957739854E0,-1.535034180E-2,3.416442871E-2,-3.065490723E-2
4.962775254E0,-1.551818848E-2,3.576660156E-2,-3.048706055E-2
4.967810654E0,-1.478576660E-2,3.703308105E-2,-2.865600586E-2
4.972846055E0,-1.370239258E-2,3.811645508E-2,-2.835083008E-2
4.977881455E0,-1.261901855E-2,3.544616699E-2,-2.835083008E-2
4.982916856E0,-1.248168945E-2,3.030395508E-2,-2.644348145E-2
4.987952256E0,-1.248168945E-2,2.684020996E-2,-2.621459961E-2
4.992987656E0,-1.054382324E-2,2.748107910E-2,-2.426147461E-2
4.998023057E0,-1.133728027E-2,2.954101562E-2,-2.603149414E-2
5.003058457E0,-1.042175293E-2,3.269958496E-2,-2.520751953E-2
5.008093858E0,-1.034545898E-2,3.292846680E-2,-2.514648438E-2
5.013129258E0,-1.034545898E-2,2.986145020E-2,-2.412414551E-2
5.018164658E0,-8.300781250E-3,2.662658691E-2,-2.304077148E-2
5.023200059E0,-7.171630859E-3,2.339172363E-2,-2.301025391E-2
5.028235459E0,-7.141113281E-3,2.119445801E-2,-2.194213867E-2
5.033270860E0,-5.004882812E-3,2.117919922E-2,-2.301025391E-2
5.038306260E0,-5.004882812E-3,2.226257324E-2,-2.299499512E-2
5.043341660E0,-4.959106445E-3,2.432250977E-2,-2.185058594E-2
5.048377061E0,-2.838134766E-3,2.204895020E-2,-1.881408691E-2
5.053412461E0,-1.754760742E-3,1.679992676E-2,-2.081298828E-2
5.058447861E0,-7.324218750E-4,1.493835449E-2,-1.968383789E-2
5.063483262E0,-6.713867188E-4,1.818847656E-2,-1.766967773E-2
5.068518662E0,5.035400391E-4,2.134704590E-2,-1.741027832E-2
5.073554063E0,2.655029297E-3,2.311706543E-2,-1.435852051E-2
5.078589463E0,4.821777344E-3,2.072143555E-2,-1.339721680E-2
5.083624863E0,6.866455078E-3,1.664733887E-2,-1.325988770E-2
5.088660264E0,7.934570312E-3,1.477050781E-2,-1.219177246E-2
5.093695664E0,9.017944336E-3,1.490783691E-2,-1.097106934E-2
5.098731065E0,1.025390625E-2,1.614379883E-2,-8.804321289E-3
5.103766465E0,1.208496094E-2,1.797485352E-2,-6.988525391E-3
5.108801865E0,1.245117188E-2,1.759338379E-2,-6.790161133E-3
5.113837266E0,1.422119141E-2,1.544189453E-2,-5.920410156E-3
5.118872666E0,1.484680176E-2,1.348876953E-2,-5.706787109E-3
5.123908067E0,1.742553711E-2,1.217651367E-2,-4.852294922E-3
5.128943467E0,1.742553711E-2,1.049804688E-2,-4.379272461E-3
5.133978867E0,1.742553711E-2,1.049804688E-2,-2.716064453E-3
5.139014268E0,1.716613770E-2,9.979248047E-3,-2.716064453E-3
5.144049668E0,1.661682129E-2,8.361816406E-3,-2.716064453E-3
5.149085068E0,1.713562012E-2,7.232666016E-3,-2.151489258E-3
5.154120469E0,1.664733887E-2,3.784179688E-3,-5.798339844E-4
5.159155869E0,1.742553711E-2,2.395629883E-3,-5.798339844E-4
5.164191270E0,1.710510254E-2,5.645751953E-4,-5.798339844E-4
5.169226670E0,1.602172852E-2,-1.831054688E-4,7.629394531E-5
5.174262070E0,1.528930664E-2,-5.340576172E-4,1.556396484E-3
5.179297471E0,1.528930664E-2,-1.968383789E-3,1.556396484E-3
5.184332871E0,1.638793945E-2,-4.135131836E-3,1.937866211E-3
5.189368272E0,1.849365234E-2,-5.523681641E-3,2.624511719E-3
5.194403672E0,1.849365234E-2,-5.920410156E-3,3.021240234E-3
5.199439072E0,1.889038086E-2,-6.591796875E-3,4.104614258E-3
5.204474473E0,1.997375488E-2,-7.431030273E-3,4.348754883E-3
5.209509873E0,2.146911621E-2,-9.582519531E-3,4.974365234E-3
5.214545274E0,2.319335938E-2,-9.552001953E-3,7.781982422E-3
5.219580674E0,2.383422852E-2,-7.659912109E-3,9.490966797E-3
5.224616074E0,2.429199219E-2,-8.132934570E-3,1.057434082E-2
5.229651475E0,2.537536621E-2,-9.216308594E-3,1.165771484E-2
5.234686875E0,2.597045898E-2,-9.307861328E-3,1.274108887E-2
5.239722276E0,2.647399902E-2,-8.728027344E-3,1.330566406E-2
5.244757676E0,2.806091309E-2,-9.765625000E-3,1.382446289E-2
5.249793076E0,2.917480469E-2,-1.139831543E-2,1.597595215E-2
5.254828477E0,2.970886230E-2,-1.193237305E-2,1.866149902E-2
5.259863877E0,3.024291992E-2,-1.083374023E-2,2.027893066E-2
5.264899277E0,2.967834473E-2,-9.246826172E-3,2.078247070E-2
5.269934678E0,2.973937988E-2,-9.307861328E-3,2.078247070E-2
5.274970078E0,3.024291992E-2,-1.098632812E-2,2.137756348E-2
5.280005479E0,3.144836426E-2,-1.374816895E-2,2.246093750E-2
5.285040879E0,3.298950195E-2,-1.637268066E-2,2.354431152E-2
5.290076279E0,3.282165527E-2,-1.666259766E-2,2.461242676E-2
5.295111680E0,3.173828125E-2,-1.431274414E-2,2.569580078E-2
5.300147080E0,3.131103516E-2,-1.170349121E-2,2.548217773E-2
5.305182481E0,3.262329102E-2,-1.286315918E-2,2.638244629E-2
5.310217881E0,3.276062012E-2,-1.745605469E-2,2.787780762E-2
5.315253281E0,3.237915039E-2,-1.734924316E-2,2.825927734E-2
5.320288682E0,3.097534180E-2,-1.481628418E-2,2.757263184E-2
5.325324082E0,3.024291992E-2,-1.336669922E-2,2.648925781E-2
5.330359483E0,3.096008301E-2,-1.446533203E-2,2.832031250E-2
5.335394883E0,3.279113770E-2,-1.513671875E-2,3.007507324E-2
5.340430283E0,3.419494629E-2,-1.438903809E-2,3.115844727E-2
5.345465684E0,3.602600098E-2,-1.483154297E-2,3.222656250E-2
5.350501084E0,3.741455078E-2,-1.513671875E-2,3.330993652E-2
5.355536485E0,3.771972656E-2,-1.435852051E-2,3.282165527E-2
5.360571885E0,3.851318359E-2,-1.487731934E-2,3.413391113E-2
5.365607285E0,3.959655762E-2,-1.676940918E-2,3.385925293E-2
5.370642686E0,4.067993164E-2,-1.893615723E-2,3.526306152E-2
5.375678086E0,4.174804688E-2,-1.774597168E-2,3.573608398E-2
5.380713486E0,4.283142090E-2,-1.643371582E-2,3.659057617E-2
5.385748887E0,4.306030273E-2,-1.449584961E-2,3.680419922E-2
5.390784287E0,4.306030273E-2,-1.495361328E-2,3.768920898E-2
5.395819688E0,4.393005371E-2,-1.867675781E-2,3.964233398E-2
5.400855088E0,4.322814941E-2,-1.852416992E-2,3.912353516E-2
5.405890488E0,4.214477539E-2,-1.744079590E-2,3.985595703E-2
5.410925889E0,4.290771484E-2,-1.542663574E-2,3.909301758E-2
5.415961289E0,4.211425781E-2,-1.794433594E-2,3.707885742E-2
5.420996690E0,4.386901855E-2,-2.212524414E-2,3.587341309E-2
5.426032090E0,4.316711426E-2,-2.453613281E-2,3.669738770E-2
5.431067490E0,4.208374023E-2,-2.474975586E-2,3.584289551E-2
5.436102891E0,4.199218750E-2,-2.474975586E-2,3.573608398E-2
5.441138291E0,4.298400879E-2,-2.575683594E-2,3.573608398E-2
5.446173692E0,4.306030273E-2,-2.784729004E-2,3.573608398E-2
5.451209092E0,4.306030273E-2,-2.694702148E-2,3.573608398E-2
5.456244492E0,4.408264160E-2,-2.688598633E-2,3.573608398E-2
5.461279893E0,4.307556152E-2,-2.897644043E-2,3.573608398E-2
5.466315293E0,4.306030273E-2,-3.009033203E-2,3.468322754E-2
5.471350693E0,4.519653320E-2,-3.115844727E-2,3.466796875E-2
5.476386094E0,4.306030273E-2,-3.222656250E-2,3.361511230E-2
5.481421494E0,4.414367676E-2,-3.111267090E-2,3.466796875E-2
5.486456895E0,4.515075684E-2,-2.902221680E-2,3.471374512E-2
5.491492295E0,4.428100586E-2,-2.912902832E-2,3.573608398E-2
5.496527695E0,4.743957520E-2,-3.134155273E-2,3.573608398E-2
5.501563096E0,4.946899414E-2,-3.436279297E-2,3.573608398E-2
5.506598496E0,4.946899414E-2,-3.411865234E-2,3.573608398E-2
5.511633897E0,4.965209961E-2,-3.077697754E-2,3.564453125E-2
5.516669297E0,5.171203613E-2,-2.688598633E-2,3.479003906E-2
5.521704697E0,5.267333984E-2,-2.714538574E-2,3.587341309E-2
5.526740098E0,5.267333984E-2,-2.941894531E-2,3.668212891E-2
5.531775498E0,5.294799805E-2,-3.251647949E-2,3.559875488E-2
5.536810899E0,5.464172363E-2,-3.405761719E-2,3.466796875E-2
5.541846299E0,5.374145508E-2,-3.172302246E-2,3.450012207E-2
5.546881699E0,5.354309082E-2,-2.883911133E-2,3.341674805E-2
5.551917100E0,5.247497559E-2,-2.777099609E-2,3.253173828E-2
5.556952500E0,5.160522461E-2,-2.836608887E-2,3.211975098E-2
5.561987901E0,5.160522461E-2,-3.503417969E-2,3.039550781E-2
5.567023301E0,5.160522461E-2,-3.710937500E-2,3.016662598E-2
5.572058701E0,5.113220215E-2,-3.497314453E-2,2.909851074E-2
5.577094102E0,4.895019531E-2,-3.329467773E-2,2.801513672E-2
5.582129502E0,4.759216309E-2,-3.437805176E-2,2.719116211E-2
5.587164902E0,4.867553711E-2,-3.926086426E-2,2.691650391E-2
5.592200303E0,4.975891113E-2,-4.397583008E-2,2.612304688E-2
5.597235703E0,5.053710938E-2,-4.306030273E-2,2.581787109E-2
5.602271104E0,5.020141602E-2,-3.981018066E-2,2.505493164E-2
5.607306504E0,4.946899414E-2,-3.790283203E-2,2.539062500E-2
5.612341904E0,4.980468750E-2,-3.933715820E-2,2.578735352E-2
5.617377305E0,5.088806152E-2,-4.006958008E-2,2.505493164E-2
5.622412705E0,5.160522461E-2,-3.790283203E-2,2.505493164E-2
5.627448106E0,5.197143555E-2,-3.613281250E-2,2.505493164E-2
5.632483506E0,5.305480957E-2,-3.622436523E-2,2.505493164E-2
5.637518906E0,5.374145508E-2,-3.717041016E-2,2.424621582E-2
5.642554307E0,5.331420898E-2,-3.567504883E-2,2.250671387E-2
5.647589707E0,5.310058594E-2,-3.480529785E-2,2.099609375E-2
5.652625108E0,5.462646484E-2,-3.543090820E-2,2.017211914E-2
5.657660508E0,5.587768555E-2,-3.453063965E-2,2.033996582E-2
5.662695908E0,5.494689941E-2,-3.237915039E-2,1.832580566E-2
5.667731309E0,5.421447754E-2,-3.164672852E-2,1.603698730E-2
5.672766709E0,5.430603027E-2,-3.469848633E-2,1.446533203E-2
5.677802110E0,5.322265625E-2,-3.959655762E-2,1.280212402E-2
5.682837510E0,5.369567871E-2,-4.081726074E-2,1.223754883E-2
5.687872910E0,5.427551270E-2,-3.758239746E-2,1.171875000E-2
5.692908311E0,5.264282227E-2,-3.381347656E-2,1.116943359E-2
5.697943711E0,5.104064941E-2,-3.279113770E-2,1.062011719E-2
5.702979111E0,5.110168457E-2,-3.500366211E-2,8.972167969E-3
5.708014512E0,5.160522461E-2,-3.823852539E-2,7.965087891E-3
5.713049912E0,5.101013184E-2,-3.794860840E-2,6.790161133E-3
5.718085313E0,4.992675781E-2,-3.529357910E-2,4.623413086E-3
5.723120713E0,4.884338379E-2,-3.314208984E-2,3.082275391E-3
5.728156113E0,4.776000977E-2,-3.222656250E-2,2.624511719E-3
5.733191514E0,4.667663574E-2,-3.288269043E-2,2.624511719E-3
5.738226914E0,4.756164551E-2,-3.329467773E-2,2.624511719E-3
5.743262315E0,4.840087891E-2,-3.396606445E-2,2.624511719E-3
5.748297715E0,4.907226562E-2,-3.234863281E-2,1.953125000E-3
5.753333115E0,5.015563965E-2,-2.841186523E-2,1.556396484E-3
5.758368516E0,4.983520508E-2,-2.409362793E-2,2.258300781E-3
5.763403916E0,5.088806152E-2,-2.404785156E-2,1.205444336E-3
5.768439317E0,5.305480957E-2,-2.621459961E-2,4.882812500E-4
5.773474717E0,5.374145508E-2,-2.838134766E-2,4.882812500E-4
5.778510117E0,5.223083496E-2,-2.676391602E-2,-1.007080078E-3
5.783545518E0,5.160522461E-2,-2.352905273E-2,-2.410888672E-3
5.788580918E0,5.003356934E-2,-2.261352539E-2,-3.494262695E-3
5.793616318E0,5.024719238E-2,-2.420043945E-2,-4.562377930E-3
5.798651719E0,5.133056641E-2,-2.635192871E-2,-5.645751953E-3
5.803687119E0,4.916381836E-2,-2.526855469E-2,-5.920410156E-3
5.808722520E0,4.673767090E-2,-2.310180664E-2,-6.744384766E-3
5.813757920E0,4.626464844E-2,-2.345275879E-2,-7.812500000E-3
5.818793320E0,4.541015625E-2,-2.539062500E-2,-9.750366211E-3
5.823828721E0,4.519653320E-2,-2.581787109E-2,-1.019287109E-2
5.828864121E0,4.344177246E-2,-2.757263184E-2,-1.193237305E-2
5.833899522E0,4.393005371E-2,-2.708435059E-2,-1.319885254E-2
5.838934922E0,4.501342773E-2,-2.600097656E-2,-1.428222656E-2
5.843970322E0,4.519653320E-2,-2.308654785E-2,-1.628112793E-2
5.849005723E0,4.426574707E-2,-2.354431152E-2,-1.567077637E-2
5.854041123E0,4.505920410E-2,-2.555847168E-2,-1.458740234E-2
5.859076524E0,4.519653320E-2,-2.581787109E-2,-1.446533203E-2
5.864111924E0,4.519653320E-2,-2.487182617E-2,-1.541137695E-2
5.869147324E0,4.519653320E-2,-1.893615723E-2,-1.553344727E-2
5.874182725E0,4.615783691E-2,-1.348876953E-2,-1.358032227E-2
5.879218125E0,4.725646973E-2,-1.499938965E-2,-1.637268066E-2
5.884253526E0,4.833984375E-2,-1.918029785E-2,-1.557922363E-2
5.889288926E0,4.737854004E-2,-1.940917969E-2,-1.756286621E-2
5.894324326E0,4.527282715E-2,-1.426696777E-2,-1.766967773E-2
5.899359727E0,4.623413086E-2,-1.095581055E-2,-1.661682129E-2
5.904395127E0,4.731750488E-2,-9.811401367E-3,-1.765441895E-2
5.909430527E0,4.519653320E-2,-1.406860352E-2,-1.873779297E-2
5.914465928E0,4.518127441E-2,-2.050781250E-2,-1.982116699E-2
5.919501328E0,4.406738281E-2,-2.253723145E-2,-2.195739746E-2
5.924536729E0,4.191589355E-2,-1.925659180E-2,-2.304077148E-2
5.929572129E0,3.974914551E-2,-1.412963867E-2,-2.412414551E-2
5.934607529E0,3.771972656E-2,-1.531982422E-2,-2.519226074E-2
5.939642930E0,3.771972656E-2,-1.849365234E-2,-2.635192871E-2
5.944678330E0,3.779602051E-2,-2.047729492E-2,-2.835083008E-2
5.949713731E0,3.858947754E-2,-2.038574219E-2,-2.824401855E-2
5.954749131E0,3.665161133E-2,-1.953125000E-2,-2.738952637E-2
5.959784531E0,3.665161133E-2,-2.059936523E-2,-2.845764160E-2
5.964819932E0,3.637695312E-2,-2.142333984E-2,-2.954101562E-2
5.969855332E0,3.451538086E-2,-2.020263672E-2,-3.019714355E-2
5.974890733E0,3.419494629E-2,-1.866149902E-2,-2.850341797E-2
5.979926133E0,3.219604492E-2,-2.099609375E-2,-2.958679199E-2
5.984961533E0,3.149414062E-2,-2.388000488E-2,-3.048706055E-2
5.989996934E0,3.218078613E-2,-2.416992188E-2,-3.048706055E-2
5.995032334E0,3.150939941E-2,-2.134704590E-2,-3.048706055E-2
6.000067735E0,3.215026855E-2,-2.091979980E-2,-3.048706055E-2
6.005103135E0,3.199768066E-2,-2.285766602E-2,-3.024291992E-2
6.010138535E0,3.427124023E-2,-2.272033691E-2,-2.964782715E-2
6.015173936E0,3.344726562E-2,-1.814270020E-2,-3.073120117E-2
6.020209336E0,3.344726562E-2,-1.327514648E-2,-3.155517578E-2
6.025244736E0,3.372192383E-2,-1.228332520E-2,-3.099060059E-2
6.030280137E0,3.451538086E-2,-1.737976074E-2,-2.941894531E-2
6.035315537E0,3.421020508E-2,-2.047729492E-2,-2.941894531E-2
6.040350938E0,3.312683105E-2,-1.890563965E-2,-2.941894531E-2
6.045386338E0,3.204345703E-2,-1.383972168E-2,-2.908325195E-2
6.050421738E0,3.131103516E-2,-1.188659668E-2,-2.835083008E-2
6.055457139E0,3.094482422E-2,-1.548767090E-2,-2.835083008E-2
6.060492539E0,2.987670898E-2,-1.834106445E-2,-2.835083008E-2
6.065527940E0,2.879333496E-2,-1.797485352E-2,-2.835083008E-2
6.070563340E0,2.770996094E-2,-1.573181152E-2,-2.951049805E-2
6.075598740E0,2.662658691E-2,-1.300048828E-2,-3.114318848E-2
6.080634141E0,2.638244629E-2,-1.383972168E-2,-3.005981445E-2
6.085669541E0,2.703857422E-2,-1.599121094E-2,-2.983093262E-2
6.090704942E0,2.659606934E-2,-1.815795898E-2,-3.048706055E-2
6.095740342E0,2.597045898E-2,-1.808166504E-2,-3.048706055E-2
6.100775742E0,2.597045898E-2,-1.437377930E-2,-3.001403809E-2
6.105811143E0,2.502441406E-2,-1.052856445E-2,-2.987670898E-2
6.110846543E0,2.479553223E-2,-1.068115234E-2,-2.999877930E-2
6.115881943E0,2.597045898E-2,-1.499938965E-2,-2.941894531E-2
6.120917344E0,2.647399902E-2,-1.779174805E-2,-2.941894531E-2
6.125952744E0,2.755737305E-2,-1.625061035E-2,-2.888488770E-2
6.130988145E0,2.703857422E-2,-9.796142578E-3,-2.835083008E-2
6.136023545E0,2.542114258E-2,-5.523681641E-3,-2.888488770E-2
6.141058945E0,2.545166016E-2,-7.766723633E-3,-2.885437012E-2
6.146094346E0,2.653503418E-2,-1.208496094E-2,-2.835083008E-2
6.151129746E0,2.644348145E-2,-1.232910156E-2,-2.775573730E-2
6.156165147E0,2.536010742E-2,-7.888793945E-3,-2.728271484E-2
6.161200547E0,2.549743652E-2,-6.134033203E-3,-2.728271484E-2
6.166235947E0,2.658081055E-2,-6.591796875E-3,-2.728271484E-2
6.171271348E0,2.703857422E-2,-7.232666016E-3,-2.664184570E-2
6.176306748E0,2.703857422E-2,-7.659912109E-3,-2.621459961E-2
6.181342149E0,2.703857422E-2,-7.659912109E-3,-2.555847168E-2
6.186377549E0,2.636718750E-2,-6.332397461E-3,-2.447509766E-2
6.191412949E0,2.597045898E-2,-2.807617188E-3,-2.407836914E-2
6.196448350E0,2.456665039E-2,-5.645751953E-4,-2.407836914E-2
6.201483750E0,2.383422852E-2,-1.602172852E-3,-2.336120605E-2
6.206519151E0,2.455139160E-2,-5.203247070E-3,-2.301025391E-2
6.211554551E0,2.490234375E-2,-7.324218750E-3,-2.227783203E-2
6.216589951E0,2.340698242E-2,-4.699707031E-3,-2.194213867E-2
6.221625352E0,2.351379395E-2,-1.129150391E-3,-2.194213867E-2
6.226660752E0,2.153015137E-2,-9.613037109E-4,-2.194213867E-2
6.231696152E0,2.140808105E-2,-1.251220703E-3,-2.114868164E-2
6.236731553E0,2.169799805E-2,-4.730224609E-4,-2.087402344E-2
6.241766953E0,2.009582520E-2,-1.831054688E-4,-2.087402344E-2
6.246802354E0,2.037048340E-2,-2.624511719E-3,-2.087402344E-2
6.251837754E0,2.227783203E-2,-3.387451172E-3,-2.003479004E-2
6.256873154E0,2.192687988E-2,-4.577636719E-5,-1.980590820E-2
6.261908555E0,2.084350586E-2,2.578735352E-3,-1.980590820E-2
6.266943955E0,1.889038086E-2,3.021240234E-3,-2.066040039E-2
6.271979356E0,1.936340332E-2,3.814697266E-4,-1.823425293E-2
6.277014756E0,2.044677734E-2,-2.868652344E-3,-1.676940918E-2
6.282050156E0,2.062988281E-2,-4.287719727E-3,-1.748657227E-2
6.287085557E0,2.062988281E-2,-1.724243164E-3,-1.766967773E-2
6.292120957E0,2.062988281E-2,5.950927734E-4,-1.858520508E-2
6.297156358E0,1.875305176E-2,1.815795898E-3,-1.873779297E-2
6.302191758E0,1.849365234E-2,4.577636719E-5,-1.683044434E-2
6.307227158E0,1.945495605E-2,-2.120971680E-3,-1.562500000E-2
6.312262559E0,1.956176758E-2,-3.295898438E-3,-1.553344727E-2
6.317297959E0,1.956176758E-2,-3.387451172E-3,-1.553344727E-2
6.322333360E0,1.855468750E-2,-3.814697266E-4,-1.351928711E-2
6.327368760E0,1.644897461E-2,-1.831054688E-4,-1.440429688E-2
6.332404160E0,1.942443848E-2,-2.243041992E-3,-1.342773438E-2
6.337439561E0,1.748657227E-2,-2.319335938E-3,-1.441955566E-2
6.342474961E0,1.742553711E-2,-2.319335938E-3,-1.446533203E-2
6.347510361E0,1.528930664E-2,-1.983642578E-4,-1.339721680E-2
6.352545762E0,1.422119141E-2,8.544921875E-4,-1.124572754E-2
6.357581162E0,1.635742188E-2,-2.380371094E-3,-1.019287109E-2
6.362616563E0,1.626586914E-2,-5.477905273E-3,-1.016235352E-2
6.367651963E0,1.315307617E-2,-3.311157227E-3,-9.124755859E-3
6.372687363E0,1.324462891E-2,-1.205444336E-3,-9.063720703E-3
6.377722764E0,1.515197754E-2,-3.204345703E-4,-8.117675781E-3
6.382758164E0,1.306152344E-2,-2.243041992E-3,-8.956909180E-3
6.387793565E0,1.226806641E-2,-1.251220703E-3,-6.988525391E-3
6.392828965E0,1.411437988E-2,-1.251220703E-3,-6.774902344E-3
6.397864365E0,1.303100586E-2,-1.251220703E-3,-4.730224609E-3
6.402899766E0,1.208496094E-2,-1.388549805E-3,-3.784179688E-3
6.407935166E0,1.208496094E-2,-2.319335938E-3,-3.784179688E-3
6.412970567E0,1.193237305E-2,-2.319335938E-3,-3.631591797E-3
6.418005967E0,1.084899902E-2,-2.487182617E-3,-2.868652344E-3
6.423041367E0,9.948730469E-3,-3.387451172E-3,-3.601074219E-3
6.428076768E0,9.948730469E-3,-3.585815430E-3,-2.899169922E-3
6.433112168E0,1.052856445E-2,-4.272460938E-3,-3.784179688E-3
6.438147568E0,1.272583008E-2,-2.761840820E-3,-3.143310547E-3
6.443182969E0,1.034545898E-2,-1.831054688E-4,-5.798339844E-4
6.448218369E0,7.812500000E-3,-1.831054688E-4,-3.356933594E-4
6.453253770E0,8.300781250E-3,-1.190185547E-3,4.882812500E-4
6.458289170E0,9.674072266E-3,-4.196166992E-3,4.882812500E-4
6.463324570E0,8.590698242E-3,-3.112792969E-3,4.882812500E-4
6.468359971E0,7.232666016E-3,-8.850097656E-4,7.781982422E-4
6.473395371E0,5.676269531E-3,3.311157227E-3,1.556396484E-3
6.478430772E0,5.981445312E-3,3.158569336E-3,2.182006836E-3
6.483466172E0,7.049560547E-3,2.593994141E-4,4.013061523E-3
6.488501572E0,8.132934570E-3,-5.950927734E-4,5.096435547E-3
6.493536973E0,8.880615234E-3,1.922607422E-3,5.828857422E-3
6.498572373E0,8.880615234E-3,4.806518555E-3,5.477905273E-3
6.503607774E0,9.246826172E-3,5.844116211E-3,5.508422852E-3
6.508643174E0,9.948730469E-3,4.760742188E-3,7.293701172E-3
6.513678574E0,9.948730469E-3,3.692626953E-3,7.965087891E-3
6.518713975E0,9.948730469E-3,4.638671875E-3,7.965087891E-3
6.523749375E0,9.521484375E-3,7.705688477E-3,8.804321289E-3
6.528784776E0,8.880615234E-3,8.361816406E-3,1.010131836E-2
6.533820176E0,9.323120117E-3,8.361816406E-3,9.658813477E-3
6.538855576E0,9.948730469E-3,8.361816406E-3,8.575439453E-3
6.543890977E0,9.475708008E-3,7.888793945E-3,7.965087891E-3
6.548926377E0,7.431030273E-3,7.293701172E-3,7.965087891E-3
6.553961777E0,5.676269531E-3,8.270263672E-3,7.476806641E-3
6.558997178E0,5.157470703E-3,8.911132812E-3,7.919311523E-3
6.564032578E0,5.111694336E-3,7.324218750E-3,9.033203125E-3
6.569067979E0,5.142211914E-3,5.691528320E-3,9.033203125E-3
6.574103379E0,2.975463867E-3,6.240844727E-3,9.582519531E-3
6.579138779E0,8.392333984E-4,9.506225586E-3,1.010131836E-2
6.584174180E0,8.850097656E-4,1.156616211E-2,1.010131836E-2
6.589209580E0,1.403808594E-3,9.826660156E-3,1.068115234E-2
6.594244981E0,1.983642578E-3,6.591796875E-3,1.116943359E-2
6.599280381E0,2.471923828E-3,6.362915039E-3,1.177978516E-2
6.604315781E0,6.103515625E-4,8.514404297E-3,1.223754883E-2
6.609351182E0,-7.324218750E-4,1.066589355E-2,1.286315918E-2
6.614386582E0,-7.324218750E-4,1.156616211E-2,1.203918457E-2
6.619421983E0,-9.155273438E-5,1.025390625E-2,1.182556152E-2
6.624457383E0,3.356933594E-4,8.758544922E-3,1.223754883E-2
6.629492783E0,3.356933594E-4,7.675170898E-3,1.156616211E-2
6.634528184E0,-3.662109375E-4,7.293701172E-3,1.048278809E-2
6.639563584E0,-7.324218750E-4,8.682250977E-3,1.080322266E-2
6.644598985E0,-7.324218750E-4,1.013183594E-2,1.046752930E-2
6.649634385E0,-1.464843750E-3,9.033203125E-3,1.010131836E-2
6.654669785E0,-1.800537109E-3,5.386352539E-3,1.010131836E-2
6.659705186E0,-1.800537109E-3,1.831054688E-3,9.353637695E-3
6.664740586E0,-3.326416016E-3,3.921508789E-3,7.522583008E-3
6.669775986E0,-3.173828125E-3,8.239746094E-3,7.675170898E-3
6.674811387E0,-3.662109375E-3,9.429931641E-3,7.186889648E-3
6.679846787E0,-3.936767578E-3,7.019042969E-3,7.705688477E-3
6.684882188E0,-5.569458008E-3,4.592895508E-3,7.965087891E-3
6.689917588E0,-6.072998047E-3,3.265380859E-3,7.965087891E-3
6.694952988E0,-6.072998047E-3,3.845214844E-3,8.804321289E-3
6.699988389E0,-6.927490234E-3,6.622314453E-3,8.193969727E-3
6.705023789E0,-8.010864258E-3,8.148193359E-3,7.965087891E-3
6.710059190E0,-6.469726562E-3,3.997802734E-3,7.965087891E-3
6.715094590E0,-7.843017578E-3,1.251220703E-3,6.210327148E-3
6.720129990E0,-8.209228516E-3,1.770019531E-3,6.729125977E-3
6.725165391E0,-9.124755859E-3,6.469726562E-3,6.896972656E-3
6.730200791E0,-1.112365723E-2,8.209228516E-3,7.827758789E-3
6.735236192E0,-1.141357422E-2,5.569458008E-3,7.965087891E-3
6.740271592E0,-1.141357422E-2,4.272460938E-4,7.965087891E-3
6.745306992E0,-1.141357422E-2,-1.831054688E-4,8.926391602E-3
6.750342393E0,-1.239013672E-2,2.716064453E-3,9.033203125E-3
6.755377793E0,-1.150512695E-2,7.904052734E-3,7.080078125E-3
6.760413193E0,-1.141357422E-2,7.369995117E-3,6.896972656E-3
6.765448594E0,-1.242065430E-2,6.286621094E-3,7.904052734E-3
6.770483994E0,-1.248168945E-2,5.203247070E-3,6.958007812E-3
6.775519395E0,-1.351928711E-2,4.119873047E-3,8.956909180E-3
6.780554795E0,-1.460266113E-2,7.202148438E-3,6.958007812E-3
6.785590195E0,-1.255798340E-2,7.293701172E-3,5.874633789E-3
6.790625596E0,-1.036071777E-2,7.293701172E-3,5.828857422E-3
6.795660996E0,-1.034545898E-2,6.225585938E-3,6.896972656E-3
6.800696397E0,-9.323120117E-3,7.293701172E-3,5.859375000E-3
6.805731797E0,-1.141357422E-2,7.354736328E-3,6.866455078E-3
6.810767197E0,-1.136779785E-2,9.475708008E-3,5.783081055E-3
6.815802598E0,-1.052856445E-2,1.060485840E-2,4.653930664E-3
6.820837998E0,-1.354980469E-2,1.263427734E-2,2.853393555E-3
6.825873399E0,-1.347351074E-2,1.254272461E-2,5.752563477E-3
6.830908799E0,-1.239013672E-2,1.136779785E-2,4.867553711E-3
6.835944199E0,-1.153564453E-2,9.643554688E-3,5.615234375E-3
6.840979600E0,-1.248168945E-2,1.167297363E-2,3.585815430E-3
6.846015000E0,-1.261901855E-2,1.289367676E-2,2.502441406E-3
6.851050401E0,-1.370239258E-2,1.461791992E-2,1.708984375E-3
6.856085801E0,-1.446533203E-2,1.338195801E-2,2.471923828E-3
6.861121201E0,-1.354980469E-2,1.121520996E-2,1.388549805E-3
6.866156602E0,-1.354980469E-2,9.597778320E-3,6.713867188E-4
6.871192002E0,-1.354980469E-2,1.106262207E-2,1.373291016E-3
6.876227402E0,-1.354980469E-2,1.429748535E-2,4.882812500E-4
6.881262803E0,-1.354980469E-2,1.646423340E-2,4.882812500E-4
6.886298203E0,-1.354980469E-2,1.383972168E-2,2.593994141E-4
6.891333604E0,-1.307678223E-2,1.025390625E-2,-3.356933594E-4
6.896369004E0,-1.193237305E-2,1.019287109E-2,-1.525878906E-5
6.901404404E0,-1.354980469E-2,1.342773438E-2,-1.373291016E-3
6.906439805E0,-1.327514648E-2,1.638793945E-2,-8.544921875E-4
6.911475205E0,-1.191711426E-2,1.739501953E-2,-1.358032227E-3
6.916510606E0,-1.065063477E-2,1.553344727E-2,3.051757812E-5
6.921546006E0,-1.173400879E-2,1.539611816E-2,1.251220703E-3
6.926581406E0,-1.150512695E-2,1.754760742E-2,1.678466797E-4
6.931616807E0,-8.941650391E-3,1.802062988E-2,-5.798339844E-4
6.936652207E0,-8.926391602E-3,1.512145996E-2,-1.281738281E-3
6.941687608E0,-1.034545898E-2,1.406860352E-2,-2.716064453E-3
6.946723008E0,-1.034545898E-2,1.589965820E-2,-2.334594727E-3
6.951758408E0,-1.034545898E-2,1.797485352E-2,-2.029418945E-3
6.956793809E0,-1.075744629E-2,1.635742188E-2,-3.112792969E-3
6.961829209E0,-1.141357422E-2,1.245117188E-2,-4.608154297E-3
6.966864610E0,-1.141357422E-2,1.049804688E-2,-5.920410156E-3
6.971900010E0,-1.141357422E-2,1.136779785E-2,-5.920410156E-3
6.976935410E0,-1.232910156E-2,1.307678223E-2,-5.920410156E-3
6.981970811E0,-1.354980469E-2,1.229858398E-2,-5.447387695E-3
6.987006211E0,-1.354980469E-2,9.536743164E-3,-4.364013672E-3
6.992041611E0,-1.403808594E-2,6.896972656E-3,-3.784179688E-3
6.997077012E0,-1.412963867E-2,5.645751953E-3,-4.272460938E-3
7.002112412E0,-1.406860352E-2,7.751464844E-3,-5.355834961E-3
7.007147813E0,-1.461791992E-2,9.429931641E-3,-6.439208984E-3
7.012183213E0,-1.354980469E-2,7.278442383E-3,-6.439208984E-3
7.017218613E0,-1.304626465E-2,2.944946289E-3,-5.355834961E-3
7.022254014E0,-1.300048828E-2,1.998901367E-3,-4.287719727E-3
7.027289414E0,-1.191711426E-2,5.874633789E-3,-4.348754883E-3
7.032324815E0,-1.200866699E-2,1.010131836E-2,-5.432128906E-3
7.037360215E0,-1.248168945E-2,9.170532227E-3,-5.920410156E-3
7.042395615E0,-1.127624512E-2,5.462646484E-3,-6.515502930E-3
7.047431016E0,-9.109497070E-3,3.463745117E-3,-6.988525391E-3
7.052466416E0,-8.209228516E-3,4.913330078E-3,-6.347656250E-3
7.057501817E0,-8.209228516E-3,8.819580078E-3,-6.561279297E-3
7.062537217E0,-8.880615234E-3,1.049804688E-2,-7.644653320E-3
7.067572617E0,-7.263183594E-3,7.797241211E-3,-6.698608398E-3
7.072608018E0,-6.759643555E-3,5.538940430E-3,-7.278442383E-3
7.077643418E0,-7.843017578E-3,7.232666016E-3,-7.354736328E-3
7.082678818E0,-6.805419922E-3,9.063720703E-3,-6.988525391E-3
7.087714219E0,-6.072998047E-3,1.013183594E-2,-6.988525391E-3
7.092749619E0,-6.805419922E-3,9.765625000E-3,-6.256103516E-3
7.097785020E0,-8.636474609E-3,8.682250977E-3,-6.652832031E-3
7.102820420E0,-7.766723633E-3,7.598876953E-3,-6.225585938E-3
7.107855820E0,-4.837036133E-3,7.293701172E-3,-5.142211914E-3
7.112891221E0,-4.730224609E-3,7.293701172E-3,-5.630493164E-3
7.117926621E0,-5.004882812E-3,7.293701172E-3,-5.920410156E-3
7.122962022E0,-3.402709961E-3,7.293701172E-3,-5.111694336E-3
7.127997422E0,-2.868652344E-3,7.293701172E-3,-4.852294922E-3
7.133032822E0,-4.547119141E-3,6.454467773E-3,-4.852294922E-3
7.138068223E0,-5.004882812E-3,5.371093750E-3,-6.530761719E-3
7.143103623E0,-5.859375000E-3,5.996704102E-3,-6.988525391E-3
7.148139024E0,-4.348754883E-3,7.080078125E-3,-6.118774414E-3
7.153174424E0,-2.182006836E-3,8.163452148E-3,-5.035400391E-3
7.158209824E0,-1.800537109E-3,8.361816406E-3,-5.737304688E-3
7.163245225E0,-9.002685547E-4,8.361816406E-3,-4.104614258E-3
7.168280625E0,-1.663208008E-3,7.431030273E-3,-4.699707031E-3
7.173316026E0,-8.850097656E-4,8.209228516E-3,-2.990722656E-3
7.178351426E0,-7.324218750E-4,9.292602539E-3,-3.646850586E-3
7.183386826E0,2.136230469E-4,9.429931641E-3,-3.784179688E-3
7.188422227E0,1.296997070E-3,9.429931641E-3,-3.784179688E-3
7.193457627E0,4.272460938E-4,8.453369141E-3,-4.745483398E-3
7.198493027E0,3.356933594E-4,8.361816406E-3,-5.828857422E-3
7.203528428E0,1.327514648E-3,8.361816406E-3,-4.913330078E-3
7.208563828E0,2.410888672E-3,8.361816406E-3,-5.859375000E-3
7.213599229E0,3.494262695E-3,8.361816406E-3,-4.882812500E-3
7.218634629E0,1.464843750E-3,8.361816406E-3,-3.814697266E-3
7.223670029E0,2.456665039E-3,7.293701172E-3,-3.784179688E-3
7.228705430E0,2.471923828E-3,8.346557617E-3,-4.837036133E-3
7.233740830E0,2.471923828E-3,7.278442383E-3,-3.768920898E-3
7.238776231E0,3.540039062E-3,6.256103516E-3,-2.716064453E-3
7.243811631E0,3.570556641E-3,8.361816406E-3,-2.777099609E-3
7.248847031E0,4.653930664E-3,8.255004883E-3,-4.852294922E-3
7.253882432E0,5.676269531E-3,6.225585938E-3,-4.852294922E-3
7.258917832E0,5.798339844E-3,6.286621094E-3,-4.852294922E-3
7.263953233E0,7.720947266E-3,7.202148438E-3,-4.684448242E-3
7.268988633E0,6.835937500E-3,6.317138672E-3,-2.609252930E-3
7.274024033E0,7.904052734E-3,7.186889648E-3,-1.739501953E-3
7.279059434E0,8.880615234E-3,5.981445312E-3,-2.822875977E-3
7.284094834E0,8.880615234E-3,4.348754883E-3,-3.646850586E-3
7.289130235E0,9.017944336E-3,6.225585938E-3,-2.853393555E-3
7.294165635E0,9.796142578E-3,6.362915039E-3,-3.784179688E-3
7.299201035E0,9.033203125E-3,7.125854492E-3,-3.784179688E-3
7.304236436E0,1.011657715E-2,6.042480469E-3,-3.417968750E-3
7.309271836E0,1.081848145E-2,5.157470703E-3,-1.831054688E-3
7.314307236E0,1.014709473E-2,5.355834961E-3,-2.716064453E-3
7.319342637E0,1.078796387E-2,5.996704102E-3,-2.273559570E-3
7.324378037E0,1.017761230E-2,5.157470703E-3,-8.087158203E-4
7.329413438E0,1.148986816E-2,4.669189453E-3,-1.403808594E-3
7.334448838E0,1.315307617E-2,2.517700195E-3,-5.798339844E-4
7.339484238E0,1.287841797E-2,1.144409180E-3,-8.392333984E-4
7.344519639E0,1.208496094E-2,2.777099609E-3,-1.358032227E-3
7.349555039E0,1.235961914E-2,4.867553711E-3,-5.798339844E-4
7.354590440E0,1.344299316E-2,3.784179688E-3,-5.798339844E-4
7.359625840E0,1.422119141E-2,1.754760742E-3,-2.593994141E-4
7.364661240E0,1.422119141E-2,-9.307861328E-4,8.239746094E-4
7.369696641E0,1.422119141E-2,4.882812500E-4,1.220703125E-3
7.374732041E0,1.422119141E-2,2.655029297E-3,4.882812500E-4
7.379767442E0,1.422119141E-2,3.356933594E-3,4.882812500E-4
7.384802842E0,1.495361328E-2,8.239746094E-4,4.882812500E-4
7.389838242E0,1.673889160E-2,-1.647949219E-3,8.850097656E-4
7.394873643E0,1.663208008E-2,-1.937866211E-3,1.174926758E-3
7.399909043E0,1.445007324E-2,-8.392333984E-4,4.882812500E-4
7.404944443E0,1.399230957E-2,2.288818359E-4,4.882812500E-4
7.409979844E0,1.571655273E-2,8.850097656E-4,4.882812500E-4
7.415015244E0,1.635742188E-2,4.272460938E-4,4.882812500E-4
7.420050645E0,1.635742188E-2,-1.113891602E-3,9.613037109E-4
7.425086045E0,1.728820801E-2,-2.319335938E-3,1.556396484E-3
7.430121445E0,1.896667480E-2,-1.846313477E-3,1.083374023E-3
7.435156846E0,1.905822754E-2,-7.629394531E-4,4.882812500E-4
7.440192246E0,1.849365234E-2,-7.019042969E-4,4.882812500E-4
7.445227647E0,1.795959473E-2,-2.838134766E-3,4.882812500E-4
7.450263047E0,1.742553711E-2,-4.455566406E-3,4.882812500E-4
7.455298447E0,1.742553711E-2,-3.906250000E-3,-6.103515625E-5
7.460333848E0,1.797485352E-2,-2.273559570E-3,-1.525878906E-5
7.465369248E0,1.849365234E-2,-2.410888672E-3,1.068115234E-3
7.470404649E0,1.849365234E-2,-4.562377930E-3,1.556396484E-3
7.475440049E0,1.849365234E-2,-5.523681641E-3,9.613037109E-4
7.480475449E0,1.849365234E-2,-6.134033203E-3,4.882812500E-4
7.485510850E0,1.849365234E-2,-6.591796875E-3,4.882812500E-4
7.490546250E0,1.785278320E-2,-7.232666016E-3,4.882812500E-4
7.495581651E0,1.676940918E-2,-7.659912109E-3,1.800537109E-3
7.500617051E0,1.568603516E-2,-7.003784180E-3,2.624511719E-3
7.505652451E0,1.528930664E-2,-7.263183594E-3,1.968383789E-3
7.510687852E0,1.664733887E-2,-7.659912109E-3,1.556396484E-3
7.515723252E0,1.742553711E-2,-7.659912109E-3,1.556396484E-3
7.520758652E0,1.742553711E-2,-6.958007812E-3,2.273559570E-3
7.525794053E0,1.742553711E-2,-7.324218750E-3,1.907348633E-3
7.530829453E0,1.815795898E-2,-6.927490234E-3,1.556396484E-3
7.535864854E0,1.774597168E-2,-6.591796875E-3,1.556396484E-3
7.540900254E0,1.742553711E-2,-8.117675781E-3,8.087158203E-4
7.545935654E0,1.742553711E-2,-8.728027344E-3,4.882812500E-4
7.550971055E0,1.899719238E-2,-7.949829102E-3,1.281738281E-3
7.556006455E0,1.875305176E-2,-7.659912109E-3,7.629394531E-4
7.561041856E0,1.849365234E-2,-7.659912109E-3,-3.051757812E-4
7.566077256E0,1.930236816E-2,-8.483886719E-3,2.441406250E-4
7.571112656E0,1.956176758E-2,-9.567260742E-3,1.327514648E-3
7.576148057E0,1.956176758E-2,-9.796142578E-3,-1.220703125E-4
7.581183457E0,1.956176758E-2,-9.796142578E-3,1.144409180E-3
7.586218858E0,1.867675781E-2,-1.068115234E-2,6.866455078E-4
7.591254258E0,1.760864258E-2,-1.086425781E-2,-3.814697266E-4
7.596289658E0,1.742553711E-2,-9.979248047E-3,3.204345703E-4
7.601325059E0,1.832580566E-2,-9.796142578E-3,-4.119873047E-4
7.606360459E0,1.849365234E-2,-1.072692871E-2,3.509521484E-4
7.611395860E0,1.756286621E-2,-9.948730469E-3,4.882812500E-4
7.616431260E0,1.835632324E-2,-8.865356445E-3,-4.425048828E-4
7.621466660E0,1.753234863E-2,-1.065063477E-2,3.814697266E-4
7.626502061E0,1.742553711E-2,-1.280212402E-2,-4.730224609E-4
7.631537461E0,1.644897461E-2,-1.300048828E-2,3.967285156E-4
7.636572861E0,1.635742188E-2,-1.300048828E-2,4.882812500E-4
7.641608262E0,1.734924316E-2,-1.100158691E-2,4.882812500E-4
7.646643662E0,1.742553711E-2,-1.188659668E-2,-5.187988281E-4
7.651679063E0,1.742553711E-2,-1.296997070E-2,-1.602172852E-3
7.656714463E0,1.742553711E-2,-1.196289062E-2,-5.950927734E-4
7.661749863E0,1.637268066E-2,-1.193237305E-2,-1.617431641E-3
7.666785264E0,1.741027832E-2,-1.193237305E-2,-2.700805664E-3
7.671820664E0,1.741027832E-2,-1.193237305E-2,-2.716064453E-3
7.676856065E0,1.531982422E-2,-1.089477539E-2,-3.753662109E-3
7.681891465E0,1.742553711E-2,-1.197814941E-2,-2.746582031E-3
7.686926865E0,1.745605469E-2,-1.300048828E-2,-3.814697266E-3
7.691962266E0,1.849365234E-2,-1.300048828E-2,-4.852294922E-3
7.696997666E0,1.843261719E-2,-1.300048828E-2,-4.791259766E-3
7.702033067E0,1.742553711E-2,-1.275634766E-2,-3.860473633E-3
7.707068467E0,1.742553711E-2,-9.902954102E-3,-4.745483398E-3
7.712103867E0,1.731872559E-2,-1.107788086E-2,-3.784179688E-3
7.717139268E0,1.646423340E-2,-1.277160645E-2,-3.662109375E-3
7.722174668E0,1.728820801E-2,-1.074218750E-2,-2.838134766E-3
7.727210068E0,1.635742188E-2,-9.796142578E-3,-3.784179688E-3
7.732245469E0,1.603698730E-2,-9.796142578E-3,-3.936767578E-3
7.737280869E0,1.422119141E-2,-9.979248047E-3,-4.852294922E-3
7.742316270E0,1.438903809E-2,-1.104736328E-2,-4.669189453E-3
7.747351670E0,1.547241211E-2,-1.231384277E-2,-3.585815430E-3
7.752387070E0,1.614379883E-2,-1.387023926E-2,-3.112792969E-3
7.757422471E0,1.550292969E-2,-1.322937012E-2,-5.279541016E-3
7.762457871E0,1.588439941E-2,-1.406860352E-2,-6.988525391E-3
7.767493272E0,1.445007324E-2,-1.383972168E-2,-7.217407227E-3
7.772528672E0,1.528930664E-2,-1.300048828E-2,-7.797241211E-3
7.777564072E0,1.528930664E-2,-1.300048828E-2,-6.988525391E-3
7.782599473E0,1.472473145E-2,-1.356506348E-2,-7.263183594E-3
7.787634873E0,1.315307617E-2,-1.486206055E-2,-7.766723633E-3
7.792670274E0,1.344299316E-2,-1.377868652E-2,-7.583618164E-3
7.797705674E0,1.422119141E-2,-1.364135742E-2,-8.483886719E-3
7.802741074E0,1.486206055E-2,-1.481628418E-2,-6.988525391E-3
7.807776475E0,1.602172852E-2,-1.440429688E-2,-7.644653320E-3
7.812811875E0,1.458740234E-2,-1.513671875E-2,-9.460449219E-3
7.817847276E0,1.387023926E-2,-1.513671875E-2,-1.054382324E-2
7.822882676E0,1.490783691E-2,-1.588439941E-2,-1.126098633E-2
7.827918076E0,1.460266113E-2,-1.651000977E-2,-1.126098633E-2
7.832953477E0,1.487731934E-2,-1.513671875E-2,-1.084899902E-2
7.837988877E0,1.380920410E-2,-1.473999023E-2,-1.058959961E-2
7.843024277E0,1.315307617E-2,-1.449584961E-2,-1.167297363E-2
7.848059678E0,1.315307617E-2,-1.513671875E-2,-1.145935059E-2
7.853095078E0,1.315307617E-2,-1.469421387E-2,-9.735107422E-3
7.858130479E0,1.361083984E-2,-1.499938965E-2,-9.582519531E-3
7.863165879E0,1.422119141E-2,-1.667785645E-2,-1.065063477E-2
7.868201279E0,1.469421387E-2,-1.727294922E-2,-1.222229004E-2
7.873236680E0,1.528930664E-2,-1.629638672E-2,-1.339721680E-2
7.878272080E0,1.477050781E-2,-1.513671875E-2,-1.287841797E-2
7.883307481E0,1.422119141E-2,-1.463317871E-2,-1.181030273E-2
7.888342881E0,1.422119141E-2,-1.513671875E-2,-1.126098633E-2
7.893378281E0,1.367187500E-2,-1.567077637E-2,-1.126098633E-2
7.898413682E0,1.315307617E-2,-1.570129395E-2,-1.126098633E-2
7.903449082E0,1.142883301E-2,-1.564025879E-2,-1.182556152E-2
7.908484483E0,1.052856445E-2,-1.573181152E-2,-1.232910156E-2
7.913519883E0,1.159667969E-2,-1.620483398E-2,-1.232910156E-2
7.918555283E0,1.208496094E-2,-1.560974121E-2,-1.232910156E-2
7.923590684E0,1.208496094E-2,-1.513671875E-2,-1.232910156E-2
7.928626084E0,1.208496094E-2,-1.640319824E-2,-1.232910156E-2
7.933661485E0,1.208496094E-2,-1.727294922E-2,-1.296997070E-2
7.938696885E0,1.272583008E-2,-1.597595215E-2,-1.403808594E-2
7.943732285E0,1.315307617E-2,-1.580810547E-2,-1.379394531E-2
7.948767686E0,1.315307617E-2,-1.620483398E-2,-1.406860352E-2
7.953803086E0,1.315307617E-2,-1.759338379E-2,-1.446533203E-2
7.958838486E0,1.245117188E-2,-1.765441895E-2,-1.446533203E-2
7.963873887E0,1.278686523E-2,-1.657104492E-2,-1.374816895E-2
7.968909287E0,1.387023926E-2,-1.475524902E-2,-1.411437988E-2
7.973944688E0,1.422119141E-2,-1.556396484E-2,-1.446533203E-2
7.978980088E0,1.345825195E-2,-1.545715332E-2,-1.446533203E-2
7.984015488E0,1.391601562E-2,-1.437377930E-2,-1.599121094E-2
7.989050889E0,1.499938965E-2,-1.486206055E-2,-1.502990723E-2
7.994086289E0,1.449584961E-2,-1.435852051E-2,-1.446533203E-2
7.999121690E0,1.501464844E-2,-1.487731934E-2,-1.446533203E-2
8.004157090E0,1.528930664E-2,-1.596069336E-2,-1.446533203E-2
8.009192490E0,1.445007324E-2,-1.538085938E-2,-1.446533203E-2
8.014227891E0,1.422119141E-2,-1.513671875E-2,-1.362609863E-2
8.019263291E0,1.506042480E-2,-1.513671875E-2,-1.423645020E-2
8.024298692E0,1.441955566E-2,-1.600646973E-2,-1.446533203E-2
8.029334092E0,1.509094238E-2,-1.533508301E-2,-1.358032227E-2
8.034369492E0,1.438903809E-2,-1.692199707E-2,-1.339721680E-2
8.039404893E0,1.332092285E-2,-1.638793945E-2,-1.339721680E-2
8.044440293E0,1.405334473E-2,-1.712036133E-2,-1.429748535E-2
8.049475693E0,1.422119141E-2,-1.820373535E-2,-1.538085938E-2
8.054511094E0,1.515197754E-2,-1.647949219E-2,-1.646423340E-2
8.059546494E0,1.432800293E-2,-1.620483398E-2,-1.469421387E-2
8.064581895E0,1.422119141E-2,-1.620483398E-2,-1.638793945E-2
8.069617295E0,1.518249512E-2,-1.426696777E-2,-1.562500000E-2
8.074652695E0,1.626586914E-2,-1.506042480E-2,-1.454162598E-2
8.079688096E0,1.535034180E-2,-1.513671875E-2,-1.446533203E-2
8.084723496E0,1.528930664E-2,-1.412963867E-2,-1.446533203E-2
8.089758897E0,1.426696777E-2,-1.611328125E-2,-1.344299316E-2
8.094794297E0,1.422119141E-2,-1.724243164E-2,-1.235961914E-2
8.099829697E0,1.525878906E-2,-1.623535156E-2,-1.336669922E-2
8.104865098E0,1.422119141E-2,-1.515197754E-2,-1.126098633E-2
8.109900498E0,1.635742188E-2,-1.406860352E-2,-1.232910156E-2
8.114935899E0,1.315307617E-2,-1.300048828E-2,-1.232910156E-2
8.119971299E0,1.423645020E-2,-1.306152344E-2,-1.339721680E-2
8.125006699E0,1.524353027E-2,-1.522827148E-2,-1.342773438E-2
8.130042100E0,1.416015625E-2,-1.722717285E-2,-1.435852051E-2
8.135077500E0,1.315307617E-2,-1.620483398E-2,-1.225280762E-2
8.140112901E0,1.322937012E-2,-1.629638672E-2,-1.126098633E-2
8.145148301E0,1.422119141E-2,-1.718139648E-2,-1.126098633E-2
8.150183701E0,1.422119141E-2,-1.620483398E-2,-1.135253906E-2
8.155219102E0,1.422119141E-2,-1.643371582E-2,-1.254272461E-2
8.160254502E0,1.446533203E-2,-1.847839355E-2,-1.432800293E-2
8.165289902E0,1.635742188E-2,-1.913452148E-2,-1.353454590E-2
8.170325303E0,1.620483398E-2,-1.698303223E-2,-1.446533203E-2
8.175360703E0,1.528930664E-2,-1.481628418E-2,-1.429748535E-2
8.180396104E0,1.492309570E-2,-1.300048828E-2,-1.339721680E-2
8.185431504E0,1.351928711E-2,-1.338195801E-2,-1.339721680E-2
8.190466904E0,1.528930664E-2,-1.513671875E-2,-1.339721680E-2
8.195502305E0,1.528930664E-2,-1.493835449E-2,-1.318359375E-2
8.200537705E0,1.528930664E-2,-1.362609863E-2,-1.232910156E-2
8.205573106E0,1.551818848E-2,-1.193237305E-2,-1.232910156E-2
8.210608506E0,1.635742188E-2,-1.243591309E-2,-1.232910156E-2
8.215643906E0,1.635742188E-2,-1.434326172E-2,-1.205444336E-2
8.220679307E0,1.635742188E-2,-1.487731934E-2,-1.152038574E-2
8.225714707E0,1.635742188E-2,-1.406860352E-2,-1.232910156E-2
8.230750108E0,1.664733887E-2,-1.348876953E-2,-1.232910156E-2
8.235785508E0,1.710510254E-2,-1.193237305E-2,-1.263427734E-2
8.240820908E0,1.635742188E-2,-1.258850098E-2,-1.274108887E-2
8.245856309E0,1.602172852E-2,-1.406860352E-2,-1.126098633E-2
8.250891709E0,1.528930664E-2,-1.373291016E-2,-1.126098633E-2
8.255927110E0,1.564025879E-2,-1.300048828E-2,-1.126098633E-2
8.260962510E0,1.635742188E-2,-1.300048828E-2,-1.051330566E-2
8.265997910E0,1.635742188E-2,-1.300048828E-2,-9.872436523E-3
8.271033311E0,1.596069336E-2,-1.379394531E-2,-1.126098633E-2
8.276068711E0,1.528930664E-2,-1.554870605E-2,-1.126098633E-2
8.281104111E0,1.528930664E-2,-1.579284668E-2,-1.083374023E-2
8.286139512E0,1.484680176E-2,-1.428222656E-2,-9.750366211E-3
8.291174912E0,1.464843750E-2,-1.300048828E-2,-9.124755859E-3
8.296210313E0,1.483154297E-2,-1.300048828E-2,-9.124755859E-3
8.301245713E0,1.513671875E-2,-1.438903809E-2,-9.124755859E-3
8.306281113E0,1.635742188E-2,-1.620483398E-2,-8.651733398E-3
8.311316514E0,1.585388184E-2,-1.571655273E-2,-8.056640625E-3
8.316351914E0,1.579284668E-2,-1.463317871E-2,-8.056640625E-3
8.321387315E0,1.583862305E-2,-1.356506348E-2,-8.560180664E-3
8.326422715E0,1.528930664E-2,-1.300048828E-2,-9.643554688E-3
8.331458115E0,1.473999023E-2,-1.300048828E-2,-9.109497070E-3
8.336493516E0,1.477050781E-2,-1.356506348E-2,-7.492065430E-3
8.341528916E0,1.640319824E-2,-1.406860352E-2,-7.537841797E-3
8.346564317E0,1.799011230E-2,-1.350402832E-2,-8.621215820E-3
8.351599717E0,1.789855957E-2,-1.124572754E-2,-8.529663086E-3
8.356635117E0,1.742553711E-2,-1.101684570E-2,-7.446289062E-3
8.361670518E0,1.742553711E-2,-1.255798340E-2,-6.988525391E-3
8.366705918E0,1.617431641E-2,-1.300048828E-2,-6.988525391E-3
8.371741318E0,1.464843750E-2,-1.110839844E-2,-6.988525391E-3
8.376776719E0,1.486206055E-2,-9.155273438E-3,-6.332397461E-3
8.381812119E0,1.528930664E-2,-1.005554199E-2,-6.576538086E-3
8.386847520E0,1.460266113E-2,-1.222229004E-2,-6.988525391E-3
8.391882920E0,1.489257812E-2,-1.164245605E-2,-6.988525391E-3
8.396918320E0,1.458740234E-2,-1.017761230E-2,-6.286621094E-3
8.401953721E0,1.562500000E-2,-8.392333984E-3,-5.203247070E-3
8.406989121E0,1.562500000E-2,-7.659912109E-3,-5.569458008E-3
8.412024522E0,1.454162598E-2,-7.659912109E-3,-5.920410156E-3
8.417059922E0,1.422119141E-2,-8.407592773E-3,-6.652832031E-3
8.422095322E0,1.496887207E-2,-8.728027344E-3,-5.462646484E-3
8.427130723E0,1.605224609E-2,-7.965087891E-3,-6.393432617E-3
8.432166123E0,1.556396484E-2,-8.453369141E-3,-6.195068359E-3
8.437201524E0,1.528930664E-2,-9.521484375E-3,-5.920410156E-3
8.442236924E0,1.608276367E-2,-8.193969727E-3,-5.920410156E-3
8.447272324E0,1.470947266E-2,-6.851196289E-3,-5.920410156E-3
8.452307725E0,1.422119141E-2,-6.591796875E-3,-5.920410156E-3
8.457343125E0,1.422119141E-2,-5.752563477E-3,-5.065917969E-3
8.462378526E0,1.422119141E-2,-7.247924805E-3,-4.852294922E-3
8.467413926E0,1.422119141E-2,-7.659912109E-3,-4.852294922E-3
8.472449326E0,1.422119141E-2,-5.905151367E-3,-3.967285156E-3
8.477484727E0,1.332092285E-2,-4.638671875E-3,-2.883911133E-3
8.482520127E0,1.133728027E-2,-4.455566406E-3,-2.716064453E-3
8.487555527E0,1.101684570E-2,-4.455566406E-3,-3.631591797E-3
8.492590928E0,1.193237305E-2,-3.540039062E-3,-4.699707031E-3
8.497626328E0,1.113891602E-2,-4.333496094E-3,-4.852294922E-3
8.502661729E0,1.101684570E-2,-5.416870117E-3,-3.890991211E-3
8.507697129E0,1.004028320E-2,-3.585815430E-3,-3.784179688E-3
8.512732529E0,1.092529297E-2,-3.387451172E-3,-2.792358398E-3
8.517767930E0,1.002502441E-2,-5.371093750E-3,-2.716064453E-3
8.522803330E0,1.094055176E-2,-3.524780273E-3,-1.708984375E-3
8.527838731E0,9.994506836E-3,-3.387451172E-3,-3.677368164E-3
8.532874131E0,8.911132812E-3,-1.342773438E-3,-3.784179688E-3
8.537909531E0,9.918212891E-3,-1.251220703E-3,-2.731323242E-3
8.542944932E0,9.948730469E-3,-2.304077148E-3,-1.663208008E-3
8.547980332E0,8.880615234E-3,-2.319335938E-3,-2.700805664E-3
8.553015733E0,6.744384766E-3,-2.319335938E-3,-3.768920898E-3
8.558051133E0,6.744384766E-3,-2.319335938E-3,-2.685546875E-3
8.563086533E0,6.774902344E-3,-2.258300781E-3,-1.602172852E-3
8.568121934E0,7.766723633E-3,-2.288818359E-4,-6.103515625E-4
8.573157334E0,6.744384766E-3,-1.251220703E-3,-1.586914062E-3
8.578192735E0,6.805419922E-3,-1.190185547E-3,-5.035400391E-4
8.583228135E0,7.720947266E-3,-1.068115234E-4,5.798339844E-4
8.588263535E0,6.637573242E-3,8.850097656E-4,1.663208008E-3
8.593298936E0,5.676269531E-3,7.781982422E-4,2.624511719E-3
8.598334336E0,5.676269531E-3,-3.051757812E-4,2.517700195E-3
8.603369736E0,5.676269531E-3,-1.251220703E-3,1.693725586E-3
8.608405137E0,5.416870117E-3,-1.129150391E-3,2.380371094E-3
8.613440537E0,3.387451172E-3,-4.577636719E-5,4.882812500E-4
8.618475938E0,2.304077148E-3,8.850097656E-4,6.561279297E-4
8.623511338E0,1.403808594E-3,7.019042969E-4,1.739501953E-3
8.628546738E0,1.022338867E-3,-3.814697266E-4,2.624511719E-3
8.633582139E0,-5.340576172E-4,-1.052856445E-3,2.624511719E-3
8.638617539E0,3.356933594E-4,2.441406250E-4,2.624511719E-3
8.643652940E0,3.356933594E-4,2.182006836E-3,2.624511719E-3
8.648688340E0,3.356933594E-4,3.021240234E-3,3.112792969E-3
8.653723740E0,7.629394531E-5,3.021240234E-3,4.516601562E-3
8.658759141E0,-4.730224609E-4,2.487182617E-3,3.692626953E-3
8.663794541E0,3.356933594E-4,5.950927734E-4,3.982543945E-3
8.668829942E0,4.577636719E-5,9.155273438E-5,4.760742188E-3
8.673865342E0,-1.037597656E-3,1.785278320E-3,4.760742188E-3
8.678900742E0,-2.120971680E-3,4.394531250E-3,5.401611328E-3
8.683936143E0,-2.868652344E-3,4.821777344E-3,6.576538086E-3
8.688971543E0,-2.532958984E-3,3.402709961E-3,5.828857422E-3
8.694006943E0,-1.800537109E-3,1.953125000E-3,6.179809570E-3
8.699042344E0,-2.166748047E-3,2.670288086E-3,6.896972656E-3
8.704077744E0,-3.250122070E-3,4.089355469E-3,7.278442383E-3
8.709113145E0,-3.936767578E-3,4.089355469E-3,7.965087891E-3
8.714148545E0,-4.348754883E-3,3.677368164E-3,7.568359375E-3
8.719183945E0,-5.004882812E-3,3.021240234E-3,7.324218750E-3
8.724219346E0,-4.592895508E-3,3.021240234E-3,7.553100586E-3
8.729254746E0,-4.821777344E-3,3.890991211E-3,7.339477539E-3
8.734290147E0,-6.973266602E-3,5.157470703E-3,7.522583008E-3
8.739325547E0,-7.751464844E-3,5.157470703E-3,7.827758789E-3
8.744360947E0,-7.141113281E-3,5.157470703E-3,9.033203125E-3
8.749396348E0,-7.629394531E-3,4.669189453E-3,9.033203125E-3
8.754431748E0,-9.704589844E-3,4.577636719E-3,8.041381836E-3
8.759467149E0,-1.091003418E-2,5.157470703E-3,6.896972656E-3
8.764502549E0,-1.087951660E-2,5.676269531E-3,7.431030273E-3
8.769537949E0,-1.141357422E-2,5.676269531E-3,8.514404297E-3
8.774573350E0,-1.086425781E-2,5.706787109E-3,9.597778320E-3
8.779608750E0,-1.034545898E-2,6.774902344E-3,9.552001953E-3
8.784644151E0,-9.780883789E-3,5.569458008E-3,9.613037109E-3
8.789679551E0,-1.045227051E-2,5.249023438E-3,1.127624512E-2
8.794714951E0,-1.202392578E-2,7.415771484E-3,1.223754883E-2
8.799750352E0,-1.248168945E-2,8.361816406E-3,1.284790039E-2
8.804785752E0,-1.435852051E-2,8.361816406E-3,1.144409180E-2
8.809821152E0,-1.443481445E-2,8.361816406E-3,1.074218750E-2
8.814856553E0,-1.420593262E-2,8.361816406E-3,1.116943359E-2
8.819891953E0,-1.461791992E-2,7.049560547E-3,1.182556152E-2
8.824927354E0,-1.528930664E-2,6.881713867E-3,1.223754883E-2
8.829962754E0,-1.568603516E-2,8.651733398E-3,1.156616211E-2
8.834998154E0,-1.568603516E-2,8.026123047E-3,1.116943359E-2
8.840033555E0,-1.568603516E-2,7.293701172E-3,1.258850098E-2
8.845068955E0,-1.641845703E-2,8.010864258E-3,1.258850098E-2
8.850104356E0,-1.602172852E-2,8.361816406E-3,1.298522949E-2
8.855139756E0,-1.495361328E-2,8.361816406E-3,1.405334473E-2
8.860175156E0,-1.538085938E-2,9.872436523E-3,1.362609863E-2
8.865210557E0,-1.568603516E-2,1.126098633E-2,1.330566406E-2
8.870245957E0,-1.568603516E-2,1.077270508E-2,1.330566406E-2
8.875281358E0,-1.647949219E-2,8.911132812E-3,1.489257812E-2
8.880316758E0,-1.756286621E-2,9.155273438E-3,1.544189453E-2
8.885352158E0,-1.864624023E-2,9.429931641E-3,1.544189453E-2
8.890387559E0,-1.972961426E-2,1.025390625E-2,1.377868652E-2
8.895422959E0,-1.911926270E-2,8.804321289E-3,1.330566406E-2
8.900458360E0,-1.974487305E-2,6.652832031E-3,1.416015625E-2
8.905493760E0,-1.995849609E-2,7.949829102E-3,1.524353027E-2
8.910529160E0,-1.995849609E-2,8.361816406E-3,1.544189453E-2
8.915564561E0,-2.085876465E-2,7.461547852E-3,1.544189453E-2
8.920599961E0,-2.102661133E-2,9.094238281E-3,1.544189453E-2
8.925635361E0,-2.195739746E-2,7.583618164E-3,1.637268066E-2
8.930670762E0,-2.209472656E-2,7.293701172E-3,1.651000977E-2
8.935706162E0,-2.209472656E-2,6.347656250E-3,1.651000977E-2
8.940741563E0,-2.209472656E-2,6.225585938E-3,1.651000977E-2
8.945776963E0,-2.307128906E-2,8.148193359E-3,1.554870605E-2
8.950812363E0,-2.316284180E-2,9.323120117E-3,1.641845703E-2
8.955847764E0,-2.316284180E-2,8.438110352E-3,1.651000977E-2
8.960883164E0,-2.316284180E-2,5.340576172E-3,1.651000977E-2
8.965918565E0,-2.316284180E-2,5.157470703E-3,1.651000977E-2
8.970953965E0,-2.316284180E-2,7.202148438E-3,1.651000977E-2
8.975989365E0,-2.316284180E-2,8.331298828E-3,1.756286621E-2
8.981024766E0,-2.528381348E-2,9.414672852E-3,1.652526855E-2
8.986060166E0,-2.209472656E-2,9.429931641E-3,1.757812500E-2
8.991095567E0,-2.423095703E-2,7.278442383E-3,1.757812500E-2
8.996130967E0,-2.421569824E-2,6.225585938E-3,1.757812500E-2
9.001166367E0,-2.316284180E-2,6.286621094E-3,1.762390137E-2
9.006201768E0,-2.322387695E-2,8.407592773E-3,1.860046387E-2
9.011237168E0,-2.429199219E-2,9.368896484E-3,1.757812500E-2
9.016272568E0,-2.523803711E-2,8.285522461E-3,1.757812500E-2
9.021307969E0,-2.423095703E-2,7.202148438E-3,1.766967773E-2
9.026343369E0,-2.413940430E-2,6.408691406E-3,1.846313477E-2
9.031378770E0,-2.326965332E-2,8.560180664E-3,1.661682129E-2
9.036414170E0,-2.423095703E-2,1.037597656E-2,1.747131348E-2
9.041449570E0,-2.450561523E-2,9.429931641E-3,1.651000977E-2
9.046484971E0,-2.609252930E-2,9.429931641E-3,1.651000977E-2
9.051520371E0,-2.455139160E-2,9.582519531E-3,1.651000977E-2
9.056555772E0,-2.603149414E-2,1.049804688E-2,1.669311523E-2
9.061591172E0,-2.423095703E-2,1.049804688E-2,1.757812500E-2
9.066626572E0,-2.442932129E-2,1.049804688E-2,1.777648926E-2
9.071661973E0,-2.551269531E-2,1.069641113E-2,1.864624023E-2
9.076697373E0,-2.636718750E-2,1.156616211E-2,1.864624023E-2
9.081732774E0,-2.613830566E-2,1.132202148E-2,1.841735840E-2
9.086768174E0,-2.507019043E-2,1.049804688E-2,1.782226562E-2
9.091803574E0,-2.423095703E-2,1.100158691E-2,1.890563965E-2
9.096838975E0,-2.476501465E-2,1.289367676E-2,1.945495605E-2
9.101874375E0,-2.665710449E-2,1.341247559E-2,1.809692383E-2
9.106909776E0,-2.743530273E-2,1.263427734E-2,1.651000977E-2
9.111945176E0,-2.684020996E-2,1.263427734E-2,1.681518555E-2
9.116980576E0,-2.499389648E-2,1.263427734E-2,1.757812500E-2
9.122015977E0,-2.423095703E-2,1.295471191E-2,1.823425293E-2
9.127051377E0,-2.458190918E-2,1.370239258E-2,1.971435547E-2
9.132086777E0,-2.529907227E-2,1.370239258E-2,1.971435547E-2
9.137122178E0,-2.529907227E-2,1.370239258E-2,1.936340332E-2
9.142157578E0,-2.604675293E-2,1.332092285E-2,1.864624023E-2
9.147192979E0,-2.743530273E-2,1.263427734E-2,1.864624023E-2
9.152228379E0,-2.743530273E-2,1.342773438E-2,1.864624023E-2
9.157263779E0,-2.786254883E-2,1.518249512E-2,1.823425293E-2
9.162299180E0,-2.809143066E-2,1.583862305E-2,1.800537109E-2
9.167334580E0,-2.787780762E-2,1.539611816E-2,1.821899414E-2
9.172369981E0,-2.761840820E-2,1.431274414E-2,1.713562012E-2
9.177405381E0,-2.636718750E-2,1.322937012E-2,1.651000977E-2
9.182440781E0,-2.684020996E-2,1.356506348E-2,1.698303223E-2
9.187476182E0,-2.792358398E-2,1.477050781E-2,1.757812500E-2
9.192511582E0,-2.751159668E-2,1.477050781E-2,1.808166504E-2
9.197546983E0,-2.688598633E-2,1.577758789E-2,1.864624023E-2
9.202582383E0,-2.796936035E-2,1.585388184E-2,1.864624023E-2
9.207617783E0,-2.850341797E-2,1.423645020E-2,1.812744141E-2
9.212653184E0,-2.743530273E-2,1.370239258E-2,1.757812500E-2
9.217688584E0,-2.693176270E-2,1.425170898E-2,1.757812500E-2
9.222723985E0,-2.801513672E-2,1.589965820E-2,1.701354980E-2
9.227759385E0,-2.792358398E-2,1.631164551E-2,1.768493652E-2
9.232794785E0,-2.743530273E-2,1.463317871E-2,1.805114746E-2
9.237830186E0,-2.865600586E-2,1.370239258E-2,1.757812500E-2
9.242865586E0,-2.957153320E-2,1.492309570E-2,1.881408691E-2
9.247900986E0,-2.957153320E-2,1.519775391E-2,1.971435547E-2
9.252936387E0,-2.957153320E-2,1.541137695E-2,1.907348633E-2
9.257971787E0,-2.957153320E-2,1.583862305E-2,1.800537109E-2
9.263007188E0,-3.091430664E-2,1.516723633E-2,1.824951172E-2
9.268042588E0,-3.103637695E-2,1.408386230E-2,1.864624023E-2
9.273077988E0,-3.063964844E-2,1.438903809E-2,1.795959473E-2
9.278113389E0,-3.063964844E-2,1.547241211E-2,1.829528809E-2
9.283148789E0,-3.063964844E-2,1.583862305E-2,1.794433594E-2
9.288184190E0,-3.063964844E-2,1.583862305E-2,1.686096191E-2
9.293219590E0,-3.063964844E-2,1.583862305E-2,1.725769043E-2
9.298254990E0,-3.140258789E-2,1.583862305E-2,1.908874512E-2
9.303290391E0,-3.018188477E-2,1.583862305E-2,1.895141602E-2
9.308325791E0,-3.114318848E-2,1.504516602E-2,1.708984375E-2
9.313361192E0,-3.170776367E-2,1.477050781E-2,1.493835449E-2
9.318396592E0,-3.091430664E-2,1.477050781E-2,1.678466797E-2
9.323431992E0,-3.146362305E-2,1.477050781E-2,1.757812500E-2
9.328467393E0,-3.254699707E-2,1.477050781E-2,1.757812500E-2
9.333502793E0,-3.277587891E-2,1.643371582E-2,1.675415039E-2
9.338538193E0,-3.277587891E-2,1.860046387E-2,1.651000977E-2
9.343573594E0,-3.364562988E-2,1.817321777E-2,1.565551758E-2
9.348608994E0,-3.297424316E-2,1.620483398E-2,1.721191406E-2
9.353644395E0,-3.277587891E-2,1.493835449E-2,1.847839355E-2
9.358679795E0,-3.367614746E-2,1.565551758E-2,1.776123047E-2
9.363715195E0,-3.567504883E-2,1.856994629E-2,1.849365234E-2
9.368750596E0,-3.598022461E-2,1.995849609E-2,1.957702637E-2
9.373785996E0,-3.598022461E-2,1.916503906E-2,1.971435547E-2
9.378821397E0,-3.694152832E-2,1.904296875E-2,2.067565918E-2
9.383856797E0,-3.704833984E-2,1.806640625E-2,1.982116699E-2
9.388892197E0,-3.802490234E-2,1.602172852E-2,1.971435547E-2
9.393927598E0,-3.910827637E-2,1.878356934E-2,1.971435547E-2
9.398962998E0,-3.918457031E-2,1.904296875E-2,1.872253418E-2
9.403998399E0,-4.020690918E-2,1.904296875E-2,1.864624023E-2
9.409033799E0,-4.025268555E-2,1.597595215E-2,1.966857910E-2
9.414069199E0,-4.025268555E-2,1.583862305E-2,1.971435547E-2
9.419104600E0,-4.235839844E-2,1.687622070E-2,1.867675781E-2
9.424140000E0,-4.345703125E-2,1.902770996E-2,1.864624023E-2
9.429175401E0,-4.452514648E-2,1.689147949E-2,1.971435547E-2
9.434210801E0,-4.345703125E-2,1.477050781E-2,1.969909668E-2
9.439246201E0,-4.348754883E-2,1.486206055E-2,1.864624023E-2
9.444281602E0,-4.457092285E-2,1.914978027E-2,1.869201660E-2
9.449317002E0,-4.559326172E-2,2.207946777E-2,1.962280273E-2
9.454352402E0,-4.566955566E-2,1.870727539E-2,1.765441895E-2
9.459387803E0,-4.658508301E-2,1.377868652E-2,1.873779297E-2
9.464423203E0,-4.570007324E-2,1.504516602E-2,1.962280273E-2
9.469458604E0,-4.646301270E-2,1.838684082E-2,1.864624023E-2
9.474494004E0,-4.489135742E-2,2.212524414E-2,1.853942871E-2
9.479529404E0,-4.786682129E-2,2.104187012E-2,1.757812500E-2
9.484564805E0,-4.852294922E-2,1.968383789E-2,1.757812500E-2
9.489600205E0,-4.681396484E-2,1.704406738E-2,1.757812500E-2
9.494635606E0,-4.772949219E-2,1.878356934E-2,1.757812500E-2
9.499671006E0,-4.809570312E-2,2.401733398E-2,1.757812500E-2
9.504706406E0,-4.986572266E-2,2.738952637E-2,1.777648926E-2
9.509741807E0,-4.986572266E-2,2.590942383E-2,1.864624023E-2
9.514777207E0,-4.986572266E-2,2.267456055E-2,1.823425293E-2
9.519812608E0,-4.986572266E-2,2.076721191E-2,1.651000977E-2
9.524848008E0,-5.035400391E-2,2.427673340E-2,1.651000977E-2
9.529883408E0,-5.175781250E-2,2.732849121E-2,1.651000977E-2
9.534918809E0,-5.120849609E-2,2.572631836E-2,1.651000977E-2
9.539954209E0,-5.200195312E-2,2.302551270E-2,1.679992676E-2
9.544989610E0,-5.229187012E-2,2.310180664E-2,1.730346680E-2
9.550025010E0,-5.337524414E-2,2.635192871E-2,1.651000977E-2
9.555060410E0,-5.413818359E-2,2.801513672E-2,1.651000977E-2
9.560095811E0,-5.447387695E-2,2.651977539E-2,1.586914062E-2
9.565131211E0,-5.554199219E-2,2.618408203E-2,1.437377930E-2
9.570166611E0,-5.662536621E-2,2.613830566E-2,1.368713379E-2
9.575202012E0,-5.734252930E-2,2.758789062E-2,1.332092285E-2
9.580237412E0,-5.734252930E-2,2.720642090E-2,1.507568359E-2
9.585272813E0,-5.734252930E-2,2.651977539E-2,1.477050781E-2
9.590308213E0,-5.734252930E-2,2.691650391E-2,1.585388184E-2
9.595343613E0,-5.818176270E-2,2.799987793E-2,1.651000977E-2
9.600369500E0,-5.906677246E-2,2.780151367E-2,1.736450195E-2
9.605404900E0,-5.841064453E-2,2.651977539E-2,1.821899414E-2
9.610440301E0,-5.841064453E-2,2.696228027E-2,1.757812500E-2
9.615475701E0,-5.934143066E-2,2.989196777E-2,1.757812500E-2
9.620511101E0,-6.008911133E-2,3.385925293E-2,1.712036133E-2
9.625546502E0,-5.947875977E-2,3.553771973E-2,1.651000977E-2
9.630581902E0,-5.998229980E-2,3.314208984E-2,1.602172852E-2
9.635617303E0,-6.004333496E-2,2.818298340E-2,1.596069336E-2
9.640652703E0,-5.895996094E-2,2.546691895E-2,1.651000977E-2
9.645688103E0,-5.949401855E-2,2.651977539E-2,1.544189453E-2
9.650723504E0,-6.109619141E-2,3.138732910E-2,1.383972168E-2
9.655758904E0,-6.217956543E-2,3.511047363E-2,1.330566406E-2
9.660794304E0,-6.326293945E-2,3.555297852E-2,1.388549805E-2
9.665829705E0,-6.317138672E-2,3.097534180E-2,1.379394531E-2
9.670865105E0,-6.268310547E-2,2.400207520E-2,1.330566406E-2
9.675900506E0,-6.329345703E-2,2.238464355E-2,1.271057129E-2
9.680935906E0,-6.437683105E-2,2.766418457E-2,1.037597656E-2
9.685971306E0,-6.546020508E-2,3.205871582E-2,9.674072266E-3
9.691006707E0,-6.588745117E-2,3.099060059E-2,1.010131836E-2
9.696042107E0,-6.523132324E-2,2.708435059E-2,1.010131836E-2
9.701077508E0,-6.414794922E-2,2.342224121E-2,1.078796387E-2
9.706112908E0,-6.307983398E-2,2.360534668E-2,1.049804688E-2
9.711148308E0,-6.408691406E-2,2.716064453E-2,1.010131836E-2
9.716183709E0,-6.553649902E-2,3.077697754E-2,9.399414062E-3
9.721219109E0,-6.517028809E-2,3.257751465E-2,1.119995117E-2
9.726254510E0,-6.335449219E-2,3.218078613E-2,1.298522949E-2
9.731289910E0,-6.195068359E-2,2.961730957E-2,1.182556152E-2
9.736325310E0,-6.086730957E-2,2.940368652E-2,1.042175293E-2
9.741360711E0,-6.132507324E-2,3.125000000E-2,1.087951660E-2
9.746396111E0,-6.161499023E-2,3.497314453E-2,1.116943359E-2
9.751431512E0,-6.161499023E-2,3.929138184E-2,1.196289062E-2
9.756466912E0,-6.082153320E-2,3.959655762E-2,1.063537598E-2
9.761502312E0,-6.054687500E-2,3.686523438E-2,1.174926758E-2
9.766537713E0,-6.054687500E-2,3.445434570E-2,1.223754883E-2
9.771573113E0,-6.140136719E-2,3.399658203E-2,1.139831543E-2
9.776608513E0,-6.077575684E-2,3.569030762E-2,1.202392578E-2
9.781643914E0,-6.054687500E-2,3.872680664E-2,1.051330566E-2
9.786679314E0,-6.143188477E-2,4.196166992E-2,9.231567383E-3
9.791714715E0,-6.161499023E-2,4.254150391E-2,9.033203125E-3
9.796750115E0,-5.981445312E-2,3.890991211E-2,1.084899902E-2
9.801785515E0,-5.856323242E-2,3.550720215E-2,1.116943359E-2
9.806820916E0,-5.841064453E-2,3.413391113E-2,9.323120117E-3
9.811856316E0,-6.028747559E-2,3.773498535E-2,8.102416992E-3
9.816891717E0,-6.150817871E-2,4.016113281E-2,8.926391602E-3
9.821927117E0,-6.066894531E-2,3.849792480E-2,9.033203125E-3
9.826962517E0,-5.958557129E-2,3.338623047E-2,7.095336914E-3
9.831997918E0,-6.047058105E-2,2.995300293E-2,6.896972656E-3
9.837033318E0,-6.256103516E-2,3.071594238E-2,5.905151367E-3
9.842068719E0,-6.370544434E-2,3.382873535E-2,5.828857422E-3
9.847104119E0,-6.170654297E-2,3.193664551E-2,6.866455078E-3
9.852139519E0,-6.161499023E-2,2.874755859E-2,5.874633789E-3
9.857174920E0,-5.952453613E-2,2.655029297E-2,5.828857422E-3
9.862210320E0,-5.947875977E-2,2.651977539E-2,5.828857422E-3
9.867245721E0,-6.054687500E-2,2.651977539E-2,3.692626953E-3
9.872281121E0,-5.947875977E-2,2.755737305E-2,3.723144531E-3
9.877316521E0,-5.944824219E-2,2.655029297E-2,4.699707031E-3
9.882351922E0,-5.833435059E-2,2.754211426E-2,2.624511719E-3
9.887387322E0,-5.627441406E-2,2.651977539E-2,2.685546875E-3
9.892422722E0,-5.627441406E-2,2.664184570E-2,3.631591797E-3
9.897458123E0,-5.627441406E-2,2.880859375E-2,2.716064453E-3
9.902493523E0,-5.599975586E-2,3.068542480E-2,3.601074219E-3
9.907528924E0,-5.287170410E-2,2.961730957E-2,2.624511719E-3
9.912564324E0,-5.082702637E-2,2.853393555E-2,2.624511719E-3
9.917599724E0,-4.974365234E-2,2.770996094E-2,2.365112305E-3
9.922635125E0,-4.879760742E-2,2.893066406E-2,6.408691406E-4
9.927670525E0,-4.879760742E-2,3.092956543E-2,1.556396484E-3
9.932705926E0,-4.879760742E-2,3.152465820E-2,1.724243164E-3
9.937741326E0,-4.862976074E-2,2.935791016E-2,2.456665039E-3
9.942776726E0,-4.792785645E-2,2.738952637E-2,1.556396484E-3
9.947812127E0,-4.879760742E-2,2.651977539E-2,1.770019531E-3
9.952847527E0,-4.879760742E-2,2.651977539E-2,2.410888672E-3
9.957882928E0,-4.879760742E-2,2.651977539E-2,1.556396484E-3
9.962918328E0,-4.832458496E-2,2.651977539E-2,2.044677734E-3
9.967953728E0,-4.692077637E-2,2.626037598E-2,3.692626953E-3
9.972989129E0,-4.721069336E-2,2.491760254E-2,3.433227539E-3
9.978024529E0,-4.531860352E-2,2.275085449E-2,2.349853516E-3
9.983059929E0,-4.481506348E-2,2.117919922E-2,1.846313477E-3
9.988095330E0,-4.530334473E-2,2.087402344E-2,2.334594727E-3
9.993130730E0,-4.421997070E-2,1.979064941E-2,1.251220703E-3
9.998166131E0,-4.345703125E-2,1.904296875E-2,1.678466797E-4
1.000320153E1,-4.345703125E-2,1.937866211E-2,-5.798339844E-4
1.000823693E1,-4.345703125E-2,2.011108398E-2,-1.266479492E-3
1.001327233E1,-4.310607910E-2,2.011108398E-2,-2.716064453E-3
1.001830773E1,-4.165649414E-2,1.936340332E-2,-1.968383789E-3
1.002334313E1,-4.025268555E-2,1.757812500E-2,-1.831054688E-4
1.002837853E1,-3.985595703E-2,1.690673828E-2,9.155273438E-5
1.003341393E1,-3.877258301E-2,1.773071289E-2,-5.798339844E-4
1.003844933E1,-3.770446777E-2,1.945495605E-2,-9.918212891E-4
1.004348473E1,-3.704833984E-2,1.922607422E-2,-1.205444336E-3
1.004852014E1,-3.660583496E-2,1.661682129E-2,-1.220703125E-4
1.005355554E1,-3.552246094E-2,1.429748535E-2,4.882812500E-4
1.005859094E1,-3.538513184E-2,1.416015625E-2,9.613037109E-4
1.006362634E1,-3.501892090E-2,1.573181152E-2,2.044677734E-3
1.006866174E1,-3.434753418E-2,1.640319824E-2,2.136230469E-3
1.007369714E1,-3.440856934E-2,1.429748535E-2,1.556396484E-3
1.007873254E1,-3.280639648E-2,1.104736328E-2,2.090454102E-3
1.008376794E1,-3.225708008E-2,8.880615234E-3,1.556396484E-3
1.008880334E1,-3.277587891E-2,8.911132812E-3,4.882812500E-4
1.009383874E1,-3.334045410E-2,1.054382324E-2,-6.103515625E-5
1.009887414E1,-3.327941895E-2,1.156616211E-2,-1.144409180E-3
1.010390954E1,-3.219604492E-2,9.231567383E-3,-1.647949219E-3
1.010894494E1,-2.992248535E-2,6.683349609E-3,-1.647949219E-3
1.011398034E1,-2.790832520E-2,5.615234375E-3,-1.647949219E-3
1.011901574E1,-2.806091309E-2,5.767822266E-3,-1.647949219E-3
1.012405114E1,-2.912902832E-2,7.461547852E-3,-2.883911133E-3
1.012908654E1,-2.830505371E-2,8.987426758E-3,-3.143310547E-3
1.013412194E1,-2.743530273E-2,6.149291992E-3,-2.059936523E-3
1.013915734E1,-2.677917480E-2,3.417968750E-3,-2.304077148E-3
1.014419274E1,-2.569580078E-2,3.021240234E-3,-3.387451172E-3
1.014922814E1,-2.461242676E-2,5.096435547E-3,-4.470825195E-3
1.015426354E1,-2.282714844E-2,5.508422852E-3,-3.433227539E-3
1.015929894E1,-2.209472656E-2,5.157470703E-3,-3.433227539E-3
1.016433434E1,-2.284240723E-2,5.889892578E-3,-4.516601562E-3
1.016936974E1,-2.316284180E-2,6.225585938E-3,-3.356933594E-3
1.017440514E1,-2.241516113E-2,5.462646484E-3,-2.716064453E-3
1.017944054E1,-2.133178711E-2,5.920410156E-3,-3.479003906E-3
1.018447594E1,-2.102661133E-2,8.560180664E-3,-4.562377930E-3
1.018951135E1,-2.024841309E-2,9.429931641E-3,-4.852294922E-3
1.019454675E1,-1.835632324E-2,7.003784180E-3,-4.852294922E-3
1.019958215E1,-1.782226562E-2,3.753662109E-3,-4.852294922E-3
1.020461755E1,-1.615905762E-2,2.182006836E-3,-5.676269531E-3
1.020965295E1,-1.484680176E-2,2.792358398E-3,-6.759643555E-3
1.021468835E1,-1.461791992E-2,3.860473633E-3,-6.134033203E-3
1.021972375E1,-1.376342773E-2,4.943847656E-3,-6.774902344E-3
1.022475915E1,-1.354980469E-2,4.272460938E-3,-5.218505859E-3
1.022979455E1,-1.445007324E-2,3.189086914E-3,-6.622314453E-3
1.023482995E1,-1.281738281E-2,3.051757812E-4,-6.988525391E-3
1.023986535E1,-9.735107422E-3,-1.113891602E-3,-7.904052734E-3
1.024490075E1,-9.277343750E-3,-3.356933594E-4,-6.195068359E-3
1.024993615E1,-8.346557617E-3,7.476806641E-4,-7.797241211E-3
1.025497155E1,-9.170532227E-3,8.850097656E-4,-8.056640625E-3
1.026000695E1,-6.393432617E-3,2.807617188E-3,-8.056640625E-3
1.026504235E1,-6.072998047E-3,3.021240234E-3,-8.056640625E-3
1.027007775E1,-5.096435547E-3,1.037597656E-3,-9.033203125E-3
1.027511315E1,-4.013061523E-3,-1.129150391E-3,-8.117675781E-3
1.028014855E1,-3.936767578E-3,-1.251220703E-3,-8.056640625E-3
1.028518395E1,-2.914428711E-3,1.831054688E-3,-8.056640625E-3
1.029021935E1,-2.868652344E-3,1.953125000E-3,-1.013183594E-2
1.029525475E1,-1.815795898E-3,-3.326416016E-3,-7.019042969E-3
1.030029015E1,-2.868652344E-3,-4.455566406E-3,-6.988525391E-3
1.030532555E1,-2.868652344E-3,-4.440307617E-3,-6.988525391E-3
1.031036096E1,-2.899169922E-3,-1.251220703E-3,-8.071899414E-3
1.031539636E1,-3.875732422E-3,-1.358032227E-3,-9.124755859E-3
1.032043176E1,-1.800537109E-3,-4.562377930E-3,-9.017944336E-3
1.032546716E1,-1.922607422E-3,-6.591796875E-3,-6.927490234E-3
1.033050256E1,-3.875732422E-3,-6.454467773E-3,-5.844116211E-3
1.033553796E1,-2.792358398E-3,-4.226684570E-3,-4.928588867E-3
1.034057336E1,-1.708984375E-3,-1.449584961E-3,-5.813598633E-3
1.034560876E1,-6.408691406E-4,-3.707885742E-3,-4.943847656E-3
