"Time (s)";"Linear Acceleration x (m/s^2)";"Linear Acceleration y (m/s^2)";"Linear Acceleration z (m/s^2)"
1.441400100E-2;-5.917489529E-3;-1.064333133E-2;6.166267395E-2
3.245318600E-2;8.758068085E-3;3.076778539E-2;-8.413600922E-2
5.049273600E-2;8.109807968E-3;-8.026550524E-3;4.951095581E-2
6.852154500E-2;4.410445690E-3;1.037060190E-2;-4.046821594E-2
8.656854300E-2;-3.830611706E-3;-1.157946605E-2;1.111698151E-2
1.046129140E-1;-1.073408127E-2;1.050435007E-3;-2.398872375E-2
1.226494750E-1;1.603227854E-2;4.122705664E-3;6.305694580E-3
1.406918940E-1;-1.226186752E-3;1.999591244E-3;-6.801605225E-3
1.587248530E-1;4.683911800E-3;4.335600417E-3;5.496978760E-3
1.767688590E-1;6.810843945E-3;1.963956747E-3;-9.890556335E-3
1.948079840E-1;8.767366409E-3;-2.033965196E-3;-6.509780884E-3
2.128325190E-1;2.003967762E-3;8.578787558E-3;-1.055240631E-2
2.308884890E-1;-3.475904465E-3;-1.696126652E-3;5.586624146E-3
2.489218750E-1;7.855415344E-3;3.643080359E-3;-1.406669617E-2
2.669663690E-1;4.490196705E-3;-2.454973524E-3;-2.412796021E-3
2.850039670E-1;-9.376406670E-4;3.317767056E-3;-7.616043091E-3
3.030332030E-1;2.436995506E-3;-2.103014616E-3;2.652168274E-3
3.210864860E-1;-1.381635666E-3;-9.636877803E-4;-2.308845520E-3
3.391187130E-1;2.696514130E-4;2.804232296E-3;-7.612228394E-3
3.571533810E-1;3.377676010E-3;9.285146371E-5;-6.144523621E-3
3.752016600E-1;3.064036369E-3;2.492373344E-3;-8.173942566E-3
3.932424920E-1;-1.822829247E-3;-1.011926215E-3;-5.564689636E-3
4.112825320E-1;8.835196495E-4;2.714181785E-3;-1.117706299E-3
4.293159790E-1;1.186877489E-2;-4.968180787E-3;-9.205818176E-3
4.473500980E-1;-3.195106983E-3;-1.018536510E-3;6.618499756E-4
4.653970950E-1;7.482171059E-3;9.748592973E-3;-4.248619080E-3
4.834399410E-1;4.539072514E-3;1.435540733E-3;-6.767272949E-3
5.014802860E-1;5.023956299E-3;7.319508586E-4;-1.005554199E-2
5.195047000E-1;1.716673374E-3;1.841583638E-3;1.156806946E-3
5.375565800E-1;5.901694298E-3;3.178094048E-4;-7.707595825E-3
5.555969850E-1;8.107364178E-3;6.008880213E-3;-1.129531860E-2
5.736370850E-1;-7.472038269E-4;9.818002582E-5;-2.604484558E-3
5.916774290E-1;7.230997086E-3;3.220014507E-3;1.627922058E-3
6.097085570E-1;-2.502441406E-3;2.447196515E-3;-6.055831909E-4
6.277539670E-1;-2.214133739E-3;1.160767046E-3;-5.005836487E-3
6.457917480E-1;9.080886841E-3;-8.635653066E-4;-2.736091614E-3
6.638291630E-1;1.140058041E-3;3.382432973E-3;-6.923675537E-3
6.818692020E-1;7.264673710E-3;4.731125664E-4;-1.110935211E-2
6.999057010E-1;5.329132080E-3;-7.187133655E-3;-5.401611328E-3
7.179509890E-1;7.690608501E-3;2.518514171E-3;1.544952393E-4
7.359924920E-1;4.900753498E-3;-7.890593261E-4;-5.929946899E-3
7.540305790E-1;4.521310329E-3;-4.759171978E-3;-3.923416138E-3
7.720733030E-1;1.045656204E-2;6.414187141E-3;-1.780509949E-3
7.901065060E-1;6.476104259E-3;6.048023701E-3;-4.433631897E-3
8.081481930E-1;4.640221596E-3;8.873634040E-3;-9.553909302E-3
8.261895140E-1;4.460811615E-3;-6.564748473E-4;-8.534431458E-3
8.442281500E-1;3.679633141E-3;3.694735235E-3;-4.942893982E-3
8.622694700E-1;1.103442907E-2;8.406258188E-3;-3.793716431E-3
8.803085320E-1;8.394479752E-3;3.380735638E-3;-6.522178650E-3
8.983414310E-1;9.912371635E-3;-1.997388899E-4;-1.111030579E-3
9.163751220E-1;4.464745522E-3;-2.809969475E-3;-4.992485046E-3
9.344234000E-1;6.932735443E-3;-7.988248253E-4;-4.460334778E-3
9.524690550E-1;2.337098122E-3;-8.434227202E-4;-1.472473145E-3
9.705053100E-1;7.351636887E-4;2.175909234E-3;-7.342338562E-3
9.885404060E-1;2.866446972E-3;8.911073674E-4;-5.991935730E-3
1.006584228E0;9.874939919E-3;2.585693728E-4;-1.096343994E-2
1.024623230E0;8.298277855E-3;1.242606202E-3;4.507064819E-3
1.042662049E0;5.144476891E-3;-3.244526219E-3;-1.346015930E-2
1.060705077E0;8.898615837E-3;3.538255347E-3;-6.258010864E-3
1.078737610E0;1.143950224E-2;6.846964359E-3;-5.803108215E-3
1.096781982E0;-9.518861771E-5;6.258335896E-3;1.074790955E-3
1.114823548E0;3.508090973E-3;3.119537141E-3;1.180648804E-3
1.132857483E0;8.301138878E-3;2.720996272E-3;4.134178162E-3
1.150889709E0;2.679526806E-3;-3.239603247E-4;1.006126404E-3
1.168934875E0;4.772126675E-3;2.257493325E-3;-8.758544922E-3
1.186981445E0;3.833889961E-3;3.763138317E-3;-2.078056335E-3
1.205017639E0;2.409756184E-3;1.670516329E-3;-3.999710083E-3
1.223057983E0;5.247652531E-3;1.308490988E-3;-6.557464600E-3
1.241098694E0;3.348171711E-3;4.233329091E-3;-5.842208862E-3
1.259133483E0;-5.130767822E-4;2.749799751E-4;-8.052825928E-3
1.277172119E0;8.940696716E-6;-1.668670215E-3;-1.371383667E-3
1.295215149E0;-2.749562263E-3;-3.606277285E-3;-1.492500305E-3
1.313253479E0;3.515481949E-4;-2.720865887E-3;8.029937744E-4
1.331297669E0;9.148120880E-4;2.437032992E-3;-5.903244019E-3
1.349329895E0;-7.222890854E-4;-3.591516288E-4;-6.469726562E-3
1.367370361E0;4.189908504E-3;-1.309851650E-4;-1.196861267E-3
1.385412659E0;2.537071705E-3;2.276649931E-3;-8.042335510E-3
1.403452758E0;3.134131432E-3;2.976820106E-4;-8.372306824E-3
1.421493591E0;-2.282381058E-3;-5.008766428E-3;-4.413604736E-3
1.439520019E0;-1.509487629E-3;5.453330465E-3;-2.690315247E-3
1.457564575E0;2.902746201E-5;9.851155803E-3;-1.274108887E-3
1.475611572E0;2.909243107E-3;4.510253668E-3;-4.281997681E-4
1.493649658E0;1.245439053E-3;2.427034779E-3;2.431869507E-4
1.511691772E0;9.561181068E-4;2.497053938E-4;-7.963180542E-4
1.529717773E0;-2.317249775E-3;-2.059906255E-3;2.026557922E-3
1.547761536E0;2.231001854E-4;1.298057847E-3;-2.250671387E-3
1.565808166E0;8.211016655E-3;7.183770183E-3;-3.418922424E-3
1.583842040E0;-7.637143135E-4;-1.368596684E-3;6.295204163E-3
1.601887207E0;-2.529382706E-3;2.345983172E-3;-3.108978271E-4
1.619923401E0;1.940071583E-3;5.907557439E-3;2.072334290E-3
1.637961547E0;7.170200348E-3;3.676330671E-3;-1.639366150E-3
1.656005371E0;5.191385746E-3;2.613713965E-3;-2.264976501E-3
1.674044007E0;-1.210689545E-3;-6.383929867E-4;2.366065979E-3
1.692084228E0;2.804934978E-3;-8.391297888E-5;1.796722412E-3
1.710156616E0;2.933084965E-3;6.873185746E-3;7.333755493E-4
1.728154297E0;7.739663124E-4;9.213441983E-3;-1.010894775E-4
1.746203186E0;6.978332996E-3;8.814407513E-3;-8.306503296E-4
1.764230042E0;9.248435497E-3;2.663958352E-3;9.055137634E-3
1.782280883E0;2.964377403E-3;6.573226303E-3;7.652282715E-3
1.800323181E0;9.847223759E-3;4.613143392E-4;1.158714294E-3
1.818357239E0;7.725417614E-3;1.922850963E-3;4.668235779E-3
1.836400695E0;1.011818647E-2;-3.646080382E-3;6.780624390E-4
1.854439026E0;1.173567772E-2;1.944754273E-3;-1.704216003E-3
1.872481140E0;1.342880726E-2;2.030371688E-3;-3.149986267E-3
1.890518677E0;9.198367596E-3;-1.993257552E-3;-2.215385437E-3
1.908547180E0;7.940113544E-3;-2.433471614E-3;5.518913269E-3
1.926596069E0;5.270063877E-3;4.173411056E-3;2.008438110E-3
1.944638733E0;6.953835487E-3;2.265020739E-4;1.496315002E-3
1.962676514E0;6.686449051E-3;-2.817103639E-3;4.916191101E-3
1.980717895E0;6.781280041E-3;-5.173165351E-3;1.911163330E-3
1.998751892E0;2.821862698E-3;2.131724264E-3;-1.461982727E-3
2.016795471E0;7.202088833E-3;2.677000128E-3;6.136894226E-3
2.034829407E0;8.298516273E-3;3.202216467E-3;9.101867676E-3
2.052876709E0;3.028631210E-3;3.182000248E-3;7.791519165E-3
2.070915649E0;8.835852146E-3;-8.806107566E-3;-3.479003906E-3
2.088948730E0;8.274018764E-3;-2.469729865E-3;-4.940032959E-4
2.106981262E0;1.204496622E-2;-6.534009241E-3;1.568794250E-3
2.125031311E0;1.120543480E-2;-8.819501847E-3;4.298210144E-3
2.143060424E0;1.449149847E-2;-2.348375972E-3;5.881309509E-3
2.161108398E0;1.023322344E-2;5.115475506E-4;5.469322205E-3
2.179153320E0;8.743047714E-3;-9.610301349E-4;1.365661621E-3
2.197187072E0;5.691409111E-3;-5.044208374E-4;2.537727356E-3
2.215229370E0;4.647672176E-3;-4.099061713E-3;-1.726150513E-4
2.233269531E0;6.111681461E-3;3.860455006E-3;7.083892822E-3
2.251309509E0;1.389366388E-2;-5.872183945E-3;7.528305054E-3
2.269344299E0;5.630254745E-3;5.519260187E-3;7.551193237E-3
2.287377869E0;6.244003773E-3;2.416743431E-3;2.404212952E-3
2.305426392E0;1.626145840E-2;-8.984787855E-4;9.749412537E-3
2.323467041E0;1.111590862E-2;-3.232834861E-4;-8.144378662E-4
2.341508301E0;1.424831152E-2;-4.326951690E-3;2.287864685E-3
2.359542053E0;1.452887058E-2;-2.861432498E-3;2.744674683E-3
2.377574341E0;1.039773226E-2;4.992039409E-3;5.730628967E-3
2.395630859E0;1.391845942E-2;-4.234519787E-3;5.537986755E-3
2.413658936E0;9.262204170E-3;2.708625980E-4;6.158828735E-3
2.431704528E0;4.416644573E-3;4.947460257E-3;1.148986816E-2
2.449740173E0;4.710376263E-3;5.489146337E-3;7.122993469E-3
2.467779418E0;1.292580366E-2;2.664711792E-3;8.739471436E-3
2.485818908E0;1.286607981E-2;-5.816714372E-3;2.605438232E-3
2.503858032E0;6.591856480E-3;-7.700221613E-4;2.819061279E-3
2.521909363E0;6.220281124E-3;3.251842689E-3;-1.106262207E-4
2.539934814E0;9.303927422E-3;1.543194987E-3;-2.325057983E-3
2.557978882E0;5.772888660E-3;5.282389000E-3;6.765365601E-3
2.576021363E0;1.427453756E-2;2.654274460E-3;8.688926697E-3
2.594059142E0;1.083123684E-2;5.150211975E-3;4.950523376E-3
2.612101562E0;9.374082088E-3;7.236909587E-4;3.229141235E-3
2.630140137E0;7.747173309E-3;-2.136487048E-3;4.735946655E-3
2.648174499E0;7.361233234E-3;-2.402599435E-3;-2.722740173E-3
2.666218506E0;1.193809509E-2;-4.350906704E-3;-4.949569702E-3
2.684257263E0;9.604871273E-3;1.426900504E-3;6.401062012E-3
2.702299255E0;4.256665707E-3;2.376446966E-3;2.739906311E-3
2.720336182E0;9.468615055E-3;2.438012278E-3;1.060485840E-3
2.738372681E0;5.993306637E-3;-3.369347425E-3;6.242752075E-3
2.756400024E0;9.103894234E-3;3.275966505E-3;2.619743347E-3
2.774454101E0;6.241321564E-3;-6.292364560E-4;4.697799683E-3
2.792496887E0;6.405711174E-3;3.454658436E-3;4.371643066E-3
2.810535767E0;7.938146591E-3;-4.665849265E-4;1.618385315E-3
2.828569824E0;8.600234985E-3;-3.129587043E-3;3.330230713E-3
2.846614746E0;1.156175137E-2;-4.818746820E-4;-1.247406006E-3
2.864651184E0;9.877204895E-3;-3.552541835E-3;-5.849838257E-3
2.882694702E0;7.468760014E-3;1.119349734E-3;5.537986755E-3
2.900734192E0;8.653521538E-3;-8.267131052E-4;3.183364868E-3
2.918767883E0;6.710231304E-3;-8.689879905E-5;1.700401306E-3
2.936812622E0;1.177859306E-2;-9.150595404E-3;3.903388977E-3
2.954846253E0;8.540332317E-3;1.913383137E-3;2.885818481E-3
2.972891174E0;2.726197243E-3;8.460776880E-4;4.143714905E-3
2.990928528E0;7.872343063E-3;-1.608165912E-4;1.129913330E-2
3.008962769E0;5.267083645E-3;6.388441194E-3;8.081436157E-3
3.027002686E0;-1.292288303E-3;1.021066448E-3;4.283905029E-3
3.045047913E0;5.412817001E-3;4.839151166E-3;-5.787849426E-3
3.063089111E0;-2.312660217E-5;-1.710636425E-3;2.268791199E-3
3.081131103E0;8.392155170E-3;5.162630230E-3;-1.314163208E-3
3.099166687E0;7.924914360E-3;1.803998020E-3;3.203392029E-3
3.117202697E0;1.039165258E-2;4.662852734E-5;8.931159973E-3
3.135246216E0;1.498544216E-2;6.016613450E-3;-4.954338074E-3
3.153285217E0;1.024162769E-2;5.779100582E-3;-2.269744873E-4
3.171328125E0;1.043707132E-2;4.055092111E-3;4.960060120E-3
3.189367126E0;1.154941320E-2;3.655523760E-4;-1.893043518E-3
3.207406066E0;7.696747780E-3;4.544171505E-3;1.783370972E-3
3.225433715E0;1.264429092E-2;5.264393985E-3;4.959106445E-3
3.243484375E0;1.069504023E-2;1.993638463E-3;-1.024246216E-3
3.261523316E0;1.055037975E-2;5.432581529E-3;6.995201111E-3
3.279565369E0;1.262283325E-2;4.336709157E-3;-5.426406860E-4
3.297603088E0;1.548236609E-2;5.529723596E-3;1.334190369E-3
3.315644226E0;1.331919432E-2;3.968874924E-3;-1.283645630E-3
3.333682922E0;1.356953382E-2;6.743683945E-3;-1.717567444E-3
3.351722473E0;1.228433847E-2;6.654591300E-3;-6.580352783E-4
3.369762085E0;1.155012846E-2;7.475551218E-3;-3.946304321E-3
3.387797729E0;1.153987646E-2;5.367266014E-3;2.407073975E-3
3.405841491E0;1.058000326E-2;5.465987488E-4;-1.772880554E-3
3.423880920E0;9.838759899E-3;8.022324764E-4;-4.405975342E-4
3.441920716E0;6.448090076E-3;1.656649634E-3;-6.536483765E-3
3.459959839E0;7.357954979E-3;9.804551490E-3;-7.991790771E-4
3.477999328E0;8.889079094E-3;5.290005356E-3;1.179695129E-3
3.496039123E0;8.818984032E-3;1.623898977E-3;-2.256393433E-3
3.514078736E0;1.341795921E-2;5.011019763E-3;1.463890076E-3
3.532114929E0;1.642394066E-2;2.183879958E-3;7.202148438E-3
3.550160766E0;9.071707726E-3;4.714273382E-3;6.437301636E-4
3.568197570E0;1.319086552E-2;3.684917465E-3;-2.708435059E-4
3.586232299E0;1.065307856E-2;9.240859188E-3;-4.453659058E-3
3.604271606E0;8.438110352E-3;2.963690553E-3;-3.019332886E-3
3.622313172E0;1.071453094E-2;1.218579710E-3;-1.153945923E-3
3.640358704E0;8.054018021E-3;-2.158123534E-3;7.238388062E-4
3.658395629E0;3.241240978E-3;5.457338877E-3;3.786087036E-4
3.676434875E0;6.567835808E-3;8.361784741E-3;8.358955383E-3
3.694474487E0;8.642375469E-3;3.058896400E-3;4.444122314E-3
3.712499390E0;8.640050888E-3;5.088893231E-4;9.678840637E-3
3.730556946E0;7.965862751E-3;2.278359607E-4;5.903244019E-4
3.748592468E0;1.360702515E-2;5.458674394E-3;-6.132125854E-3
3.766629150E0;1.258552074E-2;3.952801693E-3;-7.297515869E-3
3.784675720E0;1.839715242E-2;3.721807152E-3;-2.611160278E-3
3.802712220E0;5.158066750E-3;2.220403869E-3;4.565238953E-3
3.820751342E0;1.066225767E-2;2.630306408E-4;2.761840820E-3
3.838790954E0;1.197665930E-2;2.583212219E-3;-2.388000488E-3
3.856830993E0;1.373249292E-2;2.169644693E-3;-4.396438599E-4
3.874870728E0;1.876217127E-2;1.948071062E-3;-2.210617065E-3
3.892909668E0;1.382935047E-2;-2.709777909E-4;-2.327919006E-3
3.910947815E0;6.153762341E-3;3.674512031E-3;-6.580352783E-5
3.928990539E0;1.338088512E-2;8.112976328E-3;5.146980286E-3
3.947013793E0;1.719349623E-2;8.007273427E-4;2.855300903E-3
3.965067688E0;2.076125145E-2;5.677620415E-3;4.808425903E-3
3.983107666E0;1.658391953E-2;3.618859686E-3;3.316879272E-3
4.001145569E0;1.665431261E-2;1.007964555E-2;6.017684937E-3
4.019189636E0;1.762962341E-2;9.337229654E-3;4.628181458E-3
4.037226318E0;1.736807823E-2;4.334277473E-3;3.111839294E-3
4.055266479E0;1.474481821E-2;3.303461941E-3;2.903938293E-3
4.073305969E0;1.690649986E-2;2.050769399E-4;-7.629394531E-5
4.091344849E0;5.190014839E-3;6.804069504E-3;7.813453674E-3
4.109385742E0;1.537060738E-2;-3.212078242E-3;1.357078552E-3
4.127424377E0;1.133704185E-2;3.349988488E-3;8.175849915E-3
4.145461426E0;8.856236935E-3;2.674844000E-4;4.381179810E-3
4.163506775E0;9.611368179E-3;3.983649891E-3;6.866455078E-5
4.181543274E0;1.003241539E-2;7.183992770E-3;5.283355713E-3
4.199583007E0;9.578824043E-3;5.776171573E-3;8.782386780E-3
4.217606079E0;1.418530941E-2;3.110907506E-3;-1.328468323E-3
4.235659790E0;1.153302193E-2;1.455378020E-3;-1.858711243E-3
4.253704407E0;1.488399506E-2;4.162927624E-3;2.969741821E-3
4.271741516E0;1.022452116E-2;1.683579758E-4;3.725051880E-3
4.289781066E0;1.620483398E-2;4.127760418E-3;-1.618385315E-3
4.307821166E0;1.815819740E-2;1.867429819E-4;3.796577454E-3
4.325856262E0;1.265066862E-2;5.423731171E-3;8.869171143E-5
4.343899719E0;1.159828901E-2;3.365308512E-4;2.862930298E-3
4.361939209E0;1.845389605E-2;-2.826146781E-3;2.858161926E-3
4.379980042E0;1.417636871E-2;8.515099995E-3;4.173278809E-3
4.398017761E0;1.446920633E-2;3.265178995E-3;-1.205444336E-3
4.416053527E0;1.490050554E-2;5.259870552E-3;2.247810364E-3
4.434098022E0;1.688730717E-2;8.481952827E-4;4.310607910E-3
4.452125794E0;9.187459946E-3;-1.841796096E-3;2.625465393E-3
4.470176758E0;1.213687658E-2;-2.248783130E-3;-4.469871521E-3
4.488216857E0;1.270306110E-2;-1.258758013E-3;3.137588501E-4
4.506256530E0;1.357752085E-2;6.873890758E-3;7.619857788E-4
4.524295715E0;1.610881090E-2;-2.347641625E-3;3.255844116E-3
4.542331726E0;1.494240761E-2;3.169478849E-3;-1.042366028E-3
4.560378479E0;1.379954815E-2;1.489376556E-2;1.199722290E-3
4.578414672E0;9.096026421E-3;1.281996258E-3;1.042366028E-3
4.596454223E0;7.345318794E-3;6.482877769E-3;1.212120056E-3
4.614491699E0;1.199537516E-2;7.964876480E-3;4.886627197E-3
4.632535583E0;1.156562567E-2;5.227570422E-3;1.380920410E-3
4.650573242E0;1.662302017E-2;-1.106072217E-3;-1.287460327E-3
4.668612976E0;1.241463423E-2;2.574716695E-3;5.817413330E-5
4.686651855E0;1.829648018E-2;-5.004175473E-4;4.974365234E-3
4.704691955E0;1.446950436E-2;8.804485202E-3;3.786087036E-4
4.722731506E0;1.523673534E-2;2.084109932E-3;-3.414154053E-3
4.740771363E0;1.157277822E-2;4.012716934E-3;9.346008301E-5
4.758807556E0;5.699753761E-2;-2.911721542E-2;-3.770828247E-3
4.776853454E0;-1.041495800E-1;9.645863436E-3;-2.775096893E-2
4.794889953E0;2.243149281E-2;1.883150078E-2;1.391410828E-2
4.812930297E0;2.121156454E-2;9.095391259E-3;1.228332520E-3
4.830956604E0;-2.117896080E-2;-4.314067587E-2;-6.420135498E-3
4.849005860E0;1.203215718E-1;7.381634414E-2;-3.976440430E-2
4.867039490E0;-4.162657261E-2;3.499678522E-2;6.277084351E-2
4.885091857E0;3.422814608E-2;8.924522251E-2;-1.917839050E-2
4.903127441E0;-1.625375748E-1;9.198053181E-2;-1.660976410E-1
4.921167297E0;5.456584692E-1;3.015033007E-1;3.765220642E-1
4.939207153E0;4.671174288E-2;1.064548083E-2;1.271867752E-1
4.957246887E0;-6.445064545E-1;-1.730688810E-1;-7.106113434E-2
4.975285705E0;-3.900806904E-1;2.332037315E-2;9.009456635E-2
4.993323242E0;-1.084505439E0;-1.046512574E-1;-5.335559845E-1
5.011367004E0;-1.646433115E0;-2.298584580E-1;2.636232376E-1
5.029406189E0;-1.607473612E0;3.405926749E-2;1.351423264E-1
5.047444641E0;-2.024369001E0;-4.243294299E-1;-3.536014557E-1
5.065473938E0;-3.181128502E0;-5.586083531E-1;-4.882841110E-1
5.083523559E0;-2.841969967E0;-4.858435094E-1;9.902191162E-2
5.101563598E0;-3.193646669E0;-5.499382615E-1;4.839525223E-1
5.119602966E0;-3.337896585E0;-3.481911719E-1;-7.221717834E-1
5.137643005E0;-2.212116003E0;-2.771431804E-1;-4.648237228E-1
5.155682190E0;-1.927032232E0;1.538320631E-2;-3.567028046E-2
5.173722473E0;-1.244908571E0;4.155187607E-1;-3.835535049E-1
5.191761596E0;-1.812282950E-1;7.050973177E-1;-1.482801437E-1
5.209790100E0;4.998284578E-1;1.039350152E0;-9.919452667E-2
5.227839966E0;1.414367199E0;9.863998890E-1;-1.251878738E-1
5.245878479E0;1.897639990E0;1.049082160E0;-2.734165192E-1
5.263919922E0;1.473816752E0;8.816933632E-1;9.827804565E-2
5.281959838E0;7.562236786E-1;6.119228601E-1;-4.460906982E-2
5.299999328E0;9.623220563E-2;-7.196839899E-2;-6.436691284E-1
5.318039428E0;-4.618150592E-1;-6.074221432E-2;-6.289482117E-2
5.336078430E0;-9.164199829E-1;6.516318023E-2;-1.473522186E-1
5.354118469E0;2.927228808E-1;-1.331280917E-1;4.047613144E-1
5.372155030E0;8.625058532E-1;2.269869000E-1;-3.673038483E-1
5.390200622E0;9.720517993E-1;1.519591510E-1;-4.129076004E-1
5.408236877E0;7.839058042E-1;2.009822279E-1;-4.867267609E-2
5.426276672E0;5.033795834E-1;4.768280685E-1;9.349822998E-3
5.444319763E0;1.034709930E0;4.712470770E-1;-1.007661819E-1
5.462357239E0;1.278344035E0;6.510480642E-1;-1.543035507E-1
5.480394470E0;1.425435424E0;8.798052073E-1;-1.371469498E-1
5.498435485E0;1.161191463E0;7.328795195E-1;7.127304077E-1
5.516474975E0;9.976172447E-1;9.433023930E-1;-4.680671692E-1
5.534514709E0;1.028129578E0;3.953884542E-1;-1.969413757E-1
5.552554016E0;1.289396524E0;3.544656336E-1;1.007289886E-1
5.570593811E0;8.974797726E-1;3.569772243E-1;-1.090145111E-2
5.588623657E0;6.387724876E-1;4.139740765E-1;-2.767324448E-1
5.606673095E0;5.558894873E-1;2.637216151E-1;9.354496002E-2
5.624712280E0;6.113861799E-1;3.592166603E-1;-1.336669922E-2
5.642760315E0;7.006517649E-1;3.287749290E-1;-1.822338104E-1
5.660792358E0;5.281273127E-1;4.680799842E-1;-2.459335327E-1
5.678819335E0;5.219529867E-1;3.802646399E-1;-4.572200775E-2
5.696868226E0;3.992413282E-1;4.696469307E-1;-1.740360260E-2
5.714914001E0;5.554647446E-1;3.349124789E-1;5.084915161E-1
5.732950744E0;7.870594263E-1;5.899064541E-1;-4.494667053E-3
5.750990357E0;4.950002432E-1;3.312039375E-1;-2.033748627E-1
5.769029602E0;2.138069868E-1;1.628427058E-1;3.196926117E-1
5.787057434E0;5.761777163E-1;-1.110593379E-1;3.373441696E-1
5.805108764E0;6.808180809E-1;5.990681797E-2;1.760635376E-1
5.823148742E0;2.689965963E-1;4.557260275E-1;-3.223457336E-1
5.841186401E0;2.132937908E-1;2.646293640E-1;2.174606323E-1
5.859229797E0;4.890228510E-1;1.994383782E-1;1.090555191E-1
5.877267639E0;7.293581963E-2;4.388375282E-1;-2.258710861E-1
5.895307740E0;-2.026510239E-2;5.934862494E-1;-4.810333252E-2
5.913335022E0;1.706141233E-1;3.860072196E-1;3.013753891E-1
5.931385803E0;1.015239954E-1;5.804721117E-1;-1.254949570E-1
5.949427063E0;-9.839034081E-2;5.708609223E-1;-5.189609528E-2
5.967466187E0;-8.369243145E-2;6.100738049E-1;1.250057220E-1
5.985505188E0;-2.528777122E-1;5.890251398E-1;1.659107208E-2
6.003544799E0;-3.322337866E-1;5.933488011E-1;2.698802948E-2
6.021584777E0;-3.133693933E-1;4.470630288E-1;3.086376190E-2
6.039624572E0;-2.371255159E-1;3.679036498E-1;1.082324982E-2
6.057669738E0;-3.382551670E-1;4.385419190E-1;-1.443004608E-2
6.075700745E0;-4.810528755E-1;4.727286100E-1;-9.787559509E-3
6.093746216E0;-4.625940323E-1;4.356305897E-1;-6.881427765E-2
6.111783325E0;-4.276111126E-1;8.085000515E-1;-9.027481079E-2
6.129822571E0;-6.792002916E-1;7.459741235E-1;-2.215986252E-1
6.147850708E0;-7.163748741E-1;1.233826727E-1;3.682508469E-1
6.165897705E0;-6.580857038E-1;7.900941968E-1;1.469488144E-1
6.183941834E0;-9.718841910E-1;7.194991112E-1;-3.649234772E-2
6.201980713E0;-3.360267878E-1;3.721039891E-1;1.981201172E-1
6.220018128E0;-5.229727030E-1;5.551939607E-1;-5.216598511E-2
6.238063415E0;-6.835957170E-1;1.289270997E0;-1.209907532E-1
6.256100402E0;1.801876068E0;1.900163770E0;-1.482060432E0
6.274139526E0;-9.150536656E-1;-2.133126557E-1;1.219977379E0
6.292170959E0;1.200268269E-1;2.522255182E0;7.641096115E-1
6.310215210E0;4.122091532E-1;2.076266289E0;-1.329906464E0
6.328262757E0;-1.649384022E0;9.100505114E-1;7.633094788E-1
6.346298095E0;-6.198610067E-1;1.741112590E0;-8.110027313E-1
6.364337768E0;-5.235382318E-1;2.129619598E0;-2.882175446E-1
6.382377136E0;-1.121022463E0;1.277913332E0;-1.229461670E0
6.400417969E0;2.477607012E0;4.960388541E-1;3.067274094E-1
6.418456665E0;5.866876602E0;7.381033301E-1;2.355139732E0
6.436495666E0;7.493257523E0;-1.005129337E0;-5.615615845E-1
6.454536132E0;7.952057838E0;-1.490650326E-2;1.543591499E0
6.472576171E0;6.614676476E0;7.068367004E-1;-1.502595901E0
6.490615173E0;5.567216396E0;-5.554488897E-1;-2.268266678E-1
6.508655151E0;2.909562111E0;-5.905058384E-1;-5.698566437E-1
6.526693481E0;-1.164685965E0;1.697854549E-1;4.305610657E-1
6.544734681E0;-4.993637562E0;1.288886547E0;-9.433860779E-1
6.562762512E0;-7.874058723E0;9.198607802E-1;2.453050613E-1
6.580813781E0;-9.091556549E0;1.533858180E0;2.859230042E-1
6.598853576E0;-8.456943512E0;6.077368855E-1;3.924961090E-1
6.616893311E0;-8.080079079E0;6.563869119E-1;-3.317279816E-1
6.634932312E0;-6.554868221E0;-1.879646778E-1;-4.277200699E-1
6.652972290E0;-4.436332226E0;3.662007451E-1;-3.186016083E-1
6.671000549E0;-1.775222063E0;-1.391905308E0;1.039286613E0
6.689051513E0;1.337813973E0;-7.546938658E-1;2.517700195E-1
6.707079284E0;2.636526585E0;-1.389826894E0;-3.048477173E-1
6.725130737E0;2.916658878E0;4.188486934E-1;-8.896827698E-3
6.743170715E0;2.633990526E0;5.380855873E-3;-1.434686661E0
6.761210266E0;2.550164223E0;-2.324919701E-1;1.131747246E0
6.779249633E0;2.392309189E0;-3.679632246E-1;-6.547508240E-1
6.797289367E0;1.551039815E0;8.169849515E-1;3.047866821E-1
6.815329223E0;5.917413235E-1;1.377936959E0;-5.230770111E-1
6.833366211E0;1.897625923E-1;6.051869318E-2;1.074677467E0
6.851410034E0;7.346163988E-1;-1.283010095E-1;3.364124298E-1
6.869449097E0;9.290604591E-1;-5.621676147E-2;4.507198334E-1
6.887487365E0;2.102346420E-1;1.430534124E0;-8.505725861E-1
6.905519897E0;-5.862736702E-2;3.773302585E-2;6.627769470E-1
6.923556336E0;3.594927788E-1;9.775808454E-1;3.128051758E-1
6.941607422E0;4.064407349E-1;7.360647321E-1;-2.293672562E-1
6.959646484E0;2.831791639E-1;-3.682309389E-1;-9.806823730E-2
6.977686219E0;3.494721413E0;-6.309551001E-1;3.907070160E0
6.995725158E0;-2.926785946E0;2.274414062E0;-1.521683693E0
7.013765197E0;1.657530546E0;9.080820084E-1;-2.632171631E0
7.031804748E0;-7.407888770E-1;-3.289928734E-1;1.664729118E0
7.049847046E0;-1.285031438E0;3.259016275E0;4.242801666E-1
7.067883789E0;6.715033054E-1;1.826434731E0;7.881078720E-1
7.085919616E0;-9.810770154E-1;-5.333281159E-1;-2.115821838E0
7.103963440E0;1.801944852E0;8.011745214E-1;1.097477913E0
7.121991760E0;-1.546440125E-1;1.191895962E0;9.271450043E-1
7.140030700E0;1.405707359E0;8.738271594E-1;-5.887575150E-1
7.158082275E0;3.199988604E-1;1.780852556E0;-3.278607368E0
7.176117309E0;-4.761818647E-1;1.397432089E0;2.162868500E0
7.194162171E0;-2.445756197E-1;5.974531174E-2;3.151569366E-1
7.212201294E0;2.947585583E-1;1.252215743E0;-2.420077801E0
7.230241088E0;-9.571685195E-1;1.217540145E0;4.571628571E-2
7.248281005E0;-1.578880072E0;1.795877934E0;1.021386147E0
7.266320678E0;-8.981009722E-1;1.332048655E0;4.862003326E-1
7.284359436E0;-1.638586283E0;7.788062692E-1;2.642850876E-1
7.302395325E0;-8.745878935E-1;4.854273796E-1;-5.078878403E-1
7.320443665E0;-1.251699209E0;-1.710144281E-1;7.901535034E-1
7.338479431E0;1.144607067E-1;-8.809632063E-1;-8.798141479E-1
7.356518371E0;-5.419588089E-1;6.788365245E-1;-6.024742126E-1
7.374558166E0;-1.039707899E0;-1.438526869E0;2.710505486E0
7.392597961E0;4.485971332E-1;1.470688581E-1;-3.285552025E0
7.410637879E0;-1.492273808E-2;3.129853904E-1;1.959915161E0
7.428676758E0;-6.844018698E-1;2.078668118E0;-4.428224564E-1
7.446716674E0;1.058954597E-1;1.401351452E0;8.517456055E-2
7.464756408E0;-1.139580727E0;3.139163017E0;7.463722229E-1
7.482784545E0;-6.591390371E-1;2.860279083E0;-2.436148167E0
7.500835571E0;-6.962839365E-1;1.696462989E0;1.127615929E0
7.518872558E0;-9.920858145E-1;2.418038130E0;4.204483032E-1
7.536912476E0;-7.098487020E-1;1.235845327E0;3.809623718E-1
7.554958191E0;-1.578099489E0;3.142517090E0;-4.367485046E-1
7.572994140E0;-1.910987377E0;-1.425741315E-1;1.075858116E0
7.591033996E0;-1.123238206E0;5.268337131E-1;5.563545227E-1
7.609073608E0;-1.251910925E0;-2.454101801E0;8.971862793E-1
7.627101929E0;-1.976026177E0;7.303484678E-1;-5.772628784E-1
7.645152649E0;-2.592138767E0;-1.203144073E0;-1.044912338E0
7.663192688E0;-2.415806055E0;-1.531209230E0;6.861705780E-1
7.681232604E0;-1.434323430E0;-1.463059902E0;-6.699771881E-1
7.699272277E0;-2.530214548E0;-2.350377798E0;1.301464081E0
7.717311523E0;-1.403736115E0;-2.009850979E0;-1.121863365E0
7.735351745E0;-2.392789125E0;9.805228710E-1;-1.037611008E0
7.753388732E0;-2.661645412E0;-2.102932930E0;8.853330612E-1
7.771428162E0;-3.005621910E0;-9.494258165E-1;-2.783813477E-1
7.789472839E0;-2.403616428E0;-1.238181353E0;1.910515785E0
7.807510131E0;-2.300932884E0;-1.556277514E0;-1.032173157E0
7.825549621E0;-2.807561755E-1;-1.870553613E0;3.512887955E-1
7.843589478E0;5.584650636E-1;-6.439397335E-1;-9.407835007E-1
7.861628662E0;2.495473146E0;-1.326128364E0;-1.391384125E0
7.879668518E0;2.900266647E0;-1.229331613E0;-8.569517136E-1
7.897692565E0;2.872120857E0;-1.510210395E0;1.288645744E0
7.915747864E0;3.089122057E0;-9.924479723E-1;-2.977514267E-1
7.933790161E0;3.361009359E0;-2.091593504E0;2.936458588E-1
7.951827453E0;2.959441185E0;5.720967054E-2;-4.933996201E-1
7.969868713E0;2.041084528E0;-6.805190444E-1;-6.829671860E-1
7.987907837E0;2.254642844E-1;9.144228101E-1;9.029321671E-1
8.005940979E0;-1.492981076E0;8.753637075E-1;-1.352925301E0
8.023985717E0;-2.139030218E0;-5.048813224E-1;1.068609238E0
8.042025695E0;-2.462944984E0;6.249649525E-1;3.741521835E-1
8.060065551E0;-3.135584593E0;-2.019733667E0;-3.385477066E-1
8.078104309E0;-2.013021946E0;-5.151836276E-1;1.930742264E-1
8.096144592E0;-1.941969872E0;4.910962582E-1;-2.096649170E0
8.114184204E0;-6.302361488E-1;-1.557561755E-1;1.531028748E-1
8.132219848E0;-2.133533955E-1;1.192166686E0;7.309474945E-1
8.150262329E0;8.800935745E-2;9.745384455E-1;-9.161319733E-1
8.168303711E0;3.851181269E-1;1.206684336E-1;2.836049080E0
8.186342834E0;1.290320158E-1;1.100041032E0;-1.520376205E-1
8.204382508E0;-1.082057953E-1;-5.079551935E-1;-4.720201492E-1
8.222419433E0;1.197762489E-1;2.112332106E0;1.761794090E0
8.240463746E0;-1.095341444E0;2.483910084E0;-1.533353806E0
8.258501525E0;-1.515478373E0;1.374594212E0;1.311176300E0
8.276538452E0;-2.081275225E0;2.094004154E0;-2.387809753E-2
8.294580322E0;-3.467208385E0;1.831701994E0;1.542307854E0
8.312620300E0;-2.736257553E0;3.219015896E-1;-1.845760345E-1
8.330659973E0;-3.012516499E0;1.751107097E0;7.783651352E-1
8.348699830E0;-2.767491579E0;2.944724321E0;-2.107084274E0
8.366727417E0;-3.197825909E0;-4.196089804E-1;1.443008423E0
8.384776367E0;-1.008526564E0;-1.322267413E0;1.392583847E-1
8.402821106E0;1.714272976E0;-3.239243984E0;3.707141876E-1
8.420858521E0;2.119794369E0;-5.579680443E0;1.305046082E-1
8.438897766E0;3.232074738E0;-4.211507320E0;-6.765747070E-1
8.456937866E0;2.762229443E-1;-2.595053434E0;5.756502151E-1
8.474977356E0;-8.502779007E-1;-2.517413497E-1;-1.370792389E-1
8.493016967E0;-3.894068956E0;2.630366981E-1;2.783118248E0
8.511044250E0;-2.632769346E0;1.558854342E0;9.337100983E-1
8.529096436E0;-1.579218149E0;1.130942702E0;7.053651810E-1
8.547124939E0;3.789253235E-1;8.120445013E-1;-1.069108963E0
8.565175415E0;1.094456911E0;8.088363409E-1;1.355991364E0
8.583214905E0;9.414358139E-1;-1.181857824E0;-5.132884979E-1
8.601242005E0;1.577406883E0;1.143064871E-1;2.460947037E-1
8.619295532E0;5.794036388E-1;-4.227530062E-1;-2.339613914E0
8.637334289E0;-1.632990837E-1;-5.388593078E-1;2.086387634E0
8.655373352E0;8.311381340E-1;-1.273115993E0;-4.568214893E0
8.673410645E0;-1.822280884E0;8.204748034E-1;3.643554688E0
8.691455810E0;-1.362623811E0;9.557366967E-1;-2.824538231E0
8.709492980E0;-1.107426167E0;2.160946578E-1;1.394674301E0
8.727532104E0;-8.897646666E-1;-1.095301390E0;-2.880477905E-1
8.745571594E0;1.125956535E0;-9.275608659E-1;6.995887756E-1
8.763606690E0;1.060892940E0;9.938664734E-3;-1.103018761E0
8.781655945E0;2.139478922E-1;1.306722641E0;-6.677179337E-1
8.799690918E0;-2.773374319E-1;1.352432966E-1;1.427311897E0
8.817730835E0;-6.572655439E-1;-1.119766355E0;-1.512498856E-1
8.835766723E0;-5.345585346E-1;6.323953271E-1;7.364006042E-1
8.853810180E0;-1.933584094E0;-9.202057123E-1;-1.492810249E0
8.871849182E0;-1.272449017E0;-4.855790436E-1;1.086898804E0
8.889877258E0;-1.278022885E0;-1.175785780E0;-4.887552261E-1
8.907927979E0;1.832700968E-1;7.819237113E-1;7.015857697E-1
8.925969665E0;-2.092349529E-2;-4.268748760E-1;-7.143926620E-1
8.944008117E0;-2.489602566E-1;-9.301438332E-1;9.801702499E-1
8.962047912E0;-1.375446320E-1;-2.989405692E-1;-1.364812851E-1
8.980081970E0;-1.610507965E-1;-1.832312107E0;-3.305749893E-1
8.998124512E0;3.643131256E-2;-2.587755024E-1;2.693471909E-1
9.016169556E0;-8.068474531E-1;-1.465039253E0;1.984157562E-1
9.034206665E0;-2.965233326E-1;-5.193375349E-1;4.717035294E-1
9.052246154E0;-5.282727480E-1;7.468217611E-1;-3.846931458E-1
9.070286254E0;-1.558351517E-1;-4.558826387E-1;-2.019500732E-1
9.088325012E0;5.841629505E-1;-5.188671499E-2;3.042287827E-1
9.106365051E0;8.242409229E-1;-1.295901537E0;1.610953331E0
9.124404663E0;1.223166943E0;-4.196829200E-1;-9.455604553E-1
9.142441773E0;1.193620086E0;-5.552989244E-1;-4.172353745E-1
9.160486572E0;7.499226332E-1;1.807118952E-1;-1.723894119E0
9.178523742E0;-1.935318708E-1;-1.033373475E-1;7.625188828E-1
9.196563660E0;-3.772833347E-1;9.962014854E-3;-8.063945770E-1
9.214606079E0;-5.960209370E-1;-1.106556535E0;4.024286270E-1
9.232642578E0;-4.771887660E-1;-5.136986971E-1;5.525150299E-1
9.250682434E0;-8.783960342E-2;-1.140894294E0;-9.739780426E-2
9.268722045E0;-1.998821497E-1;3.837138414E-2;4.392204285E-1
9.286760864E0;-3.580754995E-1;-6.274852753E-1;-1.292840004E0
9.304802063E0;-2.630937099E-1;-7.828941941E-1;5.465908051E-1
9.322840942E0;2.693752050E-1;-2.270770967E-1;-6.967601776E-1
9.340880432E0;2.175381184E-1;5.310624838E-2;6.783761978E-1
9.358920227E0;4.005813599E-2;-1.686931551E-1;2.209558487E-1
9.376958252E0;-5.536031723E-2;-1.849408001E-1;2.748374939E-1
9.395001159E0;-4.189369678E-1;8.791901469E-1;-8.167161942E-1
9.413039367E0;-4.408226609E-1;-2.413704693E-1;2.255458832E-1
9.431079285E0;-7.184859514E-1;1.925834119E-1;3.074569702E-1
9.449118469E0;-8.485453129E-1;-6.116906404E-1;1.800823212E-1
9.467146789E0;-9.262039661E-1;-4.308362901E-1;3.701686859E-2
9.485185852E0;-1.250598431E0;-2.991760671E-1;-9.571008682E-1
9.503237670E0;-2.576708794E-3;3.673854768E-1;1.105497360E0
9.521274048E0;-9.100525975E-1;4.456537366E-1;-5.288619995E-1
9.539319580E0;2.592982054E-1;-1.019487619E0;1.305980682E-1
9.557356811E0;-1.103873253E-1;-5.725613832E-1;-2.650766373E-1
9.575396912E0;-1.191722751E0;-1.346729845E-1;9.625625610E-1
9.593417053E0;-5.966712832E-1;8.887076378E-1;-6.495256424E-1
9.611472657E0;-1.548462749E0;5.038511753E-1;3.727283478E-1
9.629518188E0;-1.735286713E0;-4.800996929E-2;-3.874769211E-1
9.647555053E0;-2.833565950E0;-1.272969961E0;-4.117670059E-1
9.665594238E0;-2.624436378E0;-2.926677465E-2;6.887969971E-1
9.683633911E0;-2.577436686E0;-1.047382355E0;-1.309328079E-1
9.701673950E0;-2.206615686E0;2.158485353E-2;1.610832214E-1
9.719713623E0;-2.104861259E0;-2.900336385E-1;-1.291177750E0
9.737741333E0;-2.132246733E0;-6.632815003E-1;7.713975906E-1
9.755789367E0;-2.387049437E0;1.435940862E0;-8.935012817E-1
9.773832397E0;-3.120271206E0;4.984176159E-1;1.420220375E0
9.791871643E0;-3.606164455E0;-6.967860460E-2;-2.505546570E0
9.809912232E0;-3.378683090E0;-4.997105896E-2;3.061748505E0
9.827944702E0;-1.848423600E0;-1.895379305E0;-6.791362762E-1
9.845990783E0;-1.492434025E0;6.868502498E-1;2.724838257E-2
9.864030883E0;-8.058493137E-1;-3.525792360E-1;6.126213074E-1
9.882070068E0;2.184133530E-1;-6.108547449E-1;3.516216278E-1
9.900110229E0;9.212951660E-1;1.245798916E-1;4.832525253E-1
9.918149780E0;5.389566422E-1;2.964721322E-1;4.657287598E-1
9.936189758E0;3.415803909E-1;-9.644663334E-2;1.252636909E0
9.954228882E0;3.992185593E-1;1.340419292E0;5.969343185E-1
9.972268371E0;2.415177822E-1;6.602197886E-1;1.155986786E0
9.990305908E0;5.562996864E-2;2.231026888E0;-8.596277237E-1
1.000835059E1;2.992587090E-1;-1.638843417E0;3.278549194E0
1.002638745E1;-3.352682590E-1;6.031346917E-1;-1.455373764E-1
1.004442712E1;-1.405014992E-1;9.053441882E-2;5.781822205E-1
1.006246735E1;-6.314387321E-1;-6.097799540E-1;1.324882507E-1
1.008050647E1;-6.285078526E-1;-3.924965858E-4;3.206758499E-1
1.009853686E1;-1.209641695E0;-9.896328449E-1;3.792295456E-1
1.011657562E1;-1.473260164E0;1.459713578E0;-6.864919662E-1
1.013462256E1;-1.885602951E0;6.623191833E-1;-1.764569759E0
1.015266840E1;-1.254636049E0;-1.172658801E0;1.927917480E0
1.017070483E1;-1.176467180E0;-1.856430769E0;1.368675232E0
1.018874451E1;-5.171599388E-1;-1.936363876E-1;4.707460403E-1
1.020678821E1;-1.510744810E0;-1.088602066E0;3.641262054E-1
1.022482178E1;-1.010933161E0;-4.366078973E-1;3.549022675E-1
1.024286517E1;-1.156057358E0;3.789786696E-1;-4.925746918E-1
1.026090314E1;-1.576506019E0;1.000940442E0;-4.003076553E-1
1.027894287E1;-8.417255878E-1;-1.222881794E0;9.934015274E-1
1.029698285E1;-6.948187351E-1;-1.341727614E0;1.566623688E0
1.031502179E1;-1.116168261E0;-3.875006437E-1;3.426589966E-1
1.033306171E1;-2.046432972E0;-8.256971836E-2;-6.463518143E-1
1.035108905E1;-1.902949691E0;-4.976122677E-1;3.090419769E-1
1.036914148E1;-1.956667900E0;1.861781329E-1;-1.656169415E0
1.038716858E1;-2.202511787E0;-8.421448469E-1;2.087311745E0
1.040522009E1;-1.970111132E0;-1.237873793E0;-5.876502991E-1
1.042326032E1;-1.310047388E0;-1.062210917E0;1.673156738E0
1.044128723E1;-2.324177980E0;-3.248399496E-1;-1.090344429E0
1.045933984E1;-1.642940044E0;1.242550611E-1;5.599117279E-1
1.047737903E1;-2.487063885E0;-1.520626545E-1;1.254558563E-2
1.049541876E1;-1.492814183E0;-8.584981561E-1;1.901338577E0
1.051345862E1;-1.061256170E0;-1.132719278E0;7.603206635E-1
1.053148590E1;-1.436393976E0;4.624986649E-2;3.507909775E-1
1.054953741E1;-1.258292675E0;1.098592401E0;-7.678289413E-1
1.056757727E1;-2.013778210E0;-1.515228748E-1;9.623785019E-1
1.058561682E1;-1.175202131E0;-3.914890885E-1;1.577374458E0
1.060365143E1;-7.658426762E-1;-8.832352757E-1;9.885072708E-1
1.062169958E1;-9.449329376E-1;1.245205402E0;-5.398273468E-2
1.063973682E1;-1.661708117E0;-2.787743807E-1;1.651115417E-1
1.065777600E1;-7.563750744E-1;-9.645998478E-3;1.205671310E0
1.067581140E1;-6.532773972E-1;-2.490402699E0;2.707567215E-1
1.069385474E1;-6.178910732E-1;8.073863387E-1;-8.140935898E-1
1.071189441E1;-1.575217724E0;-6.928858161E-1;-8.449077606E-1
1.072992267E1;-1.487848043E0;-7.783138752E-2;2.015016556E0
1.074797345E1;-7.211935520E-1;-1.174725533E0;6.724805832E-1
1.076601331E1;-2.551545382E0;1.378028870E0;5.737352371E-1
1.078405310E1;-3.189336061E0;7.880115509E-1;-9.362630844E-1
1.080209284E1;-2.374989271E0;-6.897612810E-1;2.418252945E0
1.082012708E1;-1.236612082E0;-7.118461132E-1;5.665740967E-1
1.083816888E1;-1.770547628E0;1.122556448E0;3.849449158E-1
1.085621454E1;-2.167373419E0;4.921514094E-1;8.981895447E-1
1.087425159E1;-2.016741753E0;-1.007045507E0;1.418837547E0
1.089229059E1;-1.192267418E0;1.560545683E0;4.657344818E-1
1.091033038E1;-1.952185869E0;3.536389470E-1;2.392482758E-2
1.092837024E1;-1.617554426E0;4.535170794E-1;8.920783997E-1
1.094641004E1;-1.568873644E0;5.734206438E-1;-2.633724213E-1
1.096443799E1;-1.620403767E0;4.920505881E-1;8.948020935E-1
1.098248608E1;-1.526638746E0;3.925783634E-1;1.670769691E0
1.100053162E1;-1.615854025E0;1.179426789E0;5.440320969E-1
1.101856879E1;-2.279295921E0;3.750531673E-1;9.640445709E-1
1.103660797E1;-1.925700665E0;-6.675273180E-1;1.655147552E0
1.105463586E1;-1.262851238E0;5.137472153E-1;2.222061157E-1
1.107268726E1;-1.551991463E0;-7.250034809E-2;1.727583885E0
1.109072693E1;-1.846762061E0;-9.869297743E-1;1.479245186E0
1.110876617E1;-2.148577929E0;1.894607186E0;-1.246843338E-1
1.112680603E1;-2.162163973E0;-1.263846755E0;1.980809212E0
1.114484576E1;-1.140605450E0;-1.245987773E0;8.081245422E-1
1.116287073E1;-1.808131695E0;5.379778743E-1;7.281017303E-1
1.118092480E1;-2.042336464E0;-3.616756201E-1;5.866622925E-1
1.119895221E1;-1.798141241E0;3.262820840E-1;-1.805400848E-2
1.121700147E1;-2.449648619E0;-1.100388765E0;1.052904129E0
1.123504694E1;-1.219651222E0;-1.209840775E-1;5.610103607E-1
1.125308350E1;-2.447188377E0;1.824316502E0;2.811021805E-1
1.127112311E1;-3.060764551E0;8.661634922E-1;-2.905349731E-1
1.128916296E1;-2.764644146E0;-1.792025685E0;2.955401421E0
1.130719171E1;-1.088114738E0;-2.797012329E-1;3.631191254E-1
1.132524152E1;-1.288951874E0;-2.204291105E0;2.500482559E0
1.134328009E1;-1.932043791E0;-2.344210148E0;-3.876886368E-1
1.136132019E1;-5.536215305E-1;-7.131278515E-1;2.864628792E0
1.137935925E1;-2.374804020E0;-8.736552000E-1;-9.929780960E-1
1.139740332E1;-1.752573252E0;1.798759222E0;1.411027908E-1
1.141544037E1;-2.640292645E0;-1.300311565E0;4.446592331E-1
1.143346582E1;-6.337141991E-1;-1.460803509E0;2.301976204E0
1.145151678E1;-1.479478359E0;1.372329235E0;-3.991565704E-1
1.146956171E1;-2.626697302E0;7.391806245E-1;5.219936371E-1
1.148759875E1;-2.697536230E0;1.452896595E-1;1.149027824E0
1.150563824E1;-2.610919952E0;2.746630311E-1;1.922356606E0
1.152367810E1;-2.500183582E0;-4.983799458E-1;1.692540169E0
1.154171728E1;-2.079312325E0;-8.677810431E-1;6.454420090E-1
1.155975714E1;-2.460332870E0;1.666787386E0;-7.279386520E-1
1.157778479E1;-2.464218378E0;-5.322303772E-1;1.610908508E0
1.159583282E1;-1.575911999E0;-1.271843195E0;7.408838272E-1
1.161387585E1;-1.374776602E0;1.423083544E-1;1.077157974E0
1.163191583E1;-1.730896235E0;-1.047470212E0;1.353147507E0
1.164995563E1;-1.075901031E0;1.087814093E0;5.181169510E-1
1.166798755E1;-2.396399736E0;6.905924082E-1;5.036401749E-1
1.168603412E1;-1.773150206E0;-9.226127863E-1;6.792335510E-1
1.170407404E1;-1.047767639E0;1.498440981E0;1.610408783E0
1.172211389E1;-2.265828609E0;1.884588361E0;-1.227549076E0
1.174015369E1;-1.560111046E0;-5.865187645E-1;9.983215332E-1
1.175819293E1;-2.550270081E0;-2.729070187E-2;2.420254707E0
1.177622784E1;-1.715286493E0;1.180642486E0;-2.713785172E-1
1.179427228E1;-2.252815247E0;-7.719554901E-1;1.403036118E-1
1.181230676E1;-1.896866083E0;-8.575732708E-1;1.550830841E0
1.183035016E1;-1.654784918E0;-1.008445740E0;1.069226265E0
1.184839215E1;-2.303140640E0;1.550442576E-1;-9.796695709E-1
1.186643097E1;-2.357475281E0;-6.571013927E-1;2.459509850E0
1.188447034E1;-1.643579960E0;-1.441526532E0;8.941555023E-2
1.190250714E1;-1.969845057E0;-3.439626694E-1;3.284006119E-1
1.192055206E1;-2.048028708E0;-2.025078058E0;3.318459511E0
1.193858923E1;-1.990204811E0;-1.757047296E0;1.854217529E0
1.195662921E1;-2.346506119E0;1.068480372E0;4.521846771E-1
1.197466528E1;-2.418085575E0;-2.176809311E-2;6.474151611E-1
1.199271112E1;-1.926203966E0;-5.576097965E-2;1.464920044E-1
1.201074786E1;-2.650008678E0;-8.218151331E-1;2.220915794E0
1.202878735E1;-1.440691471E0;-1.309394598E0;1.386582375E0
1.204681488E1;-2.507455587E0;-9.429981709E-1;5.462589264E-1
1.206486359E1;-2.164416313E0;-3.490413427E-1;-6.196289062E-1
1.208289752E1;-2.391933441E0;-2.212345123E0;2.370175362E0
1.210094610E1;-1.388348579E0;-6.158161163E-2;-1.540842056E-1
1.211898535E1;-2.123418808E0;1.079615474E0;-5.168676376E-1
1.213702502E1;-2.236750126E0;-2.132918835E-1;1.564920425E0
1.215506451E1;-1.822323084E0;4.399071336E-1;-7.697963715E-1
1.217310462E1;-1.965193152E0;-1.197705507E0;1.043097496E0
1.219113434E1;-1.506046295E0;-2.169227600E0;2.501067162E0
1.220918359E1;-1.698078156E0;1.009535789E-2;1.076506615E0
1.222721112E1;-2.723454714E0;5.983092189E-1;4.589185715E-1
1.224526276E1;-2.048732758E0;1.726601124E-1;7.217283249E-1
1.226330231E1;-2.589667082E0;-5.499881506E-1;1.055719376E0
1.228132910E1;-2.035221100E0;-1.021650553E0;2.024352074E0
1.229938220E1;-1.887560606E0;5.619840622E-1;6.527919769E-1
1.231742151E1;-1.189871311E0;8.716642261E-1;1.212030411E0
1.233546051E1;-6.410219669E-1;2.289135456E-1;3.544235229E-1
1.235350055E1;-2.398082733E0;-9.365490675E-1;1.515688896E0
1.237153992E1;-2.258767843E0;2.041753531E-1;1.004158020E0
1.238957989E1;-1.982219696E0;1.093197346E0;1.500781059E0
1.240761896E1;-9.427704811E-1;-5.023207664E-1;3.796606064E-1
1.242565143E1;-1.617941141E0;1.823419929E-1;4.379062653E-1
1.244369855E1;-2.204132318E0;3.490596414E-1;-2.088432312E-1
1.246173773E1;-1.612250805E0;-1.828260541E0;2.368867874E0
1.247977722E1;-1.606132746E0;1.436714530E-1;-2.656555176E-1
1.249781732E1;-1.607208490E0;-1.876215935E-1;1.188385963E0
1.251585333E1;-2.244006157E0;-1.018456578E0;7.395753860E-1
1.253389685E1;-2.409740448E0;1.950297952E-1;-2.383012772E-1
1.255193567E1;-2.132073641E0;-1.290654182E0;7.628850937E-1
1.256997699E1;-2.243902922E0;-1.657786727E0;6.460294724E-1
1.258801520E1;-1.976773500E0;-1.876042604E0;1.517540932E0
1.260605511E1;-1.490177393E0;-3.385180831E-1;-3.394336700E-1
1.262409430E1;-3.292352200E0;-5.763841867E-1;5.372505188E-1
1.264213397E1;-1.988584757E0;-1.719499588E0;2.249243736E0
1.266015735E1;-2.413570642E0;1.977741599E0;-1.068865776E0
1.267821484E1;-2.931302547E0;-7.306022048E-1;8.090038300E-1
1.269625116E1;-1.748698235E0;-2.078866005E0;3.376045227E0
1.271429254E1;-2.795967102E0;-1.433278322E-1;-2.382053852E0
1.273233215E1;-2.828996181E0;1.190066814E0;8.958282471E-1
1.275037189E1;-2.032329082E0;-1.415125847E0;2.047041893E0
1.276841119E1;-3.215070963E0;2.953407168E-1;1.468915939E0
1.278645074E1;-3.196576118E0;-1.182412863E0;1.172170639E-1
1.280447839E1;-1.299494028E0;-1.015507698E0;1.644828796E0
1.282252838E1;-9.377338886E-1;-1.337014914E0;1.805832863E0
1.284057129E1;3.940396309E-1;-2.557892203E-1;-4.450283051E-1
1.285860925E1;-8.029432297E-1;4.571660161E-1;1.709082603E0
1.287664874E1;-1.171865463E-1;-3.520874977E-1;1.991669655E0
1.289467670E1;-2.366203785E0;4.184819698E0;-2.136529922E0
1.291272772E1;-2.837962151E0;1.079755187E0;1.070358276E0
1.293076740E1;-2.241165161E0;-1.195785284E0;1.922110558E0
1.294880719E1;-1.693500042E0;1.155582547E0;-6.248178482E-1
1.296684680E1;-2.091205120E0;-4.712809324E-1;7.155456543E-1
1.298488580E1;-8.916280270E-1;-9.644252062E-1;1.595216751E0
1.300291388E1;-1.178231239E0;4.689908028E-2;3.351545334E-1
1.302096539E1;-8.347606659E-1;6.428480148E-3;1.680315018E0
1.303900519E1;-3.080800533E0;3.526416123E-1;2.320032120E-1
1.305704443E1;-2.689546585E0;-5.918075442E-1;-1.186647415E-1
1.307508435E1;-3.017341614E0;-2.711840630E0;1.900190353E0
1.309312390E1;-1.849655151E0;-1.278515339E0;2.268333435E0
1.311116394E1;-1.729832888E0;3.961715400E-1;-1.276597977E-1
1.312920093E1;-2.343307734E0;9.599486589E-1;-6.292152405E-2
1.314723962E1;-3.509066105E0;2.006446719E-1;-7.978153229E-1
1.316528497E1;-2.561005116E0;-7.729199529E-1;3.757262230E0
1.318332184E1;-1.379596949E0;-1.054826498E0;1.994036674E0
1.320136017E1;-2.425012112E0;1.338182926E0;2.477016449E-1
1.321940161E1;-3.373603821E0;-2.548525929E-1;-9.328746796E-2
1.323744055E1;-1.442379475E0;-5.654565692E-1;3.097537994E0
1.325548028E1;-1.625931025E0;-3.132767677E-1;5.586872101E-1
1.327351544E1;-1.585407734E0;1.731052637E0;-1.992377281E0
1.329155280E1;-2.042211056E0;-3.633720160E0;2.564746857E0
1.330960187E1;-1.247059822E0;-3.682190418E0;1.934870720E0
1.332763879E1;-2.104122639E0;1.190382481E0;-1.966000557E0
1.334567755E1;-2.335331917E0;-1.485840678E-1;-9.959506989E-1
1.336370319E1;-2.008843422E-1;-1.966358781E0;3.176095009E0
1.338175684E1;-7.319722176E-1;-1.355897188E-1;8.852720261E-1
1.339979669E1;-1.870566368E0;-5.611411333E-1;7.784242630E-1
1.341783606E1;-8.477730751E-1;-5.217850208E-3;1.985425949E0
1.343586945E1;-1.743303061E0;2.883619070E0;-6.449909210E-1
1.345391827E1;-2.916985273E0;1.059484243E0;-2.213753223E0
1.347195514E1;-2.105460167E0;-2.141019583E0;3.122358322E-1
1.348999420E1;-1.280886889E0;-2.250696659E0;3.465230942E0
1.350803375E1;-1.662564039E0;-1.086845160E0;9.576625824E-1
1.352607214E1;-2.787025928E0;2.310719490E-1;-2.379827499E-1
1.354411456E1;-2.382327318E0;-3.639355898E-1;6.410131454E-1
1.356215234E1;-1.796364188E0;6.954015493E-1;5.632762909E-1
1.358019244E1;-2.547461748E0;4.471242130E-1;-2.981481552E-1
1.359822894E1;-1.792789578E0;1.547396183E-2;1.405596733E0
1.361627435E1;-1.843994141E0;1.287122965E0;6.311511993E-2
1.363431061E1;-3.166698217E0;6.112205982E-2;-1.459422112E0
1.365235040E1;-1.910445929E0;3.408356607E-1;5.248222351E-1
1.367038696E1;-1.771450639E0;-1.915018797E0;1.066113472E0
1.368843304E1;-1.370073318E0;-9.209622145E-1;2.350997925E0
1.370646906E1;-2.316993952E0;1.883355081E-1;8.879938126E-1
1.372450854E1;-2.617256641E0;3.426315188E-1;-2.282562256E-1
1.374252686E1;-2.005051613E0;-1.832563877E-1;4.183998108E-1
1.376058832E1;-1.725379586E0;-3.189945221E-1;3.522014618E-1
1.377862994E1;-1.428683758E0;-2.460821629E0;2.392088890E0
1.379666699E1;-1.322116852E0;-1.293051839E0;2.750089645E0
1.381470667E1;-1.675769806E0;4.020530581E-1;-1.008987427E-2
1.383274615E1;-2.371368408E0;6.213222742E-1;-1.025031090E0
1.385078571E1;-1.673411846E0;-1.319095492E-1;1.292925835E0
1.386882526E1;-2.498312712E0;6.517376304E-1;1.338520050E0
1.388686450E1;-2.354572773E0;6.040567756E-1;5.198478699E-3
1.390490485E1;-2.085614681E0;-1.291414738E0;2.025235176E0
1.392294055E1;-1.881001472E0;-3.581261635E-2;3.456974030E-2
1.394098639E1;-2.868105888E0;1.823450565E0;-6.777667999E-1
1.395902295E1;-2.660468817E0;-1.264754057E0;1.937434196E0
1.397705096E1;-1.869446993E0;-1.302325726E-1;5.555658340E-1
1.399510181E1;-2.470616817E0;-1.160595179E0;1.044557571E0
1.401314166E1;-1.341980934E0;-1.971182823E0;8.006954193E-1
1.403118121E1;-1.563415051E0;1.347662210E0;4.687023163E-2
1.404922229E1;-2.380815983E0;4.886895418E-2;-2.158107758E-1
1.406725854E1;-2.657255650E0;2.417169213E-1;9.556798935E-1
1.408529962E1;-3.348363400E0;-7.596046329E-1;3.536424637E-1
1.410333942E1;-2.004742861E0;-7.715710402E-1;2.014476776E0
1.412138367E1;-1.759301782E0;7.363317609E-1;7.206659317E-1
1.413941870E1;-2.257125854E0;-8.486676216E-1;1.828372955E0
1.415745856E1;-1.331765890E0;-9.224101305E-1;1.928222656E0
1.417549756E1;-1.349031210E0;1.506037116E0;-5.299720764E-1
1.419353723E1;-1.709709287E0;7.350446582E-1;4.710121155E-1
1.421157501E1;-1.252287388E0;-1.156451106E0;1.161808968E0
1.422961719E1;-2.065634727E0;-3.920139074E-1;7.903985977E-1
1.424765564E1;-1.956825733E0;1.155963302E0;-2.931594849E-3
1.426569049E1;-2.359379530E0;-7.432574034E-1;2.663478851E-1
1.428373407E1;-1.569531202E0;-1.752074361E-1;3.350257874E-2
1.430177429E1;-2.464827299E0;-6.427639723E-1;1.092428207E0
1.431981372E1;-1.813923836E0;-1.116368175E0;-7.752256393E-1
1.433785400E1;-1.315711975E0;-1.108021498E0;1.302287102E0
1.435588281E1;-1.140595436E0;-3.524765968E-1;-2.049331665E-1
1.437392957E1;-2.051053047E0;-4.489309788E-1;4.750471115E-1
1.439197479E1;-2.080019712E0;-2.386535168E0;2.063577652E0
1.441001208E1;-1.693987846E0;-3.891706467E-2;7.947683334E-1
1.442805078E1;-2.380699158E0;-2.310347557E-1;1.029126167E0
1.444609064E1;-1.084413290E0;5.767349005E-1;3.898200989E-1
1.446413019E1;-2.508520603E0;1.084997296E0;9.430742264E-1
1.448216974E1;-1.291700363E0;4.463374615E-3;2.558439255E0
1.450020312E1;-1.818506122E0;3.431576490E-1;1.323958397E0
1.451824902E1;-2.609452009E0;2.146140575E0;-3.088092804E-1
1.453628333E1;-2.189220667E0;3.954488337E-1;6.663265228E-1
1.455432849E1;-1.106472492E0;-2.556659579E-1;1.089095116E0
1.457236719E1;-1.794732332E0;5.284345150E-2;-1.027756691E0
1.459039514E1;-1.880085230E0;2.214938998E-1;9.242877960E-1
1.460844653E1;-1.784689426E0;-1.910482645E-1;-6.509017944E-2
1.462648620E1;-1.643556237E0;5.008802414E-1;-4.446029663E-3
1.464452484E1;-1.905819893E0;1.138504148E-1;8.475894928E-1
1.466256207E1;-1.670977831E0;7.210530639E-1;3.766040802E-1
1.468060431E1;-2.207698345E0;3.419381976E-1;-6.912231445E-1
1.469864703E1;-1.960975409E0;-5.127965212E-1;2.556245804E0
1.471668323E1;-1.726991415E0;-1.536227465E-1;7.507581711E-1
1.473470904E1;-2.287148237E0;4.674097896E-1;6.126260757E-1
1.475276123E1;-2.661791563E0;2.471995354E-1;-1.011125565E0
1.477080359E1;-2.788149834E0;-3.612537384E-1;4.928016663E-1
1.478884155E1;-1.792117119E0;-1.349474072E0;3.777176857E0
1.480688092E1;-1.460019588E0;-1.100108266E0;1.055799484E0
1.482492041E1;-2.537272930E0;2.363127947E0;-1.148362160E0
1.484296033E1;-2.243152618E0;1.597960591E-1;-1.387269020E0
1.486099933E1;-2.219697475E0;-6.260169744E-1;2.451915741E-1
1.487903925E1;-1.754366994E0;-1.813867807E0;2.162654877E0
1.489707568E1;-1.916741729E0;-1.962933064E0;8.263206482E-2
1.491512152E1;-2.226388931E0;-5.936810374E-1;2.520259857E0
1.493315747E1;-2.711146832E0;-1.131186247E0;3.326091766E-1
1.495119708E1;-3.222269773E0;2.360674143E0;-7.020988464E-1
1.496923352E1;-3.712738991E0;-4.443123341E-1;1.433713913E0
1.498727350E1;-3.205091000E0;-1.703699350E0;2.457804680E0
1.500531818E1;-2.590322018E0;9.274375439E-1;-8.973026276E-1
1.502335516E1;-2.599317074E0;-1.009616375E0;1.338006020E0
1.504139404E1;-1.609823227E0;-6.946382523E-1;1.601660728E0
1.505943573E1;-1.701834917E0;-2.769519091E-1;2.925132751E0
1.507747339E1;-1.976310730E0;2.054102898E0;-6.582031250E-1
1.509551318E1;-2.871024609E0;2.615225315E-1;1.881867409E0
1.511355261E1;-2.215381861E0;6.734681129E-2;1.734359741E0
1.513158966E1;-2.237516880E0;2.943450928E0;2.385702133E-1
1.514963428E1;-3.285667181E0;1.298079491E0;-9.302635193E-1
1.516767145E1;-2.768108606E0;-7.340371609E-1;2.653520584E0
1.518571075E1;-2.221004248E0;-1.944687247E0;2.427875519E0
1.520374231E1;-1.911901951E0;1.787375212E-1;2.860774994E-1
1.522178900E1;-2.071767807E0;-1.002156734E-2;1.084700584E0
1.523982916E1;-2.079308748E0;6.638490558E-1;-2.907896042E-1
1.525786871E1;-2.927411318E0;-5.454980135E-1;6.352853775E-1
1.527590436E1;-1.811454296E0;-8.245048523E-1;2.915180206E0
1.529394751E1;-1.345097303E0;4.486572742E-2;5.075998306E-1
1.531198743E1;-2.179317713E0;5.513068438E-1;4.911746979E-1
1.533002661E1;-2.144786835E0;-9.377740622E-1;1.397740364E0
1.534806629E1;-1.943555355E0;-6.672784090E-1;1.094527245E0
1.536609753E1;-2.204694748E0;-5.295951366E-1;2.548215866E0
1.538414807E1;-2.047430277E0;-1.552987099E-2;2.213125229E-1
1.540218488E1;-2.848631144E0;2.148019791E0;-2.391942024E0
1.542022473E1;-2.344041824E0;-9.451003075E-1;1.067360878E0
1.543826044E1;-2.321935177E0;-4.960739613E-2;1.509192467E0
1.545630621E1;-3.617362022E0;-1.627372503E-1;1.129073143E0
1.547434265E1;-3.285282612E0;-1.752876282E0;2.169237137E0
1.549238208E1;-2.737222433E0;-1.859009266E0;1.460542679E0
1.551042139E1;-1.482203007E0;1.122209787E0;1.494803429E0
1.552846124E1;-3.021556854E0;-5.018967390E-1;1.511401176E0
1.554650061E1;-3.848440647E0;1.842150688E0;3.557357788E-1
1.556454004E1;-2.826796532E0;5.740864277E-1;2.061152458E0
1.558257477E1;-1.935079098E0;4.576336145E-1;-1.618003845E-2
1.560061963E1;-3.785228729E-1;1.692919731E-1;1.988379478E0
1.561866101E1;-2.576907158E0;2.424273491E-1;2.423975945E0
1.563669830E1;-1.354365349E0;1.200550795E0;4.885025024E-1
1.565473724E1;-2.841423512E0;1.008052826E0;2.313843727E0
1.567277692E1;-2.651612282E0;1.725164652E0;6.691198349E-1
1.569081671E1;-2.976201057E0;3.743907213E-1;3.417403221E0
1.570885632E1;-2.329630375E0;-8.142209053E-1;6.277456284E-1
1.572689502E1;-2.776650190E0;-1.045864820E-1;2.102951050E0
1.574493481E1;-2.350173473E0;9.170431495E-1;-7.887296677E-1
1.576297418E1;-1.875412226E0;-3.849555254E-1;-7.008075714E-2
1.578101422E1;-1.470886469E0;-7.857341766E-1;1.917716980E0
1.579905292E1;-1.217499495E0;-3.621315479E0;-2.926082611E-1
1.581709125E1;3.382136822E-1;-1.927956343E-1;3.456091881E0
1.583513025E1;-1.238533974E0;2.670564651E-1;-1.930236816E-2
1.585317426E1;-2.225630522E0;1.072183371E0;1.630183220E0
1.587121094E1;-3.063455343E0;4.148259163E-1;3.798942566E-1
1.588925073E1;-2.129767418E0;-1.530219436E0;3.222522736E0
1.590729016E1;-2.319204807E0;1.100909710E-2;7.933597565E-1
1.592532959E1;-2.369229317E0;1.187805772E0;3.826246262E-1
1.594336896E1;-1.727827787E0;-3.071664810E0;2.660778999E0
1.596139716E1;2.113747597E-1;9.210351110E-1;-2.964859009E-1
1.597944904E1;-9.956727028E-1;6.807252169E-1;2.928895950E-1
1.599748791E1;-4.034280777E-1;-1.269516945E-1;1.196712494E0
1.601552686E1;-7.274909019E-1;2.736572266E0;-2.638152122E0
1.603356647E1;-2.001192093E0;-6.320443153E-1;7.497901917E-1
1.605160260E1;-1.132637739E0;-2.406729221E0;4.162355423E0
1.606964142E1;-1.175516844E0;3.582566023E0;-1.214648724E0
1.608768872E1;-3.351364851E0;3.132120371E-1;2.345741272E0
1.610572436E1;-3.259544373E0;2.596926451E0;-2.850046158E-1
1.612376343E1;-3.281083584E0;-6.494576931E-1;-3.436508179E-1
1.614180359E1;-1.726854801E0;-6.158590317E-1;4.182892799E0
1.615984228E1;-4.507458210E-1;2.454546690E0;-4.805167675E0
1.617788214E1;-8.559937477E-1;1.073368788E0;2.931835175E0
1.619591675E1;-9.554331303E-1;5.774168372E-1;6.489591599E-1
1.621396185E1;-8.099198341E-1;-1.657202601E0;5.242185593E0
1.623199970E1;-2.680625916E-1;1.889546990E0;-5.527515411E-1
1.625004004E1;-8.968770504E-1;1.330829144E0;-1.506156921E-1
1.626807916E1;-7.062430382E-1;3.510461450E-1;1.305755615E0
1.628611682E1;-1.551598549E0;-7.242381573E-3;1.041095734E0
1.630415784E1;-3.797693253E-1;1.439361453E0;-8.293685913E-1
1.632219782E1;-1.157693863E0;-8.495494127E-1;7.512483597E-1
1.634023736E1;-3.784408569E-1;-5.524724722E-1;2.467083931E0
1.635827405E1;-3.171131611E-1;1.532421112E0;-5.114803314E-1
1.637631885E1;-8.788776398E-1;6.978744864E-1;-9.265193939E-1
1.639435571E1;-1.032238007E-1;-1.523031235E0;2.143178940E0
1.641239502E1;1.607334852E0;5.269981027E-1;-5.805940628E-1
1.643043445E1;1.110479832E-1;-9.278009534E-1;-1.020889282E-1
1.644847082E1;1.168625116E0;-1.117976427E0;2.390552521E0
1.646651599E1;1.282463551E0;-9.452831745E-1;-2.856836319E-1
1.648455255E1;9.846580029E-1;4.514290094E-1;-1.184542656E0
1.650257800E1;-9.707617760E-2;5.305621028E-2;-1.445266724E0
1.652063416E1;7.976894379E-1;1.368949652E0;8.074483871E-1
1.653867126E1;-9.220652580E-1;1.500046611E0;3.720407486E-1
1.655671045E1;-5.377264023E-1;2.193570614E0;-2.476835251E0
1.657475031E1;-4.751873016E-2;-9.516057968E-1;-1.028108597E-1
1.659278638E1;5.619332790E-1;-1.139899611E0;-1.185703278E-2
1.661083185E1;2.386839390E-1;9.198716283E-1;-2.418305397E0
1.662886816E1;-4.844963551E-1;1.193595409E0;-1.314717293E0
1.664690833E1;-9.900565147E-1;-5.750512481E-1;1.087331772E0
1.666494183E1;-5.247324705E-1;-3.647905588E-1;1.975387573E0
1.668298212E1;-2.428518534E-1;1.048622608E0;-2.338927269E0
1.670103046E1;-4.676954746E-1;1.508353829E0;-1.307844162E0
1.671906592E1;-2.835403681E-1;-4.730041027E-1;3.239975929E0
1.673710480E1;2.581107616E-2;1.389692307E0;2.088909149E-1
1.675514429E1;-3.581106663E-2;1.183300972E0;-2.143361092E0
1.677318384E1;-1.547892094E-1;-4.599479586E-2;7.197761536E-2
1.679122351E1;-5.201872587E-1;-7.751507685E-3;2.356870651E0
1.680925976E1;-3.701870441E-1;1.019714713E0;-1.297689438E0
1.682730218E1;-4.987637401E-1;-1.165250763E-1;-5.040130615E-1
1.684534167E1;5.272665024E-1;-1.844117790E-1;1.890286446E0
1.686338141E1;5.917540789E-1;3.984434903E-1;-1.720523834E-1
1.688141937E1;2.243148088E-1;1.466704369E0;-1.603147507E0
1.689944885E1;2.904415131E-1;-1.229270339E0;-1.805014133E0
1.691749927E1;8.173105717E-1;-2.218861580E-1;2.487486839E0
1.693553906E1;4.849363565E-1;1.078160763E0;8.762931824E-2
1.695357819E1;6.847604513E-1;2.076174021E0;-3.731221676E0
1.697161774E1;9.065843821E-1;-1.267094731E0;1.866178513E-1
1.698965674E1;1.278987646E0;-1.626322508E0;3.524126053E0
1.700769684E1;9.507951736E-1;1.801100492E0;-7.800397873E-1
1.702573578E1;5.504430532E-1;2.162446082E-1;-3.848900795E0
1.704376544E1;1.126368046E0;-2.171971798E0;6.339658737E0
1.706181134E1;1.599364519E0;8.530180454E-1;2.397254944E0
1.707985767E1;1.100017071E0;1.217769861E0;-3.291775227E0
1.709789337E1;1.802372932E0;1.106650710E0;1.026152611E0
1.711592877E1;1.643005848E0;-4.538714886E-1;2.170885086E0
1.713397241E1;3.988574147E-1;2.202875376E0;-2.666533947E0
1.715201227E1;3.843491673E-1;2.429646492E0;-5.055341721E0
1.717005102E1;-7.961395383E-2;-5.381097198E-1;-1.812110901E0
1.718807861E1;2.882163227E-1;1.836393625E-1;1.022948265E0
1.720612823E1;-5.467056036E-1;-1.184950948E0;-9.824934006E-1
1.722417145E1;-5.106708407E-1;7.683011889E-1;3.704919815E-1
1.724220874E1;-9.932892323E-1;9.963547587E-1;-2.592996597E0
1.726024854E1;-1.016553283E0;-9.892649055E-1;3.554573059E0
1.727826721E1;-1.021831274E0;8.316195607E-1;-1.593568802E0
1.729632739E1;-9.947281480E-1;1.761709213E0;2.027482986E-1
1.731436914E1;-1.585547477E-1;-9.059341550E-1;2.552680969E-1
1.733240601E1;-3.586980700E-1;2.246522188E0;3.260450363E-1
1.735043335E1;-3.921681345E-1;-5.478879213E-1;-8.975706100E-1
1.736848517E1;-1.945772171E-1;1.823489308E0;1.672929764E0
1.738652393E1;-7.574431300E-1;5.498956442E-1;-1.048641205E0
1.740456329E1;-5.093680024E-1;1.771511912E0;-4.189271927E-1
1.742260211E1;-8.047550917E-2;1.603326321E0;6.203079224E-2
1.744064386E1;-4.863007069E-1;-1.338777542E0;-1.354589462E-1
1.745868134E1;-3.049031794E-1;2.292949915E0;-5.446434021E-2
1.747672119E1;-3.714649677E-1;-6.165099144E-1;-1.483116150E-1
1.749476105E1;-5.286839008E-1;5.587837696E-1;1.666153908E0
1.751278839E1;-5.273821950E-2;-2.917255402E0;1.322546005E-1
1.753083929E1;3.624913990E-1;-1.839144468E0;8.477602005E-1
1.754887897E1;7.880488038E-1;-4.936207294E0;6.604814529E-1
1.756691821E1;5.508135557E-1;1.027816296E0;1.845417023E-1
1.758495520E1;-9.307335615E-1;2.077934742E0;-1.850235939E0
1.760299945E1;-1.341402769E0;2.190926075E0;-6.780748367E-1
1.762103668E1;-1.275572538E0;2.285060644E0;2.551412582E-1
1.763907587E1;-8.195652962E-1;1.264655232E0;1.381230354E0
1.765711542E1;-4.709984362E-1;2.161837339E0;-1.283393860E0
1.767515155E1;-1.250961065E0;2.323324442E0;-9.005336761E-1
1.769319708E1;5.968779325E-2;-1.251067042E0;-6.166620255E-1
1.771123370E1;3.701968789E-1;-2.009724617E0;3.073382378E0
1.772927319E1;1.488304853E0;-3.313317895E-1;-1.390028000E0
1.774731220E1;3.853164315E-1;-1.945178747E0;-1.001310349E-1
1.776535162E1;1.201405525E-1;-1.051222801E0;-2.790517807E-1
1.778339136E1;6.380854845E-1;9.419336915E-1;8.033905029E-1
1.780143164E1;1.193794608E-1;1.448410749E0;7.612257004E-1
1.781946924E1;7.739108205E-1;1.527700424E0;8.589172363E-1
1.783750934E1;1.881432533E-1;1.217465281E0;2.419252396E-1
1.785554889E1;2.177672386E-1;2.287885904E0;-1.976384163E0
1.787358844E1;5.928785205E-1;6.548187733E-1;-2.390477180E0
1.789161011E1;4.064320922E-1;-1.772118330E0;2.641526222E0
1.790966406E1;1.017531037E0;6.800143123E-1;-2.069187164E-1
1.792770929E1;9.331174493E-1;7.126135230E-1;-7.334747314E-1
1.794574634E1;7.516063452E-1;1.186847091E-1;1.331968307E-1
1.796378467E1;6.324062943E-1;-8.020393550E-2;-1.699638367E-2
1.798182636E1;3.113701940E-1;7.304086685E-1;4.230384827E-1
1.799986212E1;-7.835912704E-2;-1.703571081E0;4.149637222E-1
1.801790363E1;6.204400063E-1;-3.742173314E-1;1.027345657E-1
1.803593604E1;7.049326897E-1;-1.709214211E0;-1.194438934E-1
1.805397925E1;5.198202729E-1;-1.832130075E0;1.660538673E0
1.807202448E1;2.865951061E-1;6.032056808E-1;-1.877676964E0
1.809006134E1;1.010304689E-1;2.651478946E-1;-9.583539963E-1
1.810810010E1;3.698855639E-1;4.916980863E-1;-4.726409912E-2
1.812613965E1;6.601939797E-1;-6.433223486E-1;9.828815460E-1
1.814417896E1;1.454712749E-1;-3.294935226E-1;3.289213181E-1
1.816221851E1;1.949287057E-1;9.158669710E-1;5.832538605E-1
1.818025763E1;-5.751587749E-1;9.001502395E-2;8.764781952E-1
1.819829675E1;-9.884717464E-1;1.233736753E0;-7.171411514E-1
1.821633704E1;-1.088470697E0;2.656260490E0;-1.699059486E0
1.823437628E1;-2.004524946E0;-7.582941651E-1;1.971263885E-1
1.825241504E1;-1.655903816E0;8.378058672E-1;-5.427064896E-1
1.827045227E1;-1.303084731E0;-1.403351665E0;1.053387642E0
1.828849335E1;-9.684759378E-1;1.034147978E0;-6.968498230E-3
1.830653442E1;-9.314584136E-1;3.037031591E-1;-1.195214272E0
1.832457226E1;-6.711052656E-1;-6.691662073E-1;1.838726997E0
1.834260938E1;-2.351325154E-1;-3.095773458E-1;-2.491492271E0
1.836065430E1;-1.092565298E0;-9.829732776E-2;-6.141414642E-1
1.837869129E1;-6.129509211E-1;-7.048076391E-1;9.557723999E-2
1.839673016E1;-7.509195805E-1;-1.465610743E0;3.426728249E0
1.841475879E1;-3.933272362E-1;1.909713507E0;-1.103578568E0
1.843280457E1;-4.710412025E-1;1.390591383E0;-1.375789642E-1
1.845085327E1;-1.661622524E-1;3.972522616E-1;2.341470718E-1
1.846888763E1;1.530672312E-1;2.709761560E-1;1.137056351E0
1.848692706E1;6.508225203E-1;5.360490084E-1;-1.602056503E0
1.850495508E1;5.573861599E-1;-1.461492419E0;1.376138687E0
1.852300592E1;4.819521904E-1;-2.854695916E-1;-1.113070488E0
1.854104492E1;1.862381697E-1;-2.257313013E0;1.371860504E-2
1.855908459E1;-3.061698675E-1;-3.525578976E-1;6.003799438E-1
1.857712415E1;-1.246105194E0;-5.468350053E-1;-5.612468719E-2
1.859516364E1;-1.591535449E0;2.129292488E-2;3.997726440E-1
1.861320264E1;-2.079143524E0;2.383146524E0;-1.195106506E0
1.863124335E1;-1.417691231E0;1.746454597E0;-1.635942459E-1
1.864928034E1;-9.253622293E-1;1.091982841E0;7.952384949E-1
1.866732104E1;-5.643233657E-1;-8.484214544E-1;9.988241196E-1
1.868535992E1;-1.325782537E-1;6.269382238E-1;-1.618576050E-1
1.870339966E1;-6.688562036E-1;-9.919001460E-1;-3.392686844E-1
1.872143890E1;-2.735358477E-1;-2.163920701E-1;2.822685242E-2
1.873947888E1;-8.269455433E-1;6.638252735E-1;1.640062332E-1
1.875751752E1;-1.478467107E0;-5.449854136E-1;-1.504678726E-1
1.877555719E1;-1.819368601E0;4.482626617E-1;7.315397263E-1
1.879359644E1;-2.380645275E0;4.942085147E-1;-1.017736435E0
1.881163464E1;-1.638218760E0;-2.298247814E-2;8.844614029E-1
1.882967664E1;-2.335488796E0;8.164556026E-1;-5.822353363E-1
1.884771466E1;-2.459619045E0;1.564052224E0;-2.770899773E0
1.886575824E1;-2.564234257E0;-1.652555227E0;1.403279305E0
1.888379236E1;-1.910353899E0;-1.029988766E0;1.693855286E0
1.890183118E1;-8.775372505E-1;-1.374380708E0;1.185912132E0
1.891987280E1;-1.062418222E0;-1.285359263E0;3.370952606E-2
1.893791144E1;-9.517666101E-1;-2.197830677E0;1.479256630E0
1.895595123E1;-1.409413815E0;-8.086807728E-1;-5.869846344E-1
1.897398975E1;-1.859396219E0;-7.222345471E-1;-1.446876526E-1
1.899202954E1;-1.294825196E0;5.707070231E-2;8.194999695E-1
1.901006860E1;-1.270827293E0;-1.081829786E0;1.224489212E-1
1.902810822E1;-2.921502590E-1;4.281437993E-1;1.055354118E0
1.904614691E1;-2.169899940E-1;9.024335146E-1;1.148259163E0
1.906418683E1;-9.395563602E-1;3.179050982E-4;-5.020046234E-2
1.908222626E1;-9.556965828E-1;5.028092861E-1;1.368427277E0
1.910026599E1;-1.648793459E0;2.820688486E0;-6.231241226E-1
1.911829169E1;-1.997312903E0;4.209985137E-1;2.176850319E0
1.913634522E1;-2.151782990E0;1.062611222E0;1.136409760E0
1.915438361E1;-2.648168325E0;5.479303598E-1;-1.705775738E0
1.917242316E1;-2.376230001E0;1.932495534E-1;2.330465317E-1
1.919046185E1;-2.205731392E0;-5.881059766E-1;1.417945862E0
1.920850146E1;-1.355141282E0;-1.163893223E0;9.289302826E-1
1.922654108E1;-1.793402672E0;-2.311052382E-1;3.778314590E-1
1.924458038E1;-2.173159838E0;4.093822241E-1;2.089655876E0
1.926260736E1;-2.378530979E0;3.045116365E-1;-8.220624924E-1
1.928065607E1;-2.185587168E0;3.718950152E-1;1.364869118E0
1.929870117E1;-1.495429635E0;3.683775663E-1;-3.201427460E-1
1.931673798E1;-1.713910818E0;1.324818850E0;2.962055206E-1
1.933477692E1;-1.325609446E0;-9.932994843E-1;-9.426345825E-1
1.935281641E1;-1.382857800E0;-2.619379282E0;4.120064735E0
1.937085590E1;-1.571008921E0;2.393488586E-1;-7.098979950E-1
1.938889538E1;-7.276687622E-1;-2.328928947E0;3.548688889E-1
1.940693378E1;-1.081240416E0;-1.655174017E0;2.779396057E0
1.942497064E1;-1.581416130E-1;-1.253064394E0;-2.439880371E-2
1.944301569E1;-7.097811699E-1;1.332009912E0;-5.557432175E-1
1.946105274E1;-1.577754736E0;2.210170269E0;-1.408478737E0
1.947909174E1;-5.445907116E-1;9.261614084E-1;1.263190269E0
1.949713464E1;-1.403860807E0;1.401579618E0;1.776146889E0
1.951516742E1;-9.746704102E-1;2.979702473E0;-6.863861084E-1
1.953321271E1;-1.396959782E0;1.437632889E-1;-2.684507370E-1
1.955124774E1;-1.461076617E0;1.171363592E0;6.036739349E-1
1.956928961E1;-5.692200661E-1;-1.477918744E0;5.645618439E-1
1.958732764E1;-1.251579523E0;2.192748711E-2;1.092664719E0
1.960536700E1;-3.814356327E-1;-4.475923255E-2;-1.498608589E0
1.962340601E1;-3.251760006E-1;-1.844580293E0;1.275805473E0
1.964143347E1;-3.087749481E-1;1.578503251E0;1.195008278E0
1.965948511E1;-9.635450840E-1;1.470036507E0;-2.774882793E0
1.967752478E1;-1.695142508E0;-6.511486322E-2;3.566809654E0
1.969555603E1;-2.001611948E0;4.380416870E-1;1.841342926E0
1.971360584E1;-1.229986548E0;-2.159473002E-1;-7.464408875E-2
1.973163062E1;-1.007022858E0;4.217841327E-1;-1.777333260E0
1.974968213E1;-3.147644997E-1;-2.764914274E0;2.195761681E0
1.976772070E1;5.437781811E-1;-1.147025347E0;-1.144677162E0
1.978575659E1;-2.632069588E-1;-2.409434795E0;1.567604065E0
1.980379926E1;8.338499069E-2;-9.746041298E-1;-7.249765396E-1
1.982183923E1;-6.126619577E-1;-1.331505656E0;3.180875778E-1
1.983987787E1;-1.177957058E-1;-1.307778597E0;1.895634651E0
1.985791772E1;-4.243640900E-1;1.238964677E0;4.713411331E-1
1.987594684E1;4.087791443E-1;2.674827576E0;-1.173490524E0
1.989399579E1;1.604676247E-1;2.729259968E0;-3.010472298E0
1.991203644E1;7.190632820E-1;-8.677378893E-1;9.923915863E-1
1.993007489E1;-3.613266945E-1;9.361379147E-1;-9.562969208E-2
1.994811432E1;-1.757215261E-1;-1.302186728E0;8.520336151E-1
1.996615381E1;-1.248507619E0;-7.697294950E-1;2.142135620E0
1.998419263E1;-1.972123265E0;1.243474483E-1;-1.401042938E-2
2.000223212E1;-2.412994385E0;-1.564418375E-1;1.153537750E0
2.002025958E1;-2.171557188E0;1.828669310E0;-2.406718254E0
2.003830640E1;-1.812967062E0;-2.262830019E0;1.815083504E0
2.005635449E1;-1.264983654E0;4.161635935E-1;-6.149072647E-1
2.007438940E1;-1.264735937E0;-1.214920282E0;3.139162064E-1
2.009242902E1;-1.466764212E0;5.023314953E-1;-5.604314804E-1
2.011046582E1;-2.101326227E0;-1.101887524E-1;-9.637508392E-1
2.012850702E1;-1.618728995E0;-5.915306211E-1;-1.100111008E-1
2.014654663E1;-1.896013141E0;-1.594599724E0;1.211335182E0
2.016458569E1;-1.804340124E0;-3.136907816E0;3.379214287E0
2.018262262E1;-1.422051072E0;-2.568924189E0;1.722922325E0
2.020066711E1;-6.091310978E-1;-1.613658071E0;1.347623825E0
2.021870416E1;-6.624448299E-1;-1.298770308E0;-1.300447464E0
2.023674322E1;-1.169914842E0;-1.378900766E0;1.669675827E0
2.025478265E1;-2.204715967E0;1.299264312E0;1.929489136E0
2.027282068E1;-2.491752863E0;4.500691414E0;-2.443331718E0
2.029086194E1;-2.137337208E0;1.914004683E0;-4.170340538E0
2.030890039E1;-2.425476551E0;4.070541859E-1;2.712421417E0
2.032694000E1;-1.496250868E0;-9.366531372E-1;8.418369293E-1
2.034497870E1;-1.103805184E0;1.816298246E0;-1.491111755E0
2.036301807E1;-8.283476830E-1;-3.085197926E0;2.352807045E0
2.038104639E1;-1.748395443E0;8.423446417E-1;1.060688972E0
2.039909741E1;4.039306641E-1;-1.640962839E0;-5.750872135E0
2.041713342E1;-7.645182610E-1;3.006004393E-1;5.213932037E0
2.043517834E1;-5.962505341E-1;-5.973105431E-1;-1.926107883E0
2.045321484E1;2.306351662E-1;-9.734387398E-1;4.881872177E0
2.047125354E1;-1.619802117E0;2.347702742E0;-3.047418594E-1
2.048928802E1;-5.991244316E-1;-5.680440068E-1;-1.347008705E0
2.050733105E1;-9.768984318E-1;-7.899364829E-2;1.772417068E0
2.052537372E1;-9.459288120E-1;-7.905381918E-1;4.306974411E-1
2.054341162E1;2.781291008E-1;1.207611084E0;-1.604911804E0
2.056145038E1;-1.228822947E0;-3.550167084E0;-6.940670013E-1
2.057948999E1;-4.701806307E-1;-3.299956322E0;4.139966011E0
2.059752936E1;-1.040654421E0;-3.219171524E0;-1.156898499E0
2.061556885E1;-1.293554425E0;-1.702420473E0;2.210615158E0
2.063359534E1;-1.910922527E0;3.316481113E0;1.059980392E-1
2.065164722E1;-1.130478144E0;3.146601617E-1;-1.845106125E0
2.066968634E1;-9.711859226E-1;9.206523299E-1;-8.583917618E-1
2.068772607E1;1.442034245E-1;6.698302031E-1;6.383810043E-1
2.070576123E1;-7.832765579E-3;-1.337317526E-1;-6.190128326E-1
2.072380035E1;-4.677295685E-2;4.026906788E-1;1.218391418E0
2.074184344E1;-1.436318159E-1;-1.259222865E0;1.103817940E0
2.075987176E1;-1.892917752E0;-9.914154410E-1;2.944694519E0
2.077792194E1;-1.676106453E0;-1.173028052E-1;-2.612775326E0
2.079596142E1;-2.306655645E0;-8.547673225E-1;-1.961776733E0
2.081400073E1;-8.643320799E-1;-2.832604885E0;-1.173181534E-1
2.083204028E1;-1.606610775E0;-1.339329243E0;6.936140060E-1
2.085007910E1;-1.892338872E0;6.476324797E-1;-1.783848763E0
2.086810345E1;-3.015838623E0;-1.255542874E0;-4.051771164E-1
2.088615472E1;-1.729807019E0;-1.474480033E-1;2.060275078E0
2.090420032E1;-1.655442119E0;2.227035284E0;-3.910655975E-1
2.092223627E1;-2.853399038E0;3.532426059E-1;2.078886032E-1
2.094027588E1;-2.100153446E0;-2.244362354E0;2.247903824E0
2.095831488E1;-2.005481720E0;1.122009873E0;3.965538979E0
2.097635480E1;-1.874650240E0;-1.414677858E0;1.438484192E-1
2.099439331E1;1.081309080E0;-3.316996574E0;7.477178574E-1
2.101243280E1;-1.239505291E0;-1.122168064E0;2.961484909E0
2.103047192E1;-1.875068545E0;-3.386306763E-1;-6.557178497E-1
2.104851154E1;1.663310051E0;-4.552553177E0;2.991370201E0
2.106655048E1;-8.263221979E-1;-8.182990551E-1;6.038148880E0
2.108458960E1;-6.370754242E-1;1.017931581E0;5.694274902E-1
2.110263306E1;-2.026405334E0;-2.839973271E-1;-1.622996807E0
2.112066986E1;-3.258785963E0;-4.780657291E-1;6.964468002E0
2.113870636E1;-3.149193287E0;1.969157815E0;-4.237976074E-1
2.115674701E1;-1.452398658E0;-2.150415897E0;2.578136444E0
2.117478644E1;-2.428855658E0;1.029677987E0;2.608356476E0
2.119282574E1;-1.650761485E0;-6.057190895E-2;-2.557917595E0
2.121086462E1;-1.703945875E0;-1.035200238E0;1.799256325E0
2.122890430E1;-2.231550455E0;4.911406994E0;-9.031542778E0
2.124694312E1;-2.838179350E0;-7.472339630E0;-6.249362946E0
2.126498316E1;-3.821118355E0;2.855597138E-1;1.143391514E1
2.128302148E1;-1.077303052E0;-5.389305353E-1;-6.096936226E0
2.130106128E1;-3.460478067E0;1.266025901E0;9.027318954E-1
2.131910077E1;-4.466554642E0;-1.826778650E0;8.702945709E0
2.133714539E1;-1.578550696E0;4.087614059E0;-5.862743378E0
2.135517590E1;-1.466699600E0;2.956056833E0;-4.897473335E0
2.137322125E1;-7.469463348E-1;-6.628923893E0;5.674520493E0
2.139125665E1;-2.883100510E-2;-4.758193016E0;6.519424438E0
2.140929535E1;7.545361519E-1;-5.392776728E-1;-4.177489281E0
2.142733881E1;1.649526119E0;-3.656930208E0;-1.128787994E-1
2.144537524E1;1.033892870E0;-5.298573971E0;4.662416458E0
2.146341455E1;-3.474595547E-1;-6.380008698E0;1.710748672E0
2.148144116E1;-1.596923113E0;-3.975970268E0;-6.090316772E-1
2.149948852E1;-2.048856497E0;-9.498077393E0;3.424327850E0
2.151753735E1;-1.039424181E0;-1.063804722E1;2.965390205E0
2.153557196E1;-4.154622555E-1;-2.753558636E0;-7.077511787E0
2.155361133E1;9.670052528E-1;-2.012040377E0;-1.943145275E0
2.157164899E1;-8.185822964E-1;-2.434607029E0;8.940287590E0
2.158969080E1;-1.099886894E-1;-8.371502161E-2;-2.184970856E0
2.160772846E1;3.669548512E0;-3.468168378E-1;-2.574573517E0
2.162575964E1;3.453400373E0;1.506357193E0;2.392500877E0
2.164380695E1;8.469228745E-1;2.499164104E0;1.725349426E0
2.166184680E1;9.017612934E-1;4.772131920E0;-4.287593842E0
2.167988617E1;2.436392546E0;2.487624645E0;-3.470636368E0
2.169792590E1;2.049178839E0;-1.797092319E0;5.156867981E0
2.171595215E1;9.013776779E-1;3.856235504E0;2.627066612E0
2.173400384E1;5.232977867E-2;8.195486069E0;-2.154759407E0
2.175204321E1;-6.671967506E-1;4.704806328E0;-4.831857681E-1
2.177008301E1;-2.502880096E-1;1.996983528E0;1.610867500E0
2.178812158E1;-3.360078335E-1;4.673708439E0;-4.493303299E-1
2.180616083E1;-4.891221523E-1;8.310366631E0;6.920146942E-1
2.182420044E1;-2.424360752E0;1.090013123E1;-7.142554283E0
2.184223975E1;-1.891527176E0;2.913423538E0;-2.126735210E0
2.186027832E1;-7.279375792E-1;3.589513302E0;7.337894440E0
2.187831518E1;-2.601364136E0;-8.539890051E-1;3.768949509E0
2.189636768E1;-6.356449723E-1;-3.926377058E0;5.291056633E0
2.191439697E1;-4.255697250E0;6.911404610E0;-5.999912262E0
2.193243579E1;-5.318367481E0;-2.168743610E0;-5.022245407E0
2.195047534E1;-3.764709234E0;-5.743126869E0;6.081901550E0
2.196851465E1;-5.386174202E0;-3.953515291E0;-3.362881184E0
2.198655396E1;-5.912442207E0;-4.729608059E0;-3.629895210E0
2.200459253E1;-6.313580513E0;2.488799095E-1;4.682633400E0
2.202262952E1;-5.339487553E0;-5.674262524E0;-5.760258675E0
2.204067456E1;-3.525714397E0;-3.843236446E0;-1.574853897E0
2.205871149E1;-2.830285788E0;-3.899455309E0;-3.446472645E0
2.207675024E1;-3.146113157E0;-3.461725235E0;2.828744888E0
2.209478027E1;-3.394276619E0;-2.168758154E0;2.667346001E0
2.211282770E1;-3.443747759E-1;1.967300296E0;-8.133041382E0
2.213086981E1;-8.526313305E-2;-5.682590485E0;6.789824486E0
2.214890716E1;1.692110777E0;2.466413021E0;4.928009987E0
2.216694635E1;2.259181261E0;3.597977877E0;-6.601634979E0
2.218498608E1;1.580649614E0;2.587394476E0;1.212931919E1
2.220302508E1;1.671201468E0;8.612278938E0;2.110399246E0
2.222106421E1;3.281130314E0;2.484181404E0;-8.746565819E0
2.223909418E1;3.725771904E-1;1.260668039E-1;3.328594208E0
2.225714325E1;1.119637489E-1;1.256110668E1;-3.672508240E0
2.227518280E1;-2.027147532E0;9.872724533E0;-1.755999374E1
2.229322137E1;-3.185807467E-1;-4.463317394E0;1.199952984E1
2.231126032E1;-1.769554973E0;7.191852570E0;1.174313641E1
2.232928931E1;-9.872314930E-1;3.541950703E0;-9.036311150E0
2.234733978E1;-6.200942993E-1;-2.051254749E0;8.209904671E0
2.236537866E1;1.159827471E0;-2.508295059E0;3.810214996E-2
2.238341815E1;2.030892134E0;-2.296823740E0;-7.834730625E0
2.240145630E1;2.317567825E0;-5.221850395E0;4.478299141E0
2.241949811E1;3.024064302E0;-4.086627960E0;9.839677811E-1
2.243753558E1;3.358248234E0;-7.313412666E0;5.237045288E-1
2.245557520E1;2.138107300E0;-6.934447289E0;1.246584892E0
2.247360547E1;5.209547997E0;-1.178879833E1;7.072355270E0
2.249165210E1;1.334928036E0;-7.899802685E0;3.332664490E0
2.250969482E1;-5.201959610E-2;-6.589159012E0;-6.556761265E0
2.252773242E1;-2.404634953E-1;-7.345846653E0;2.728075981E0
2.254576831E1;-1.694483042E0;-2.619103432E0;1.227126122E0
2.256381128E1;-1.512503147E0;-3.918803692E0;-2.214536667E0
2.258184985E1;-7.986100912E-1;-1.761083245E0;2.361322403E0
2.259988959E1;6.804668903E-1;7.734745502E0;-3.365151405E0
2.261793384E1;-9.495033026E-1;2.648900509E0;-6.847314358E0
2.263596850E1;-3.172109127E-1;3.402034283E0;8.469019890E0
2.265400708E1;-3.940819025E0;6.498654366E0;-3.564633846E0
2.267204688E1;-2.874219418E0;-4.417260170E0;6.019465446E0
2.269008594E1;-2.564270020E0;1.143712616E1;2.678852081E-1
2.270811871E1;-3.157385349E0;3.718676567E0;-1.198552704E1
2.272615808E1;-2.404723167E-1;1.331520557E0;1.101851559E1
2.274420538E1;3.892407417E-1;6.589632034E0;5.947172165E0
2.276224316E1;-6.812939644E-1;7.341553211E0;-7.337585926E0
2.278028278E1;1.907742023E-1;7.164429665E0;1.404449749E1
2.279832141E1;-4.104497910E0;2.791857481E0;6.273365021E-1
2.281636115E1;-6.753282547E0;4.335030556E0;-6.309463024E0
2.283440015E1;-9.698808670E0;9.742535353E-1;2.772332191E0
2.285243707E1;-8.402091980E0;-2.837845325E0;4.879139900E0
2.287047809E1;-8.338275909E0;-8.770738602E0;4.656966209E0
2.288850458E1;-5.844016552E0;-1.144144344E1;7.074642181E-2
2.290656049E1;-7.661266327E0;-3.872270584E0;-7.867724419E0
2.292459668E1;-6.976056099E0;-6.619678497E0;1.941441536E0
2.294263574E1;-4.876576424E0;-2.519413948E0;3.039738655E0
2.296067572E1;-4.131319046E0;-1.149639702E1;-4.684895515E0
2.297871490E1;-1.906933784E-1;-6.417608261E0;2.313281059E0
2.299674805E1;-1.068535089E0;1.577216864E0;-2.722148895E-1
2.301479309E1;-4.051070213E-1;-2.347689867E0;-1.316896439E0
2.303283264E1;-3.365778923E-2;-5.134356022E0;7.831014633E0
2.305087201E1;3.277345419E0;2.819942474E0;-4.017927170E0
2.306891144E1;1.617816687E0;4.997795582E0;-3.922508717E0
2.308694360E1;2.150838375E-1;-1.082162619E0;5.484270096E0
2.310498975E1;1.230450392E0;-3.315494061E-1;7.738380432E-1
2.312302924E1;-7.027606964E-1;4.097418785E0;-3.091218948E0
2.314106885E1;8.942723274E-2;4.591068745E0;-3.672564507E0
2.315910761E1;-1.209261417E-1;4.574947357E0;2.236977577E0
2.317714709E1;-1.795372248E0;7.392144680E0;-6.498899460E-1
2.319518646E1;-1.033635139E-1;4.944587231E0;-5.460354805E0
2.321322614E1;-4.755170345E-1;8.318223000E0;-2.081374168E0
2.323126379E1;1.925687790E-1;-3.033222437E0;1.038967609E1
2.324930518E1;-9.807595015E-1;2.179039478E0;9.990839958E0
2.326734454E1;8.123471737E-1;6.117897034E-1;-7.722941875E0
2.328538330E1;4.330845356E0;-5.787374496E0;-2.586278915E0
2.330342212E1;3.670500994E0;-8.757212639E0;7.928975105E0
2.332146161E1;1.433137655E0;-1.164512396E0;-7.646989822E-1
2.333950104E1;1.813055515E0;-9.618413925E0;1.280467987E0
2.335754059E1;1.773117542E0;-1.028261662E1;6.796935081E0
2.337557953E1;3.138356447E0;-6.256529331E0;-2.980925560E0
2.339361890E1;1.943395853E0;-8.108309746E0;3.917677879E0
2.341165796E1;-2.139513969E0;-8.989360809E0;-5.672893524E-1
2.342969775E1;-1.197880507E0;-8.258340836E0;-1.501351357E0
2.344773663E1;1.317445517E0;2.114259720E0;2.881935120E0
2.346577142E1;6.527245045E-1;9.150513411E-1;-7.377638817E0
2.348381354E1;1.454104662E0;-1.174861193E-1;-4.028560162E0
2.350185644E1;1.122989178E0;-2.481211662E0;4.979209900E0
2.351989374E1;4.365491867E-2;6.079069614E0;-5.046644211E-1
2.353793365E1;-1.848996162E0;5.890607834E0;-4.959148884E0
2.355596802E1;-9.734901190E-1;5.052042007E0;4.431726456E0
2.357401221E1;-9.441450834E-1;2.347066164E0;-2.479452610E0
2.359203931E1;-2.162961960E0;6.057325602E-1;-1.557517529E0
2.361009033E1;-1.539673805E-1;9.929524422E0;6.894006729E-1
2.362812982E1;-2.328567028E0;7.437414169E0;-5.069420338E0
2.364616980E1;1.547437906E-1;1.497867346E0;4.908139229E0
2.366420819E1;1.207118988E0;9.828023911E0;3.072927475E0
2.368224823E1;-2.877288342E0;3.821578026E0;-7.369657516E0
2.370027747E1;-1.775793433E0;1.588331223E0;4.784108162E0
2.371832391E1;-4.258563042E0;5.697686195E0;1.561148643E0
2.373636841E1;-4.729372025E0;-4.068642616E0;2.958396912E0
2.375440533E1;-7.131399155E0;-7.524123192E-1;3.206180573E0
2.377244452E1;-6.524676323E0;-7.926166058E0;-6.989070892E0
2.379048395E1;-5.832549095E0;-9.457977295E0;6.623431206E0
2.380852289E1;-4.466509342E0;-7.991978168E0;3.130196571E0
2.382656250E1;-3.789389610E0;-3.175245762E0;-8.153912544E0
2.384460162E1;-3.364304066E0;-7.924280167E0;-5.019969940E-1
2.386263849E1;-1.659734488E0;-3.797826290E0;-6.778860092E-1
2.388068012E1;-2.285537481E0;-4.619492054E0;-4.557015419E0
2.389872266E1;-1.531658769E0;-5.863562107E0;5.951956749E0
2.391675928E1;-9.265511036E-1;-2.241890907E0;1.887969017E0
2.393478815E1;-1.336698532E0;-2.465952635E0;1.075467110E0
2.395283758E1;-7.443313599E-1;1.534389734E0;-2.703271389E0
2.397087695E1;3.497289419E-1;-2.488334179E0;5.694827080E0
2.398891650E1;2.150218725E0;-1.714328051E0;4.307099342E0
2.400695587E1;3.555933952E0;5.128305912E0;-5.634235382E0
2.402499487E1;5.145977736E-1;1.315507293E0;3.821238518E0
2.404303418E1;2.837469339E0;5.451901436E0;4.114684105E0
2.406107373E1;4.999303818E-1;5.669970989E0;-3.974280357E0
2.407910986E1;8.457756042E-1;2.317292929E0;-3.568832397E0
2.409714972E1;4.691903591E-1;7.559895039E0;-4.248021126E0
2.411519428E1;-1.847761035E0;2.798729897E0;5.414664268E0
2.413323126E1;-1.007538319E0;5.648652077E0;-3.689670563E-2
2.415126990E1;2.146637440E-2;3.818881989E0;-7.934266090E0
2.416931049E1;-5.762224197E-1;2.812819958E0;2.163318634E0
2.418734906E1;1.936163187E0;-6.084443092E0;8.242830276E0
2.420538843E1;1.775695920E0;2.423834324E0;3.642337799E0
2.422342798E1;4.610260010E0;-2.894067764E-2;-5.087254524E0
2.424146674E1;5.043392181E0;-6.180685520E0;4.498348236E-1
2.425950641E1;7.393795490E0;-7.643392563E0;3.168284416E0
2.427754590E1;5.408191204E0;-5.808829308E0;-2.796466827E0
2.429558551E1;4.053265572E0;-6.670823097E0;5.060400963E0
2.431361890E1;4.271833420E0;-7.617237568E0;-1.866770744E0
2.433166412E1;4.240339279E0;-5.578099728E0;-6.267385483E-1
2.434970282E1;2.348271132E0;-1.010112095E1;3.219022751E0
2.436774249E1;1.613379717E-1;-2.075321198E0;-3.346346855E0
2.438577826E1;-4.759749174E-1;-6.586833477E0;2.346508980E0
2.440382104E1;-8.816978335E-1;4.208353519E0;2.187602997E0
2.442186060E1;4.315016270E-1;7.121548653E-1;-6.285919189E0
2.443989990E1;4.631412029E-2;-5.539792538E0;1.709045410E0
2.445793262E1;1.876982450E-1;5.215952873E0;2.897892952E0
2.447597852E1;-2.094932079E0;1.690025091E0;-4.364523888E0
2.449401782E1;-1.470818281E0;6.909508228E0;-3.005869865E0
2.451205768E1;-8.983404040E-1;8.060204983E-1;2.411991119E0
2.453009644E1;-5.305989385E-1;4.461895943E0;1.519156456E0
2.454813300E1;-2.344501734E0;4.546258450E-1;-3.107327938E0
2.456617517E1;-5.366603136E-1;4.310913086E0;2.576155663E0
2.458421460E1;1.469293833E-1;2.837109566E-1;-2.522798538E0
2.460225366E1;9.035214782E-1;5.215963364E0;6.756019592E-2
2.462029321E1;1.784384131E0;3.636274815E0;2.805751801E0
2.463833246E1;-1.920363903E0;3.170885324E0;-2.814388275E0
2.465637213E1;-2.809541225E0;8.717778206E0;-4.561234474E0
2.467441089E1;-4.477688789E0;1.530838966E0;-1.578324318E0
2.469245068E1;-4.219783783E0;-1.549582958E0;2.467869759E0
2.471048999E1;-4.476490974E0;-1.859005690E0;8.830871582E-1
2.472852942E1;-5.120462418E0;-5.567382812E0;4.636726379E-1
2.474656824E1;-5.130542278E0;-4.771204948E0;-4.372734070E0
2.476460773E1;-4.182275772E0;-2.783699751E0;-4.605938435E0
2.478264722E1;-4.465033531E0;-9.465017319E0;3.947756767E0
2.480068707E1;-2.098927498E0;-5.554664612E0;2.167326927E0
2.481872559E1;-3.475585699E0;-3.450582981E0;-6.912498474E-1
2.483676532E1;-3.954760075E0;-4.988900185E0;-5.162715912E-1
2.485480469E1;5.695309043E-1;-6.418560028E0;2.103471756E-1
2.487284430E1;-2.924927235E0;2.160444736E0;-2.450033188E0
2.489088354E1;-1.267719746E0;-3.897254229E0;-5.278292656E0
2.490892261E1;5.503785610E-1;4.129359245E0;2.182955742E0
2.492696075E1;2.171695948E0;-6.779837132E0;3.929399490E0
2.494499933E1;2.323031664E0;1.929410815E0;3.975050926E0
2.496304236E1;1.369790912E0;2.214707136E0;-5.783942699E0
2.498108008E1;2.304939270E0;2.699562311E0;4.216480255E-1
2.499910327E1;6.210428476E-1;2.509756804E0;3.575962067E0
2.501715900E1;1.240931392E0;4.895565987E0;-1.478116035E0
2.503519775E1;1.121059656E-1;4.492183208E0;1.930809975E0
2.505323730E1;9.329118133E-1;3.129738569E0;-3.048749924E0
2.507127576E1;-3.166784048E-1;4.330973148E0;-7.271385193E-2
2.508931702E1;-6.097388268E-1;1.994967937E0;1.382059097E0
2.510735528E1;6.520381570E-1;4.785158157E0;-1.220223427E0
2.512539447E1;1.026556969E0;4.441990852E-1;4.859343529E0
2.514343390E1;2.136661291E0;-2.149097443E0;4.444858551E0
2.516146454E1;4.040631294E0;2.320393562E0;-5.995430470E0
2.517950977E1;7.429219723E0;-2.137758017E0;-6.726243973E0
2.519755524E1;6.159597397E0;-4.856423378E0;3.106904030E0
2.521559155E1;5.677491665E0;-7.395947933E0;6.035936356E0
2.523363122E1;6.490341187E0;1.055555344E-1;9.330549240E-1
2.525166956E1;6.086457253E0;-9.386291504E0;6.103019714E-1
2.526970953E1;4.883287907E0;-6.235743523E0;-1.612621307E0
2.528774902E1;3.619612694E0;-2.591093063E0;-4.321808815E0
2.530577911E1;7.513596416E-1;-5.604589462E0;4.430385590E0
2.532382684E1;-2.121135294E-1;-2.400936127E0;-8.615732193E-1
2.534186700E1;-1.670943499E-1;-3.710055113E0;-4.560212135E0
2.535990613E1;9.052357078E-1;-6.291899681E-1;3.414458275E0
2.537794617E1;9.779865742E-1;4.129068851E-1;-8.190269470E-1
2.539598462E1;-3.198137879E-1;5.848212242E-1;3.656053543E-1
2.541402350E1;-1.536975205E-1;4.719366074E0;-4.053362370E0
2.543206415E1;-2.085126400E0;4.149928093E0;-7.321893215E0
2.545010333E1;-6.659556627E-1;-7.843098640E-1;7.694256783E0
2.546814203E1;3.204818666E-1;-2.489395142E-1;2.294594765E0
2.548618170E1;-7.660806179E-1;-1.504885554E0;2.656991959E0
2.550422095E1;6.387306452E-1;2.918762922E0;3.957301140E0
2.552226044E1;7.616542578E-1;7.442117691E0;-2.557406425E0
2.554029083E1;-1.047927141E0;8.336986542E0;-5.734141350E0
2.555833667E1;-2.215697050E0;1.521227360E0;-8.335142136E-1
2.557638037E1;-2.303933144E0;-3.069320917E-1;9.769396782E0
2.559441803E1;-4.269947529E0;1.886836290E0;-9.075431824E-1
2.561245666E1;-7.760030270E0;1.335671663E0;-5.997360229E0
2.563049615E1;-5.998305321E0;-1.529582500E0;4.838209152E-1
2.564853595E1;-5.461456776E0;-3.608698845E0;2.939611435E0
2.566657520E1;-4.545921326E0;-4.408029556E0;1.059982300E0
2.568461377E1;-3.545635223E0;-9.792495728E0;3.229029655E0
2.570265100E1;-1.937052131E0;-9.384485245E0;3.313261986E0
2.572069586E1;-1.058400393E0;-7.589880943E0;-6.636998177E0
2.573873303E1;-2.136037111E0;-4.356606483E0;-1.706882954E0
2.575677124E1;-2.210480452E0;-2.573168993E0;9.543027878E-1
2.577480737E1;-1.519194126E0;-4.974094391E0;-1.063652992E0
2.579284754E1;-4.069340825E-1;-3.332761526E-1;-3.763455391E0
2.581089300E1;-2.449127436E0;-1.588061571E0;-2.764458179E0
2.582892889E1;-1.531611323E0;-3.577252388E0;6.348554611E0
2.584696826E1;-2.371854037E-1;-3.292259216E0;-3.123533249E0
2.586500781E1;2.377172410E-1;6.205414772E0;-3.136341095E0
2.588304718E1;9.738560319E-1;3.733555794E0;-4.880924225E-1
2.590108612E1;2.641021252E0;3.131484985E-1;4.653521538E0
2.591912079E1;3.885758400E0;4.018530846E0;-2.473368645E0
2.593716510E1;2.350819588E0;6.814547539E0;-6.355409145E0
2.595520465E1;1.000986576E0;1.432840586E0;6.370829582E0
2.597324341E1;1.569676399E0;5.927461147E0;-3.442611694E-1
2.599128223E1;4.637409449E-1;1.631025076E-1;7.540178299E-1
2.600930811E1;-1.216151714E0;6.602890015E0;3.356746674E0
2.602735889E1;-1.018781424E0;5.809544563E0;-8.521211624E0
2.604540356E1;1.101418018E0;2.060256243E0;-6.383123398E-1
2.606344043E1;2.226078510E0;-6.151096821E-1;4.734713554E0
2.608147925E1;1.545321226E0;7.227448225E-1;2.072270393E0
2.609950427E1;5.217535973E0;-3.752490044E0;-5.720424652E-2
2.611756042E1;3.050776482E0;-5.510182381E0;3.115148544E0
2.613559747E1;6.550720215E0;-4.349802971E0;-3.398313522E-1
2.615363666E1;3.597609997E0;-7.037221432E0;1.165454865E0
2.617167358E1;3.176832438E0;-8.120428085E0;3.663151741E0
2.618971802E1;2.826976776E0;-5.031045914E0;-5.624328136E0
2.620775488E1;3.541971445E0;-1.099319935E1;7.256510735E0
2.622579077E1;1.196051717E0;-1.134208965E1;1.901226044E0
2.624382312E1;8.881920576E-1;2.371076345E-1;-6.685589314E0
2.626187244E1;2.789308071E0;-5.910547256E0;1.959767342E0
2.627991187E1;5.062748194E-1;-8.212876320E-1;1.249981880E0
2.629795148E1;1.066916227E0;1.039279699E0;-4.841865540E0
2.631598962E1;1.299545407E0;3.183200121E0;-2.531131268E0
2.633403088E1;2.078706026E0;-1.986709833E0;2.522941589E0
2.635206940E1;1.594418526E0;4.233496666E0;1.456810951E0
2.637010858E1;2.049371243E0;3.292725563E0;-7.352758408E0
2.638814801E1;1.459875107E0;3.178884983E0;3.942497253E0
2.640618298E1;1.411680937E0;7.234276772E0;9.200096130E-3
2.642423022E1;-2.848321795E-1;-3.254584312E0;-4.750337601E-1
2.644226587E1;-5.570892990E-2;6.829169273E0;3.671175957E0
2.646030548E1;-1.389712572E0;5.560136795E0;-1.185202503E1
2.647834393E1;-1.168180704E0;-7.077990770E-1;3.125781059E0
2.649638379E1;-7.215392590E-1;7.002070427E0;6.691978455E0
2.651442285E1;-2.531962633E0;6.357842445E0;-9.534320831E0
2.653246686E1;-2.058933735E0;-2.293614388E0;8.856574059E0
2.655049860E1;-2.313432693E0;4.976940155E0;7.034297943E0
2.656854334E1;-8.406734467E-1;-3.831799030E-1;1.568875313E0
2.658658032E1;-5.015851974E0;-5.437713146E0;5.267374039E0
2.660461944E1;-5.391441822E0;5.563030243E-1;-4.876830101E0
2.662265008E1;-4.900843143E0;-5.708697319E0;-2.971340656E0
2.664069800E1;-2.968426943E0;-7.211692810E0;7.480940819E0
2.665872638E1;-2.332392216E0;-6.501717091E0;-9.095973969E-1
2.667677679E1;-2.444633484E0;-7.748439789E0;-2.151985645E0
2.669481567E1;-3.776989222E0;-2.530699015E0;-3.260627270E0
2.671285522E1;-2.121883392E0;4.719890356E-1;-7.811388016E0
2.673089447E1;-2.014086485E0;-9.929753304E0;9.309193611E0
2.674893420E1;1.743842483E0;3.120238781E0;1.587314606E0
2.676697229E1;-1.234352589E0;-5.670120239E0;-1.410126019E1
2.678501215E1;-8.755573630E-1;-5.243218422E0;8.514246941E0
2.680305133E1;-2.900158763E-1;4.352571011E0;5.870695114E-1
2.682109082E1;-1.157663941E0;-3.703205109E0;-1.556879997E0
2.683912958E1;-1.074834704E0;1.203890085E0;1.640398026E0
2.685716925E1;-8.852273226E-1;2.519809961E0;-7.186770916E0
2.687520868E1;-2.326077938E0;1.142301917E0;9.961044312E0
2.689324835E1;4.434722364E-1;-1.362431049E-1;5.931305885E0
2.691128204E1;1.091160178E-1;2.993548870E0;-5.110231400E0
2.692932556E1;-1.204223514E0;5.103570938E0;1.933521271E0
2.694736774E1;1.853370070E0;-1.917737246E0;-8.619871140E-1
2.696540497E1;-1.328989744E0;5.365049362E0;3.318082809E0
2.698344434E1;6.384272575E-1;5.686478615E0;-4.596196175E0
2.700146820E1;1.813522577E0;7.454473972E-1;-1.218615532E0
2.701952222E1;2.042861938E0;-1.031115651E0;6.895085335E0
2.703756305E1;2.466461420E0;4.382994175E0;-5.555606365E0
2.705560101E1;4.522152901E0;4.107765198E0;-3.606982231E0
2.707364069E1;3.385981083E0;2.629383564E0;2.674390793E0
2.709166785E1;2.470585346E0;-2.028779507E0;2.865884781E0
2.710971948E1;4.676550865E0;5.295639038E-1;2.906514168E0
2.712775806E1;6.229906082E0;-1.441417575E0;-3.807117462E0
2.714579401E1;4.836972713E0;-3.164684772E0;-7.552727222E0
2.716383655E1;2.421375751E0;-3.461622238E0;3.021807671E0
2.718187653E1;2.082488537E0;-3.614528656E0;-6.641054153E-1
2.719991492E1;2.146044016E0;-4.114897728E0;7.872133255E-1
2.721795447E1;3.683004379E-1;-2.829021931E0;6.020917892E-1
2.723599390E1;6.683095098E-1;-8.815732002E0;5.322503090E0
2.725403314E1;-3.176038861E-1;-2.369827271E0;-3.132658005E-1
2.727207227E1;-4.814209938E-1;6.337575912E-1;-9.145551682E0
2.729011151E1;8.814318776E-1;-4.937200069E0;1.357945442E0
2.730815082E1;-4.148606300E0;-4.710419178E-1;3.555984497E-1
2.732619049E1;-4.725621939E-1;2.317399025E0;-6.331115723E0
2.734422919E1;-6.370564699E-1;-5.120446682E0;6.043948174E0
2.736226874E1;-1.274547100E0;-9.224405289E0;4.637331963E0
2.738029669E1;-1.832576990E-1;3.288550377E0;-9.749588013E0
2.739834753E1;9.128002524E-1;5.281397104E-1;-1.764890194E0
2.741638605E1;3.400906563E0;-5.411957264E0;4.577802658E0
2.743442554E1;1.363344193E0;-2.312736511E-1;-2.174818039E0
2.745246484E1;1.706336260E0;1.805893064E0;-1.308817863E0
2.747050415E1;3.730972767E0;-2.781805992E0;-3.242458344E0
2.748854291E1;1.484235525E0;-3.667043924E0;1.554239273E0
2.750658246E1;9.601302147E-1;-9.453070164E-2;1.979494095E0
2.752462164E1;1.629166603E-1;-1.413625479E0;1.007444382E0
2.754265820E1;1.609244347E-1;2.996064425E-1;-1.657233238E0
2.756070300E1;-2.513039410E-1;-2.948826551E-1;-2.119433880E0
2.757873956E1;7.606728673E-1;-9.994107485E-1;-1.878101349E0
2.759677875E1;-1.501520872E0;-3.315865517E0;3.351447105E0
2.761481812E1;-3.010696173E-2;-1.714559674E0;2.505022049E0
2.763285712E1;-1.845374107E0;-7.448771000E-1;-2.195177078E0
2.765089624E1;1.409759045E0;-6.149932384E0;-1.838530540E0
2.766893549E1;-5.898785591E-1;-1.330982089E0;2.667725563E0
2.768697491E1;-3.168709278E-1;-1.753050685E0;1.077069283E0
2.770501361E1;-3.681284189E-1;-2.376570702E0;2.347107887E0
2.772305292E1;-8.889106512E-1;-1.640652418E0;6.755342484E-1
2.774109228E1;6.957701445E-1;-2.918175459E-1;-5.563640594E-1
2.775912030E1;3.970345855E-1;-1.996633053E0;4.807090759E-1
2.777716638E1;2.683225274E-1;-2.131497383E0;-1.629804611E0
2.779521448E1;-1.094710827E-2;-2.579199314E0;-3.263425827E-1
2.781324951E1;3.883596659E-1;-7.948775291E-1;1.976286888E0
2.783128772E1;1.086793661E0;-4.124417782E0;8.723688126E-1
2.784932819E1;1.284009457E0;-7.057675123E-1;-1.134263039E0
2.786736694E1;1.685242295E0;5.413310528E-1;-5.371274948E0
2.788540600E1;8.237886429E-2;1.156471729E0;-1.050424576E0
2.790344550E1;9.579310417E-1;-3.173368692E0;3.384210587E0
2.792148450E1;-1.263678789E0;1.736727834E0;1.806077003E0
2.793952374E1;3.469724357E-1;-1.469322205E0;-1.771775246E0
2.795756293E1;2.673152387E-1;-4.157655239E-1;-8.756885529E-1
2.797560260E1;-7.766429186E-1;1.443913221E0;-2.377583504E0
2.799363226E1;-8.040040731E-3;-2.925415039E0;2.006216049E0
2.801167767E1;-2.150175333E0;-2.890251398E0;3.154516220E0
2.802972260E1;-7.211285830E-1;2.903862953E0;-2.300033569E0
2.804775928E1;-1.558431685E-1;-9.790749550E-1;3.564224243E-1
2.806579437E1;-1.876748562E0;-1.691734910E0;-3.991374969E-1
2.808383716E1;-9.011533260E-1;-2.041174412E0;2.378377914E0
2.810187665E1;-6.409496665E-1;3.879325390E0;-3.178828239E0
2.811991577E1;-3.432934582E-1;1.124454737E-1;-4.338241577E0
2.813795428E1;6.338881254E-1;2.126053572E-1;4.091712952E0
2.815599390E1;-3.956063092E-1;-1.946957111E0;4.053465843E0
2.817403345E1;1.047949553E0;1.205340624E-1;-4.826145172E-1
2.819207275E1;-3.136751056E-1;-3.820538998E0;1.425407410E0
2.821011151E1;1.067653418E0;3.705858707E0;-2.320566177E-1
2.822813379E1;-8.535829186E-1;-3.982282639E0;-2.341976166E-1
2.824618958E1;9.320994020E-1;2.007648945E0;6.313161850E-1
2.826422925E1;-1.592586756E0;6.398441792E-1;-5.739285946E0
2.828226825E1;1.042643547E0;-4.022167206E0;5.040497780E0
2.830030762E1;-6.049278378E-1;-4.430463791E0;5.642337799E-1
2.831834656E1;2.880144119E-2;-1.120109558E-1;1.561870575E-1
2.833638605E1;-3.011832237E-1;-3.172194719E0;-1.331812859E0
2.835442474E1;5.602205992E-1;4.440451622E0;-1.608807564E0
2.837245996E1;-6.419914365E-1;-2.078907728E0;1.732627869E0
2.839050263E1;1.866618395E0;-2.734880447E0;5.884857178E-1
2.840854352E1;1.175441980E0;-1.409067869E0;-2.633627415E0
2.842658142E1;8.218834996E-1;-2.916157246E-1;9.653892517E-1
2.844461755E1;1.111491919E0;-2.560663223E0;-1.207050323E0
2.846266290E1;-3.068476915E-2;7.812931538E-1;1.745504379E0
2.848069983E1;-1.356565356E-1;-3.550543785E0;7.199764252E-1
2.849873761E1;3.900033236E-2;-2.336256027E0;1.044847488E0
2.851677777E1;-1.884092093E-1;-4.082289338E-1;-1.042030334E0
2.853481366E1;-1.130644083E-1;-3.630941629E0;-2.414989471E-1
2.855285895E1;-9.583107233E-1;-1.711721182E0;2.617758751E0
2.857089465E1;-1.149231195E0;2.617073059E-2;-1.712121964E0
2.858893408E1;-7.252732515E-1;-5.827494621E0;4.100937843E0
2.860696533E1;-4.713440537E-1;2.097400665E0;-2.990255356E0
2.862501349E1;-9.550452232E-1;-1.285425901E0;-6.536960602E-1
2.864305066E1;-3.977769017E-1;8.995664120E-1;6.903142929E-1
2.866109070E1;-4.846208096E-1;2.259216309E-1;-4.271997929E0
2.867912982E1;7.101966143E-1;-2.285160303E0;4.226139069E0
2.869716943E1;9.692268968E-1;-2.633000135E0;-3.301035881E0
2.871520801E1;2.382667065E-1;1.913816452E0;1.190961838E0
2.873324725E1;8.456861973E-1;-2.819464207E0;1.134667397E0
2.875128436E1;4.807270765E-1;5.211941600E-1;-3.159195900E0
2.876932489E1;1.064121842E0;3.339417696E0;-5.118616581E0
2.878736743E1;9.248973131E-1;-1.727370262E0;-3.905363083E-1
2.880540356E1;1.067442656E0;1.037052393E0;1.393879890E0
2.882344324E1;1.486865997E0;-4.336098194E0;2.075115204E0
2.884147046E1;-8.180516958E-1;2.298221111E0;3.735050201E0
2.885952142E1;6.494524479E-1;-3.542104006E0;-4.334638596E0
2.887756055E1;-7.235500813E-1;9.023479819E-1;-2.902754784E0
2.889559979E1;-3.724671900E-1;6.115436554E-2;-2.430547714E0
2.891363892E1;2.199440002E-1;2.793632984E0;-1.923454285E0
2.893167645E1;-7.206633687E-1;-4.845612526E0;7.616522789E0
2.894971845E1;-2.920850515E-1;-2.408466339E0;2.008655548E0
2.896775629E1;-3.300106525E-2;-1.488816738E0;1.412586212E0
2.898578424E1;4.807639122E-2;2.026498795E0;-1.473059654E0
2.900383404E1;-1.039870501E0;-1.476267338E0;-2.195298195E0
2.902187384E1;-5.055352449E-1;9.599643350E-1;2.655691147E0
2.903991296E1;2.731366158E-1;-5.329513550E-1;-4.136404991E0
2.905795270E1;9.873629808E-1;6.244177818E-1;3.639316559E-2
2.907599091E1;3.095373511E-1;9.968986511E-1;9.328317642E-1
2.909403021E1;2.765681744E-1;-2.515990734E0;-1.385937691E0
2.911206952E1;-7.806903720E-1;-2.545193911E0;6.438807487E0
2.913010913E1;1.188233376E0;-6.706137657E-1;-3.908509254E0
2.914814764E1;8.857256174E-2;-3.895148337E-1;1.118596077E0
2.916618671E1;1.502613783E0;2.577929497E-1;-1.968469620E-1
2.918422632E1;-6.224513054E-1;-1.698346853E0;-7.256460190E-1
2.920226532E1;2.535575628E-1;-2.039116383E0;4.870699883E0
2.922030005E1;1.925422549E-1;-5.109246731E0;-2.679702282E0
2.923834210E1;-4.123737514E-1;4.608937263E0;2.029378891E0
2.925638409E1;5.016604662E-1;-2.394809246E0;-2.708785057E0
2.927442188E1;-3.158113956E-1;-1.501097560E0;1.447071075E0
2.929245215E1;-1.073244095E0;1.431846023E0;-1.963632584E0
2.931050281E1;-2.046091557E-1;1.023572206E0;-2.541062832E0
2.932853924E1;1.059711456E0;-9.091547132E-2;-5.417852402E-1
2.934657861E1;2.455285192E-1;1.630474925E0;5.568408966E-1
2.936461682E1;2.820683122E-1;-5.631825924E0;5.638551712E0
2.938265418E1;-6.690586209E-1;8.074632883E-1;1.790430069E0
2.940069855E1;-4.615631700E-1;-4.635834217E0;-2.073475361E0
2.941873535E1;-5.866134167E-2;3.611520529E0;9.474096298E-1
2.943677411E1;-2.693808675E-1;2.930491447E0;-3.962284088E0
2.945479980E1;-7.172267437E-1;5.574966073E-1;1.151738167E0
2.947284918E1;-3.666509390E-1;-1.361894131E0;1.951747894E0
2.949089465E1;-6.206699610E-1;1.614778638E0;-6.733598709E-1
2.950893036E1;1.643512607E0;-4.485613823E0;-3.002304554E0
2.952696942E1;-1.237945318E0;1.975382447E0;4.479188919E0
2.954500873E1;9.129810333E-2;2.680309296E0;-4.429713726E0
2.956304810E1;-1.881527901E-2;-1.487549424E0;1.315116882E-3
2.958108710E1;1.261460781E-1;2.514532089E0;2.562554359E0
2.959912585E1;-6.230651736E-1;7.154543996E-1;6.282835007E-1
2.961716455E1;2.119126797E0;-1.548962474E0;3.546748161E0
2.963520581E1;-1.887473106E0;-1.383337617E0;3.269902229E0
2.965324335E1;4.602345228E-1;-7.603176236E-1;-6.429996490E-1
2.967128198E1;-1.334105730E0;-4.239245892E0;2.398632050E0
2.968931091E1;2.961950302E-1;4.050293446E0;-1.493995667E0
2.970736108E1;-7.311129570E-1;-2.776992559E0;-6.393695831E0
2.972539984E1;-7.514333725E-2;1.393012643E0;7.255317688E0
2.974343939E1;-1.695655942E0;1.575460315E0;-3.846115589E0
2.976147723E1;-5.211131573E-1;-3.984146595E0;6.802482605E-1
2.977951904E1;-2.763114572E-1;-2.029047251E0;2.641969681E0
2.979755658E1;1.461461306E0;1.004459381E0;-7.576802254E0
2.981559595E1;2.756393552E-1;-4.078235149E0;8.226949692E0
2.983363245E1;-5.156185627E-1;4.205363750E0;8.546113968E-1
2.985167236E1;-1.376862049E0;5.854459405E-1;-6.336513996E0
2.986971478E1;1.372554183E0;-1.375361443E0;4.345614433E0
2.988775238E1;5.010366440E-3;-1.723160505E0;-4.138092995E0
2.990578827E1;1.336091638E0;3.932108641E0;2.244787216E-1
2.992381915E1;-9.269682169E-1;-2.329472303E0;1.417232513E0
2.994186951E1;2.381153703E-1;1.782941341E0;-1.081702232E0
2.995990857E1;-1.108705997E-2;-6.265349388E-1;1.691281319E0
2.997794830E1;2.021104097E0;7.514619827E-1;2.313737869E-1
2.999598749E1;1.765862465E0;1.274429917E0;-1.381937027E0
3.001402606E1;2.561497688E0;-1.431307793E0;1.564976692E0
3.003206543E1;2.586405277E0;-1.601353437E-1;-5.626478195E-1
3.005010443E1;2.828288794E0;-8.086299896E-2;5.327253342E-1
3.006814386E1;2.762500763E0;2.321038246E0;-4.873121262E0
3.008617694E1;3.394442558E0;5.598773479E0;-5.722740173E0
3.010422253E1;1.975603580E0;4.261163771E-1;-5.459009171E0
3.012226111E1;2.334625721E0;1.034995842E1;-6.211626530E0
3.014030048E1;3.756700754E0;-2.301774406E1;1.477319527E1
3.015833911E1;1.416017890E0;-2.020700073E1;2.617990303E1
3.017637836E1;-2.732567787E-1;-2.577362657E-1;3.237071037E0
3.019441742E1;4.648103714E0;-1.386158466E0;-1.587024117E1
3.021244458E1;-1.617562413E0;-7.659876823E0;2.079798698E0
3.023049524E1;-4.606511116E0;2.891571760E0;3.481195450E0
3.024853497E1;-2.815147161E0;-3.843386889E0;-1.343823528E1
3.026657391E1;-3.635396004E0;2.602861404E0;7.224936485E0
3.028461304E1;-1.992921591E0;3.450271845E0;-5.786525249E0
3.030265027E1;-1.240059018E0;5.029762745E0;1.730482101E0
3.032068909E1;-1.444252610E0;1.403301001E0;4.796621323E0
3.033873273E1;2.168292761E0;1.546648502E0;-5.539188385E-1
3.035675903E1;2.036626577E0;1.615083933E0;4.999637604E-1
3.037480823E1;2.329389095E0;2.919844866E0;-5.265703201E-1
3.039284753E1;2.602766991E0;4.115969181E0;-1.906530380E0
3.041088696E1;3.059078932E0;2.794646502E0;4.615993500E-1
3.042892603E1;3.442308426E0;9.015617371E-1;4.845399857E-1
3.044696545E1;3.931061983E0;-8.320829272E-1;1.806584358E0
3.046500372E1;3.230853558E0;3.283256531E0;-5.480470657E-1
3.048304358E1;2.823381424E0;2.984657288E0;-2.341019630E0
3.050108276E1;1.950546503E0;4.620304108E0;2.296581268E-1
3.051912140E1;2.076308966E0;3.903340101E0;-2.221507072E0
3.053715314E1;1.558577299E0;4.595497131E0;-6.980924606E-1
3.055519934E1;1.003636837E0;2.072277546E0;-1.496067047E0
3.057323950E1;1.021018028E0;2.799110651E0;1.981322289E0
3.059127692E1;3.030247688E-1;2.176942587E0;-2.278025150E0
3.060931818E1;4.370300770E-1;-3.424265862E0;1.461018562E0
3.062735590E1;9.463171959E-1;-4.024837971E0;-1.402394295E0
3.064539526E1;1.459223628E0;-6.002435207E0;-5.249031544E0
3.066343402E1;3.594160080E-2;3.585055542E1;4.514222145E0
3.068147772E1;-7.870294571E0;-1.168157864E1;-5.071754932E0
3.069951282E1;5.667267799E0;-1.806129837E1;-7.582507133E0
3.071755206E1;3.141083479E0;-6.359660149E0;1.075101089E1
3.073559076E1;6.027984619E-2;-2.471390724E0;-7.518084526E0
3.075363000E1;-6.244850159E-1;-8.061251640E0;4.275568962E0
3.077166895E1;1.798994780E0;-3.272584915E0;4.944592476E0
3.078970850E1;-1.341261148E0;-8.135511398E0;-6.607618332E0
3.080774695E1;1.976662397E0;-3.945324183E0;4.106110573E0
3.082578290E1;1.267665386E0;-3.837360859E0;-4.276283741E0
3.084382214E1;1.553433776E0;-8.796876669E-1;-1.070558548E0
3.086186774E1;3.719906092E0;-1.820240617E0;2.745994568E0
3.087990326E1;2.398291111E0;-6.101974845E-1;-8.889961243E-1
3.089794281E1;1.277616978E0;2.129647434E-1;3.090654373E0
3.091597681E1;-9.419298172E-2;-2.583438158E-2;-7.175884247E-1
3.093402014E1;6.879613400E-1;2.839123487E0;-2.176218033E-1
3.095206085E1;8.435082436E-1;2.144753456E0;3.569717407E-1
3.097009918E1;-6.869158745E-1;3.017009258E0;5.363178253E-1
3.098813818E1;1.278846383E0;2.306944132E0;1.105753899E0
3.100617749E1;5.349805355E-1;3.833081722E0;-1.517801285E-1
3.102421613E1;1.209851027E0;3.619583130E0;8.225460052E-1
3.104225531E1;1.484213591E0;1.736460328E0;2.658069611E0
3.106029083E1;1.874310732E0;3.978774548E0;1.332320213E0
3.107833484E1;1.906263709E0;3.840565443E0;9.497432709E-1
3.109637549E1;1.359088182E0;4.857690334E0;-9.903774261E-1
3.111441205E1;7.885067463E-1;5.574348450E0;1.377960205E0
3.113245111E1;1.277152419E0;6.825608730E0;-4.163198471E-1
3.115047699E1;1.966668844E0;5.582699776E0;2.176541328E0
3.116852600E1;2.240872145E0;5.432970047E0;2.441978455E0
3.118657129E1;2.849050522E0;9.368752480E0;-3.713912964E-1
3.120460718E1;5.006048679E0;6.052900791E0;2.270583153E0
3.122264404E1;6.245037556E0;3.104514360E0;3.575026512E0
3.124068805E1;6.207432747E0;5.407943249E0;1.236190796E-1
3.125872461E1;8.567825317E0;3.993296862E0;1.566467285E-1
3.127676386E1;7.956753731E0;1.496286154E0;9.208822250E-1
3.129479242E1;8.663142204E0;2.178678066E-1;7.289113998E-1
3.131284174E1;5.544656754E0;-1.339293480E0;4.130116463E0
3.133088080E1;5.604966164E0;-8.527225256E-1;9.161415100E-1
3.134892017E1;5.957057953E0;-4.309687614E0;1.403226852E0
3.136695966E1;4.010989189E0;-1.628783941E0;-1.652827263E0
3.138498602E1;4.461136818E0;-3.359600544E0;8.612594604E-1
3.140303699E1;1.824904442E0;-4.299697876E0;-2.546890259E0
3.142107642E1;5.326215029E-1;-7.649825573E0;3.477679253E0
3.143911590E1;-1.431618452E0;-4.776506901E0;1.156569481E0
3.145715472E1;-4.448559284E-1;-4.136819363E0;-2.385485649E0
3.147519360E1;2.498141050E0;-6.129496574E0;4.211324692E0
3.149323279E1;4.142140865E0;-1.443922758E0;1.201391220E-1
3.151127136E1;4.599326134E0;4.144136608E-1;-1.551675797E0
3.152931134E1;3.903217316E0;-7.619439363E-1;1.215527534E0
3.154734705E1;2.059566498E0;-1.370639503E-1;-3.416684628E0
3.156539209E1;8.402585983E-3;-2.347385883E0;-5.195379257E-1
3.158342865E1;6.302363873E-1;-1.716991067E0;4.583935738E0
3.160146716E1;-1.233955145E0;2.472506613E-1;-1.763098717E0
3.161950635E1;-6.589484215E-1;5.060583353E-1;2.808997154E0
3.163754559E1;-5.331492424E-1;2.312473774E0;-6.814905167E0
3.165558496E1;-8.923077583E-2;-3.861354351E0;5.100086212E0
3.167362341E1;9.633064270E-3;2.571230888E0;3.162548065E0
3.169166278E1;-5.497429371E-1;-9.092208743E-1;-3.093829155E0
3.170970166E1;1.262885809E0;1.390978217E0;2.058514595E0
3.172774115E1;4.713010788E-2;-1.344445229E0;-4.706039429E-1
3.174577649E1;-1.217007399E0;2.533315420E0;-1.908497810E0
3.176381885E1;-7.633805275E-2;-2.925294399E0;7.584800720E-1
3.178185413E1;-9.309995174E-1;1.812751532E0;4.196338654E-1
3.179990131E1;1.368906260E0;-9.284170866E-1;-5.114672661E0
3.181793628E1;1.705434442E0;-4.193186760E0;3.782327652E0
3.183597504E1;2.371738434E0;-2.479444593E-1;-6.254320145E-1
3.185401434E1;2.206984997E0;-9.806003571E-1;-1.172501564E0
3.187205365E1;1.350152254E0;1.963867903E0;-1.019793510E0
3.189009216E1;2.222998381E0;-4.779837728E-1;-3.534092903E0
3.190813159E1;5.457847118E-1;-1.556438088E0;6.349938393E0
3.192617084E1;1.959756494E0;3.748762131E0;-2.251811981E0
3.194420996E1;-1.969091892E-1;2.504536152E0;-5.289611816E-1
3.196224866E1;4.084309340E-1;9.374033809E-1;3.357303619E0
3.198028827E1;8.991042972E-1;1.404896140E0;-4.261713028E-1
3.199830945E1;1.011029720E0;8.784015775E-1;-1.244325638E-1
3.201636353E1;2.009203196E0;-2.649225712E0;2.468322754E0
3.203440802E1;1.612231493E0;1.913877845E0;-3.947354317E0
3.205244415E1;3.392883301E0;-3.235224247E0;4.550648689E0
3.207048340E1;8.246090412E-1;1.217902660E0;1.176260948E0
3.208852240E1;1.663197756E0;2.014725208E0;-5.636551380E0
3.210656116E1;1.393959522E0;-1.176540613E0;4.240980148E0
3.212460028E1;5.454692841E-1;1.415148020E0;3.318014145E-1
3.214263934E1;1.632209420E0;3.666129708E-2;-5.122871399E-1
3.216067645E1;9.069976211E-1;4.030038834E0;2.921199799E-1
3.217871997E1;2.737457752E0;-1.717545509E0;-9.359264374E-1
3.219675671E1;7.772127986E-1;2.347792864E0;3.064654350E0
3.221479584E1;2.806329727E0;1.440558553E0;-5.528721809E0
3.223282349E1;1.578418016E0;-2.367251873E0;3.404002190E0
3.225087366E1;1.529560328E0;7.315187454E-1;1.601364136E0
3.226891302E1;6.262723804E-1;2.129186630E0;-2.417085648E0
3.228695184E1;1.852484822E0;-2.167863548E-1;1.833322525E0
3.230499146E1;8.055502772E-1;-7.266179919E-1;2.626072884E0
3.232302966E1;1.663759232E0;-9.115918875E-1;7.738018036E-2
3.234106952E1;3.439402580E-2;2.950581908E-1;1.051320076E0
3.235910828E1;1.114043474E0;-2.409129739E-1;-2.744891167E0
3.237713336E1;-1.009266853E0;-1.961574316E0;1.776068687E0
3.239518268E1;6.778359413E-3;-1.982953250E-1;4.906663895E-1
3.241322876E1;-4.636230469E-1;1.294726133E-2;-1.965506554E0
3.243126373E1;5.502012968E-1;4.770736694E0;-6.223240852E0
3.244929797E1;1.431864977E0;-3.796705961E0;6.044374466E0
3.246733050E1;1.842286825E0;6.868267059E-1;5.811192513E0
3.248538147E1;2.275409698E0;-1.770626187E0;4.490957260E-1
3.250340772E1;1.998865366E0;2.042980433E0;1.353514671E0
3.252146014E1;1.147912502E0;3.916345358E0;-5.011549950E0
3.253949860E1;8.534887433E-1;-8.866625428E-1;-1.361846924E-2
3.255753809E1;5.147278309E-2;-1.384120464E0;6.859613419E0
3.257557709E1;4.677296281E-1;1.873862267E0;-4.661703587E0
3.259361639E1;-1.297196150E-1;6.049520969E-1;-1.663346291E0
3.261164105E1;1.249552488E0;-1.497287631E0;-1.153696060E0
3.262969452E1;7.277059555E-1;-3.696674109E-1;3.436107635E0
3.264773260E1;1.199371815E0;2.640475273E0;-3.766148567E0
3.266576898E1;-1.910341382E-1;-5.119286180E-1;-1.240672112E0
3.268381073E1;1.247150660E0;-1.915444374E0;3.122756004E0
3.270185022E1;1.040070653E-1;-2.107018709E0;4.847146988E0
3.271988934E1;1.685020685E0;1.720159531E0;-7.470560074E-1
3.273792871E1;-2.385827899E-1;-4.510353088E0;2.827301025E-1
3.275595526E1;8.337506056E-1;3.063693643E-1;9.545716286E0
3.277400641E1;6.219537258E-1;-8.449278474E-1;8.482131958E-1
3.279204541E1;-9.699577689E-1;5.145737648E0;-4.896439552E0
3.281008496E1;8.192610741E-1;-1.960969687E0;-5.339649200E0
3.282812317E1;-8.607208729E-3;-2.601325035E0;2.311397552E0
3.284615112E1;1.968627691E0;-4.936517477E-1;6.493663788E-1
3.286419885E1;7.316579819E-1;2.953621864E0;-3.672635078E0
3.288224408E1;2.007830143E-2;-2.719032168E-1;-1.162726402E0
3.290027966E1;-2.228211641E0;8.145483136E-1;-1.732781410E0
3.291831879E1;-1.902662754E0;3.206951141E0;-7.596215248E0
3.293635791E1;-2.290543556E0;3.160093069E0;-4.733725548E0
3.295439740E1;2.048899531E-1;-1.078920364E1;3.781833649E0
3.297243542E1;3.250845969E-1;-9.775761962E-1;2.166517639E1
3.299046582E1;-8.997018337E-1;6.185446262E0;-1.492928696E1
3.300851019E1;2.280625820E0;2.755306721E0;1.378654480E0
3.302655707E1;-4.753331244E-1;-1.315237999E0;9.596381187E0
3.304459168E1;1.853148341E0;-1.539726257E0;-4.958132267E0
3.306262842E1;1.097625494E0;1.928011417E0;7.504854202E-1
3.308066998E1;3.333708763E0;-6.116849899E0;-7.940874100E-1
3.309871265E1;1.827688694E0;-2.081010818E0;-5.896148682E-1
3.311674799E1;3.102870464E0;-3.292868614E0;5.184909821E0
3.313477527E1;2.064765453E0;4.041766644E0;-2.725413799E0
3.315282599E1;4.284663200E0;1.307338476E0;-3.425173759E0
3.317086633E1;2.179053545E0;2.701815963E-2;2.021252632E0
3.318890393E1;1.920422077E0;7.960332632E-1;6.273927689E-1
3.320694354E1;1.520297080E-1;1.983751416E0;-1.317236900E0
3.322497748E1;5.586568117E-1;-4.084012032E0;2.793178558E-1
3.324301898E1;-2.902395725E-1;3.027280092E0;1.511163712E0
3.326106262E1;8.086714149E-1;1.112777519E1;-7.703507423E0
3.327909979E1;-1.068058491E0;1.231713295E0;1.056493759E0
3.329713861E1;-8.570178151E-1;-7.587086678E0;6.909231186E0
3.331517505E1;-4.067137241E0;-3.177836180E0;-6.309290409E0
3.333321942E1;-1.361368895E0;-4.898762703E0;5.991083145E0
3.335125458E1;-2.451457024E0;-4.216972351E0;7.737617493E-1
3.336929602E1;-1.032430768E0;-4.117295742E0;-5.575602531E0
3.338733057E1;4.262734652E-1;6.562554240E-1;5.004856110E0
3.340537585E1;1.289937615E0;1.367842197E0;8.081703186E-1
3.342340875E1;1.671631932E0;1.575087309E0;-1.418981552E0
3.344145380E1;1.417426944E0;8.721952438E0;-1.806163788E0
3.345947833E1;2.174197912E0;-1.312116385E-1;-1.794200420E0
3.347752869E1;2.594439387E-1;8.113970757E0;-1.803818703E0
3.349556781E1;2.428775311E0;-3.709758043E0;-1.218384743E0
3.351360712E1;-6.046884060E-1;7.927114367E-1;2.025612831E0
3.353164502E1;1.073923945E0;-4.172406673E0;7.894029617E-1
3.354968561E1;-1.794820547E0;-7.628101110E-2;-2.919743538E0
3.356772406E1;1.243848652E-1;-2.605593681E0;-2.924830437E0
3.358575946E1;-1.022667050E0;-1.843321323E0;7.613410950E0
3.360379510E1;-6.778718233E-1;1.453382850E0;-2.464884758E0
3.362183923E1;-1.660871983E0;2.352818727E0;-2.773014069E0
3.363988153E1;-1.019377112E0;-2.433429718E0;6.316080093E-1
3.365791913E1;-7.698073983E-1;1.024608850E0;1.158761978E0
3.367595850E1;2.333733737E-1;-2.739461064E-1;-1.746882439E0
3.369399670E1;-6.166908145E-1;-1.877037525E0;1.853424072E0
3.371203632E1;-2.370215207E-1;9.856573939E-1;-2.974258900E0
3.373007208E1;-9.804635644E-1;4.660084248E-1;1.015213966E0
3.374811719E1;6.378471255E-1;-2.744163513E0;-8.207635880E-1
3.376614978E1;5.053445101E-1;-4.019393444E0;5.214620590E0
3.378419482E1;1.835536957E-2;4.619541645E0;-3.126174927E0
3.380223108E1;4.347663820E-1;-1.227418542E0;-3.128182888E0
3.382027051E1;-1.080276966E0;1.336699724E0;2.180350304E0
3.383830280E1;1.546010971E-1;-2.995787382E0;2.837726593E0
3.385634686E1;-1.546811938E0;3.832905769E0;3.766811371E0
3.387438867E1;-5.688967109E-1;3.304163456E0;-3.759965897E-1
3.389242645E1;-9.311074018E-2;1.521871567E0;-3.787010670E0
3.391046472E1;1.514148712E0;8.729098439E-1;-2.175233841E0
3.392850409E1;2.260037422E0;-1.652774811E-1;-1.461165428E0
3.394654315E1;1.299310923E0;-6.856073141E-1;-2.009891510E0
3.396458221E1;8.920255303E-1;-1.294413209E-1;-2.165565491E-1
3.398261560E1;3.305057883E-1;1.912890077E0;-1.714314461E0
3.400066003E1;6.963585615E-1;-9.460900426E-1;-1.818656921E0
3.401869501E1;4.607039690E-1;4.967359304E-1;-7.147464752E-1
3.403673853E1;1.478454590E0;-4.369716644E0;7.263801575E0
3.405477698E1;-5.113435984E-1;1.843586445E0;1.645359993E0
3.407281366E1;1.711918831E0;-1.547465086E0;-4.971616745E0
3.409085541E1;-8.677864075E-1;-1.347923279E0;4.927440643E0
3.410889423E1;-4.201663136E-1;3.259420395E-3;-3.022743225E0
3.412693274E1;-9.408904910E-1;8.426254392E-1;-6.013221741E-1
3.414497211E1;-1.141571522E0;-4.971656322E0;5.483141899E0
3.416301092E1;-2.155995369E0;-1.610848069E0;-1.864763260E0
3.418105066E1;-1.219441175E0;-3.108426809E0;-8.195056915E-1
3.419908899E1;-2.010259628E0;-3.368215561E-1;-1.095710754E0
3.421712793E1;-1.249941945E0;-1.508423805E0;-6.427125931E-1
3.423516608E1;-2.032292604E0;-4.433436096E-1;9.459514618E-1
3.425320758E1;-1.418616772E0;6.746584773E-1;-7.479648590E-1
3.427124701E1;-1.653368115E0;1.111451745E0;-2.068958282E0
3.428928229E1;-1.585067749E0;-8.557378650E-1;-8.416109085E-1
3.430732324E1;-1.571927905E0;1.608320951E0;4.665977478E0
3.432536194E1;-2.083315372E0;2.834121943E0;-3.575207710E0
3.434340082E1;-1.252954721E0;-4.386751175E0;4.154592514E0
3.436144031E1;-1.455465555E0;-7.748985291E-2;1.850761414E0
3.437947919E1;-1.194664478E0;-1.142834425E0;-8.853120804E-1
3.439751825E1;-7.488858700E-2;-9.125841856E-1;1.618530273E0
3.441555402E1;3.755867481E-1;2.246847749E-1;-9.723558426E-1
3.443359912E1;4.201711416E-1;-9.061621428E-1;1.777384758E0
3.445162543E1;1.071184516E0;8.588719964E-1;-2.155763626E0
3.446967218E1;9.697620869E-1;8.561639190E-1;3.721790314E-1
3.448771460E1;2.384791374E-1;2.109680653E0;1.581707001E-1
3.450575604E1;4.994062185E-1;3.669930100E-1;-1.212404251E0
3.452379089E1;-1.769708395E-1;-1.979623199E0;1.825704575E0
3.454183038E1;-8.151233196E-2;-3.002554178E-2;1.172778130E0
3.455986871E1;5.020607710E-1;1.814389229E0;-4.321135998E0
3.457790790E1;1.004749537E-1;-1.487503290E0;2.109561920E0
3.459594836E1;-3.684496880E-2;-1.481612325E-1;1.120025635E0
3.461398712E1;-4.442377090E-1;-2.499423265E0;5.781936646E-1
3.463202374E1;-7.077893019E-1;-3.727327585E0;8.621082306E-1
3.465006384E1;-1.309090853E-1;-2.157923698E0;2.603398323E0
3.466810297E1;9.687420130E-1;-1.306237936E0;-4.463096619E0
3.468612915E1;2.520959377E-1;-3.978506088E0;2.805365562E0
3.470418048E1;8.979946375E-1;5.450705290E-1;1.054380417E0
3.472221960E1;-8.059861064E-1;1.948579073E0;3.730916977E-1
3.474025903E1;-1.280416012E0;6.245254278E-1;6.065225601E-1
3.475829828E1;-1.618934870E0;1.862411261E0;-2.852415085E0
3.477633636E1;-1.045328140E0;1.731107473E0;-1.529047012E0
3.479437585E1;-4.384855032E-1;-3.648719192E-1;2.825742722E0
3.481241168E1;-7.278150320E-1;-7.285457850E-2;1.027342796E0
3.483045679E1;-6.817132235E-2;7.348581553E-1;-2.750834465E0
3.484849097E1;1.017244458E-1;1.409764290E-1;-1.491206169E0
3.486653278E1;1.171155572E-1;-4.704289436E0;4.166663170E0
3.488457050E1;-1.461564302E-1;4.594064951E-1;1.253945351E0
3.490260980E1;6.226652861E-2;1.226552486E0;-3.861561775E0
3.492065265E1;-1.530781984E0;2.867426395E0;1.784048080E-1
3.493868750E1;-4.503375292E-1;-1.351542950E0;7.409038544E-1
3.495672626E1;-2.503945112E0;1.356789351E0;1.450896263E0
3.497476550E1;2.750890255E-1;1.938840508E0;-6.368953705E0
3.499280432E1;-5.087331533E-1;-2.807530880E0;5.154926300E0
3.501084320E1;-4.597972035E-1;-3.220248222E-2;2.001036644E0
3.502888226E1;-1.321030259E-1;-2.690881491E-1;-3.271324635E0
3.504692132E1;-5.670350790E-1;1.416978717E0;-2.108979702E0
3.506495966E1;-4.321196675E-1;-3.318279266E0;4.290035248E0
3.508299451E1;-1.988805532E-1;-2.849350572E-1;1.724758148E0
3.510104260E1;-1.291232347E0;-4.003425837E-1;-4.610681534E-1
3.511907758E1;-8.475456238E-1;6.919841766E-1;-2.013182640E0
3.513711591E1;-1.114310384E0;-1.866333961E0;1.292476654E0
3.515515515E1;-1.103193402E0;-2.465650558E0;3.962316513E0
3.517319397E1;-1.670086980E0;-1.930238366E0;-2.317512512E0
3.519123346E1;-4.770187140E-1;-1.032727718E0;1.937178612E0
3.520927148E1;6.747337580E-1;1.646912575E0;7.923603058E-1
3.522731067E1;6.911313534E-1;9.624971151E-1;1.842635155E0
3.524535010E1;7.450298071E-1;-1.486863136E0;-4.397190094E0
3.526338910E1;1.149154186E0;-6.565374732E-1;2.830964088E0
3.528142853E1;8.464831114E-1;3.056156158E0;-1.887950897E0
3.529945435E1;4.493921399E-1;-1.881891489E0;-3.547995567E0
3.531750275E1;-2.857860327E-1;-1.254479885E0;3.986607552E0
3.533554791E1;6.681829095E-1;2.417887926E0;-5.533893108E0
3.535358331E1;5.971257091E-1;-2.436594486E0;2.238987923E0
3.537162274E1;3.623171449E-1;-5.671063662E-1;4.362684250E0
3.538966156E1;1.145912409E-1;-6.539587975E-1;-1.519323349E0
3.540770081E1;4.095637202E-1;3.132006407E0;1.758830070E0
3.542573993E1;2.545283437E-1;1.713289499E0;-2.128369331E0
3.544377722E1;5.379474163E-2;-1.170469403E0;6.328868866E-1
3.546181427E1;1.418242931E0;-2.295935392E0;9.123334885E-1
3.547985944E1;5.622162223E-1;-5.745247602E-1;2.574920654E-3
3.549789514E1;5.314304829E-1;9.029425979E-1;-3.426596165E0
3.551593005E1;-4.006077051E-1;-1.250473142E0;1.107715607E0
3.553396942E1;5.448457599E-1;9.850484133E-2;1.929686546E0
3.555201239E1;-9.910198450E-1;1.100677609E0;-1.529531479E0
3.557005090E1;3.036105335E-1;-1.639760733E0;-1.744876862E0
3.558808997E1;4.743259847E-1;-1.557377338E0;1.936220169E0
3.560612610E1;3.770958483E-1;2.130991459E0;-1.220124245E0
3.562417108E1;1.004219651E0;-3.806466579E0;-3.313580990E0
3.564220673E1;7.873436809E-2;-1.445591211E0;5.073686600E0
3.566024579E1;1.649350643E0;5.685615540E-2;-2.450207233E0
3.567827777E1;-2.869169414E-2;-1.276869059E0;-5.448560715E-1
3.569631134E1;1.475750685E0;-1.957700491E0;-4.716453552E-1
3.571435303E1;-1.178132772E0;-2.277327061E0;5.811180115E0
3.573240167E1;-1.750563830E-1;2.946059704E0;-1.326463699E0
3.575044092E1;-3.475111723E-1;-2.489378452E0;-7.569227219E-1
3.576847961E1;-7.284982204E-1;2.409045219E0;3.578803062E0
3.578651819E1;-5.335576534E-1;6.823754311E-2;-1.533325195E0
3.580455731E1;-7.502505779E-1;2.904643059E0;-1.392621994E-1
3.582258582E1;1.697865963E0;-2.006576300E0;2.607710838E0
3.584063562E1;6.295856833E-1;1.590581417E0;1.746711731E-1
3.585867377E1;1.936718345E0;-2.657411098E0;-2.605218887E-1
3.587671326E1;1.005684257E0;1.885915995E0;-6.579713821E-1
3.589475238E1;1.738481402E0;2.005321026E0;-1.011504173E0
3.591278589E1;1.492326856E-1;2.331533194E0;-1.965175629E0
3.593082996E1;1.394180775E0;-3.894270182E0;-2.527370453E-1
3.594886877E1;1.400507092E-1;7.846810222E-1;3.652665138E0
3.596690790E1;1.691937685E0;-1.440908194E0;-4.699936867E0
3.598494720E1;-7.007201016E-2;2.513874769E0;3.866621971E0
3.600298541E1;2.172679186E0;-9.432466030E-1;-3.446709156E0
3.602102454E1;1.920732737E0;-5.367018580E-1;1.650629044E0
3.603906366E1;2.149595261E0;2.551907539E0;4.916414261E0
3.605710248E1;2.884250879E0;-1.306307316E0;-6.798550606E0
3.607513934E1;1.184917927E0;-5.407733917E-1;3.001454353E0
3.609318225E1;2.210022449E0;-2.423082829E0;-1.425971985E-1
3.611121936E1;4.262728989E-1;1.655563354E0;1.102758408E0
3.612925897E1;1.689567089E0;-2.248640954E-1;3.694305420E-1
3.614729675E1;-1.836938858E-1;-1.556091785E0;-3.526906967E-1
3.616533606E1;1.102536678E0;-1.042246819E0;6.692295074E-1
3.618337494E1;8.994936943E-4;-1.931105554E-1;-2.875411034E0
3.620141315E1;5.324354768E-2;1.540591955E0;1.876583099E-1
3.621945197E1;1.246985197E-1;-1.208317280E-2;-2.979645729E0
3.623749377E1;-4.524526894E-1;-1.410295486E0;-3.650131226E-1
3.625553082E1;1.024409294E0;-1.634388685E0;6.026159286E0
3.627356982E1;-3.681723177E-1;3.323540449E0;-4.537944794E0
3.629160174E1;-8.498916030E-2;-2.197039604E0;-7.013702393E-1
3.630964740E1;9.906280637E-1;1.394865751E0;4.870264053E0
3.632768781E1;7.168310881E-1;-1.038056493E0;-4.481695175E0
3.634572595E1;5.283416510E-1;4.123934746E0;8.234720230E-1
3.636376434E1;1.444249511E0;4.340103269E-1;-3.993642330E0
3.638180310E1;-5.338300467E-1;-1.832280993E0;-3.559060097E0
3.639984216E1;1.975518584E0;-6.295619011E0;1.172423458E1
3.641788129E1;-3.129273653E-1;5.131989002E0;-6.093957424E0
3.643591540E1;-3.284167349E-1;-3.439958334E0;-1.827592850E-1
3.645395947E1;-1.627068520E0;3.415664196E0;-1.612864494E0
3.647199762E1;4.505987167E-1;-4.184453964E0;-5.381927490E-1
3.649003674E1;-5.606983900E-1;5.301345348E0;-2.414384842E0
3.650807587E1;3.632795215E-1;-3.032664299E0;-2.388999939E0
3.652609686E1;-1.523952723E0;7.240440845E-1;-1.190609932E0
3.654415369E1;2.258007079E-1;2.561504126E0;-1.951056957E0
3.656219281E1;-1.698162556E0;-1.130944490E-1;-3.527733803E0
3.658023102E1;-1.897772551E-1;-1.165973306E0;4.914573669E0
3.659827045E1;-2.161320150E-1;-1.950375080E0;-1.619273186E0
3.661630432E1;-1.589991331E0;7.116782665E-2;-1.306816101E0
3.663434857E1;4.694112837E-1;-2.354974985E0;2.587545395E0
3.665238684E1;-1.161348343E0;8.912466764E-1;-1.719574928E0
