"Time (s)","Gyroscope x (rad/s)","Gyroscope y (rad/s)","Gyroscope z (rad/s)"
3.864872840E-1,-2.426147461E-3,1.040649414E-2,-2.441406250E-3
3.915226840E-1,-3.341674805E-3,7.476806641E-3,-3.372192383E-3
3.965580850E-1,-3.189086914E-3,7.019042969E-3,-3.204345703E-3
4.015934850E-1,-2.105712891E-3,9.414672852E-3,-2.639770508E-3
4.066288850E-1,-1.205444336E-3,6.881713867E-3,-4.241943359E-3
4.116642860E-1,-1.403808594E-3,2.960205078E-3,-3.372192383E-3
4.166996860E-1,-2.075195312E-3,1.617431641E-3,-3.372192383E-3
4.217350870E-1,-1.205444336E-3,4.211425781E-3,-3.585815430E-3
4.267704870E-1,-1.205444336E-3,7.629394531E-3,-4.440307617E-3
4.318058870E-1,-1.205444336E-3,6.423950195E-3,-4.669189453E-3
4.368412880E-1,-1.205444336E-3,1.541137695E-3,-5.249023438E-3
4.418766880E-1,-1.480102539E-3,-6.561279297E-4,-4.440307617E-3
4.469120890E-1,-2.838134766E-3,1.251220703E-3,-4.440307617E-3
4.519474890E-1,-4.409790039E-3,4.699707031E-3,-4.440307617E-3
4.569828890E-1,-4.714965820E-3,4.592895508E-3,-4.135131836E-3
4.620182900E-1,-6.103515625E-3,4.119873047E-4,-3.677368164E-3
4.670536900E-1,-7.293701172E-3,-4.119873047E-3,-4.104614258E-3
4.720890900E-1,-7.217407227E-3,-3.799438477E-3,-3.692626953E-3
4.771244910E-1,-9.033203125E-3,-2.365112305E-3,-4.089355469E-3
4.821598910E-1,-1.046752930E-2,-9.155273438E-4,-3.723144531E-3
4.871952920E-1,-1.188659668E-2,-1.663208008E-3,-4.058837891E-3
4.922306920E-1,-1.226806641E-2,-3.814697266E-3,-2.990722656E-3
4.972660920E-1,-1.257324219E-2,-5.981445312E-3,-2.304077148E-3
5.023014930E-1,-1.188659668E-2,-8.132934570E-3,-2.700805664E-3
5.073368930E-1,-1.147460938E-2,-9.048461914E-3,-3.372192383E-3
5.123722940E-1,-1.040649414E-2,-7.980346680E-3,-2.944946289E-3
5.174076940E-1,-1.019287109E-2,-6.011962891E-3,-2.304077148E-3
5.224430940E-1,-1.037597656E-2,-5.020141602E-3,-2.304077148E-3
5.274784950E-1,-9.750366211E-3,-7.186889648E-3,-2.304077148E-3
5.325138950E-1,-1.022338867E-2,-8.392333984E-3,-1.831054688E-3
5.375492960E-1,-1.034545898E-2,-7.431030273E-3,-1.235961914E-3
5.425846960E-1,-9.262084961E-3,-5.264282227E-3,-1.724243164E-3
5.476200960E-1,-8.178710938E-3,-4.638671875E-3,-1.785278320E-3
5.526554970E-1,-7.614135742E-3,-7.797241211E-3,-1.754760742E-3
5.576908970E-1,-6.561279297E-3,-1.213073730E-2,-2.304077148E-3
5.627262980E-1,-6.027221680E-3,-1.211547852E-2,-1.754760742E-3
5.677616980E-1,-8.209228516E-3,-7.217407227E-3,-2.334594727E-3
5.727970980E-1,-9.201049805E-3,-4.684448242E-3,-3.921508789E-3
5.778324990E-1,-9.826660156E-3,-7.476806641E-3,-3.295898438E-3
5.828678990E-1,-1.081848145E-2,-1.005554199E-2,-1.708984375E-3
5.879032990E-1,-1.142883301E-2,-8.728027344E-3,-1.235961914E-3
5.929387000E-1,-1.251220703E-2,-6.713867188E-3,-1.846313477E-3
5.979741000E-1,-1.295471191E-2,-9.368896484E-3,-2.914428711E-3
6.030095010E-1,-1.232910156E-2,-1.541137695E-2,-2.731323242E-3
6.080449010E-1,-1.254272461E-2,-1.670837402E-2,-1.647949219E-3
6.130803010E-1,-1.362609863E-2,-1.190185547E-2,-1.235961914E-3
6.181157020E-1,-1.469421387E-2,-7.461547852E-3,-2.563476562E-3
6.231511020E-1,-1.509094238E-2,-9.674072266E-3,-2.685546875E-3
6.281865030E-1,-1.440429688E-2,-1.507568359E-2,-2.990722656E-3
6.332219030E-1,-1.332092285E-2,-1.835632324E-2,-1.953125000E-3
6.382573030E-1,-1.223754883E-2,-1.475524902E-2,-1.953125000E-3
6.432927040E-1,-1.261901855E-2,-1.121520996E-2,-3.021240234E-3
6.483281040E-1,-1.147460938E-2,-1.127624512E-2,-3.372192383E-3
6.533635050E-1,-1.158142090E-2,-1.461791992E-2,-2.609252930E-3
6.583989050E-1,-1.112365723E-2,-1.586914062E-2,-1.525878906E-3
6.634343050E-1,-1.159667969E-2,-1.432800293E-2,-1.998901367E-3
6.684697060E-1,-1.268005371E-2,-1.295471191E-2,-3.082275391E-3
6.735051060E-1,-1.216125488E-2,-1.266479492E-2,-3.372192383E-3
6.785405070E-1,-1.271057129E-2,-1.510620117E-2,-2.548217773E-3
6.835759070E-1,-1.295471191E-2,-1.586914062E-2,-2.304077148E-3
6.886113070E-1,-1.379394531E-2,-1.420593262E-2,-2.304077148E-3
6.936467080E-1,-1.402282715E-2,-1.542663574E-2,-2.304077148E-3
6.986821080E-1,-1.489257812E-2,-1.844787598E-2,-3.158569336E-3
7.037175080E-1,-1.509094238E-2,-1.907348633E-2,-4.226684570E-3
7.087529090E-1,-1.597595215E-2,-1.820373535E-2,-3.555297852E-3
7.137883090E-1,-1.705932617E-2,-1.533508301E-2,-2.471923828E-3
7.188237100E-1,-1.632690430E-2,-1.571655273E-2,-3.204345703E-3
7.238591100E-1,-1.432800293E-2,-2.046203613E-2,-3.372192383E-3
7.288945100E-1,-1.495361328E-2,-2.120971680E-2,-3.372192383E-3
7.339299110E-1,-1.509094238E-2,-1.933288574E-2,-4.302978516E-3
7.389653110E-1,-1.509094238E-2,-1.718139648E-2,-4.440307617E-3
7.440007120E-1,-1.509094238E-2,-1.791381836E-2,-5.401611328E-3
7.490361120E-1,-1.606750488E-2,-1.898193359E-2,-5.508422852E-3
7.540715120E-1,-1.615905762E-2,-2.105712891E-2,-5.508422852E-3
7.591069130E-1,-1.416015625E-2,-1.921081543E-2,-4.501342773E-3
7.641423130E-1,-1.402282715E-2,-1.806640625E-2,-2.410888672E-3
7.691777140E-1,-1.301574707E-2,-1.800537109E-2,-4.333496094E-3
7.742131140E-1,-1.399230957E-2,-1.800537109E-2,-3.402709961E-3
7.792485140E-1,-1.194763184E-2,-1.905822754E-2,-5.447387695E-3
7.842839150E-1,-1.188659668E-2,-1.802062988E-2,-5.508422852E-3
7.893193150E-1,-1.188659668E-2,-1.907348633E-2,-4.440307617E-3
7.943547150E-1,-1.188659668E-2,-1.910400391E-2,-5.493164062E-3
7.993901160E-1,-1.087951660E-2,-2.116394043E-2,-4.409790039E-3
8.044255160E-1,-1.289367676E-2,-1.907348633E-2,-3.402709961E-3
8.094609170E-1,-1.081848145E-2,-1.907348633E-2,-4.440307617E-3
8.144963170E-1,-1.077270508E-2,-1.913452148E-2,-4.379272461E-3
8.195317170E-1,-9.750366211E-3,-2.021789551E-2,-3.433227539E-3
8.245671180E-1,-9.750366211E-3,-2.105712891E-2,-4.516601562E-3
8.296025180E-1,-9.750366211E-3,-1.889038086E-2,-5.691528320E-3
8.346379190E-1,-9.750366211E-3,-1.693725586E-2,-7.537841797E-3
8.396733190E-1,-9.643554688E-3,-1.718139648E-2,-6.576538086E-3
8.447087190E-1,-8.682250977E-3,-1.934814453E-2,-6.576538086E-3
8.497441200E-1,-8.834838867E-3,-2.107238770E-2,-6.576538086E-3
8.547795200E-1,-9.613037109E-3,-2.000427246E-2,-6.713867188E-3
8.598149210E-1,-8.682250977E-3,-1.843261719E-2,-7.476806641E-3
8.648503210E-1,-8.865356445E-3,-1.480102539E-2,-6.576538086E-3
8.698857210E-1,-9.567260742E-3,-1.499938965E-2,-6.576538086E-3
8.749211220E-1,-8.682250977E-3,-1.606750488E-2,-6.378173828E-3
8.799565220E-1,-8.682250977E-3,-1.631164551E-2,-5.706787109E-3
8.849919230E-1,-8.483886719E-3,-1.332092285E-2,-6.149291992E-3
8.900273230E-1,-7.858276367E-3,-1.184082031E-2,-4.440307617E-3
8.950627230E-1,-8.193969727E-3,-1.292419434E-2,-4.684448242E-3
9.000981240E-1,-6.042480469E-3,-1.399230957E-2,-5.508422852E-3
9.051335240E-1,-4.684448242E-3,-1.480102539E-2,-5.508422852E-3
9.101689240E-1,-6.042480469E-3,-1.425170898E-2,-5.218505859E-3
9.152043250E-1,-7.614135742E-3,-1.266479492E-2,-4.730224609E-3
9.202397250E-1,-7.614135742E-3,-1.329040527E-2,-5.508422852E-3
9.252751260E-1,-7.614135742E-3,-1.449584961E-2,-5.187988281E-3
9.303105260E-1,-7.293701172E-3,-1.341247559E-2,-4.104614258E-3
9.353459260E-1,-7.232666016E-3,-1.335144043E-2,-3.372192383E-3
9.403813270E-1,-9.048461914E-3,-1.516723633E-2,-3.723144531E-3
9.454167270E-1,-9.750366211E-3,-1.551818848E-2,-4.074096680E-3
9.504521280E-1,-9.750366211E-3,-1.406860352E-2,-3.738403320E-3
9.554875280E-1,-8.987426758E-3,-1.190185547E-2,-5.203247070E-3
9.605229280E-1,-7.614135742E-3,-1.052856445E-2,-6.164550781E-3
9.655583290E-1,-8.026123047E-3,-1.094055176E-2,-5.096435547E-3
9.705937290E-1,-7.858276367E-3,-1.118469238E-2,-4.440307617E-3
9.756291300E-1,-6.546020508E-3,-1.052856445E-2,-3.997802734E-3
9.806645300E-1,-6.103515625E-3,-9.201049805E-3,-3.814697266E-3
9.856999300E-1,-5.035400391E-3,-7.324218750E-3,-3.982543945E-3
9.907353310E-1,-4.409790039E-3,-7.797241211E-3,-4.287719727E-3
9.957707310E-1,-4.409790039E-3,-8.392333984E-3,-5.020141602E-3
1.000806132E0,-3.433227539E-3,-8.392333984E-3,-4.440307617E-3
1.005841532E0,-1.266479492E-3,-7.888793945E-3,-3.921508789E-3
1.010876932E0,-1.373291016E-4,-6.820678711E-3,-4.394531250E-3
1.015912333E0,-1.373291016E-4,-5.737304688E-3,-5.508422852E-3
1.020947733E0,3.967285156E-4,-6.820678711E-3,-4.959106445E-3
1.025983133E0,3.662109375E-4,-7.843017578E-3,-4.440307617E-3
1.031018534E0,4.272460938E-4,-7.324218750E-3,-4.440307617E-3
1.036053934E0,9.307861328E-4,-6.759643555E-3,-4.440307617E-3
1.041089335E0,9.307861328E-4,-5.676269531E-3,-5.020141602E-3
1.046124735E0,1.525878906E-3,-4.592895508E-3,-5.508422852E-3
1.051160135E0,1.998901367E-3,-3.509521484E-3,-5.508422852E-3
1.056195536E0,1.373291016E-3,-3.051757812E-3,-4.882812500E-3
1.061230936E0,9.307861328E-4,-2.426147461E-3,-4.440307617E-3
1.066266337E0,1.571655273E-3,-1.983642578E-3,-3.128051758E-3
1.071301737E0,1.327514648E-3,-2.655029297E-3,-3.616333008E-3
1.076337137E0,1.586914062E-3,-1.724243164E-3,-4.440307617E-3
1.081372538E0,2.670288086E-3,-9.155273438E-4,-3.067016602E-3
1.086407938E0,3.067016602E-3,-9.155273438E-4,-2.304077148E-3
1.091443339E0,4.455566406E-3,-9.155273438E-4,-2.990722656E-3
1.096478739E0,5.905151367E-3,-2.136230469E-4,-3.372192383E-3
1.101514139E0,5.538940430E-3,8.697509766E-4,-2.639770508E-3
1.106549540E0,5.203247070E-3,1.953125000E-3,-2.304077148E-3
1.111584940E0,6.683349609E-3,1.541137695E-3,-3.036499023E-3
1.116620340E0,8.087158203E-3,4.577636719E-4,-4.119873047E-3
1.121655741E0,9.948730469E-3,1.525878906E-4,-4.440307617E-3
1.126691141E0,9.750366211E-3,1.724243164E-3,-2.075195312E-3
1.131726542E0,9.475708008E-3,3.082275391E-3,-1.235961914E-3
1.136761942E0,9.475708008E-3,3.356933594E-3,-2.838134766E-3
1.141797342E0,1.028442383E-2,3.356933594E-3,-2.548217773E-3
1.146832743E0,1.054382324E-2,3.356933594E-3,-2.304077148E-3
1.151868143E0,1.054382324E-2,4.196166992E-3,-1.449584961E-3
1.156903544E0,1.054382324E-2,5.264282227E-3,-3.814697266E-4
1.161938944E0,1.054382324E-2,4.623413086E-3,-2.761840820E-3
1.166974344E0,1.054382324E-2,5.294799805E-3,-1.602172852E-3
1.172009745E0,1.054382324E-2,4.592895508E-3,-1.235961914E-3
1.177045145E0,1.054382324E-2,5.325317383E-3,-1.235961914E-3
1.182080546E0,1.054382324E-2,5.493164062E-3,-1.235961914E-3
1.187115946E0,8.712768555E-3,6.393432617E-3,-2.136230469E-3
1.192151346E0,8.407592773E-3,6.561279297E-3,-2.304077148E-3
1.197186747E0,8.407592773E-3,7.507324219E-3,-1.342773438E-3
1.202222147E0,9.353637695E-3,7.629394531E-3,-2.182006836E-3
1.207257548E0,9.475708008E-3,6.652832031E-3,-2.304077148E-3
1.212292948E0,1.045227051E-2,5.569458008E-3,-3.356933594E-4
1.217328348E0,1.054382324E-2,6.484985352E-3,-1.678466797E-4
1.222363749E0,1.054382324E-2,7.568359375E-3,-1.678466797E-4
1.227399149E0,8.499145508E-3,9.658813477E-3,-1.678466797E-4
1.232434549E0,9.429931641E-3,8.728027344E-3,1.892089844E-3
1.237469950E0,1.155090332E-2,7.644653320E-3,9.307861328E-4
1.242505350E0,1.266479492E-2,1.078796387E-2,1.968383789E-3
1.247540751E0,1.268005371E-2,1.190185547E-2,1.968383789E-3
1.252576151E0,1.161193848E-2,1.187133789E-2,3.036499023E-3
1.257611551E0,1.269531250E-2,8.712768555E-3,1.968383789E-3
1.262646952E0,1.370239258E-2,9.857177734E-3,1.876831055E-3
1.267682352E0,1.272583008E-2,1.301574707E-2,-1.129150391E-3
1.272717753E0,1.374816895E-2,1.379394531E-2,9.613037109E-4
1.277753153E0,1.374816895E-2,9.689331055E-3,1.907348633E-3
1.282788553E0,1.374816895E-2,8.773803711E-3,8.239746094E-4
1.287823954E0,1.393127441E-2,1.004028320E-2,-6.103515625E-5
1.292859354E0,1.597595215E-2,1.316833496E-2,8.087158203E-4
1.297894755E0,1.670837402E-2,1.498413086E-2,-1.678466797E-4
1.302930155E0,1.506042480E-2,1.353454590E-2,-3.051757812E-5
1.307965555E0,1.695251465E-2,9.902954102E-3,9.002685547E-4
1.313000956E0,1.695251465E-2,1.112365723E-2,7.629394531E-4
1.318036356E0,1.695251465E-2,1.329040527E-2,0.000000000E0
1.323071757E0,1.712036133E-2,1.510620117E-2,1.083374023E-3
1.328107157E0,1.763916016E-2,1.472473145E-2,1.602172852E-3
1.333142557E0,1.588439941E-2,1.277160645E-2,3.051757812E-5
1.338177958E0,1.608276367E-2,1.231384277E-2,9.002685547E-4
1.343213358E0,1.695251465E-2,1.380920410E-2,1.358032227E-3
1.348248758E0,1.695251465E-2,1.319885254E-2,2.807617188E-3
1.353284159E0,1.695251465E-2,1.403808594E-2,1.739501953E-3
1.358319559E0,1.695251465E-2,1.428222656E-2,1.159667969E-3
1.363354960E0,1.640319824E-2,1.483154297E-2,1.968383789E-3
1.368390360E0,1.536560059E-2,1.403808594E-2,1.968383789E-3
1.373425760E0,1.635742188E-2,1.403808594E-2,1.968383789E-3
1.378461161E0,1.481628418E-2,1.373291016E-2,1.968383789E-3
1.383496561E0,1.449584961E-2,1.359558105E-2,2.288818359E-3
1.388531962E0,1.438903809E-2,1.510620117E-2,2.395629883E-3
1.393567362E0,1.622009277E-2,1.475524902E-2,9.002685547E-4
1.398602762E0,1.695251465E-2,1.367187500E-2,5.493164062E-4
1.403638163E0,1.695251465E-2,1.260375977E-2,1.983642578E-4
1.408673563E0,1.657104492E-2,1.226806641E-2,1.281738281E-3
1.413708964E0,1.588439941E-2,1.335144043E-2,1.586914062E-3
1.418744364E0,1.588439941E-2,1.362609863E-2,1.312255859E-3
1.423779764E0,1.629638672E-2,1.296997070E-2,2.395629883E-3
1.428815165E0,1.652526855E-2,1.296997070E-2,2.624511719E-3
1.433850565E0,1.588439941E-2,1.339721680E-2,1.541137695E-3
1.438885965E0,1.496887207E-2,1.493835449E-2,9.002685547E-4
1.443921366E0,1.374816895E-2,1.524353027E-2,9.002685547E-4
1.448956766E0,1.374816895E-2,1.354980469E-2,4.272460938E-4
1.453992167E0,1.325988770E-2,1.199340820E-2,3.204345703E-4
1.459027567E0,1.268005371E-2,1.083374023E-2,1.403808594E-3
1.464062967E0,1.165771484E-2,1.133728027E-2,1.464843750E-3
1.469098368E0,1.104736328E-2,1.292419434E-2,3.967285156E-4
1.474133768E0,1.107788086E-2,1.403808594E-2,-6.866455078E-4
1.479169169E0,1.054382324E-2,1.348876953E-2,-6.866455078E-4
1.484204569E0,1.109313965E-2,1.240539551E-2,3.967285156E-4
1.489239969E0,1.104736328E-2,1.133728027E-2,9.002685547E-4
1.494275370E0,9.399414062E-3,9.689331055E-3,9.002685547E-4
1.499310770E0,8.407592773E-3,9.872436523E-3,9.002685547E-4
1.504346171E0,9.613037109E-3,1.203918457E-2,1.510620117E-3
1.509381571E0,9.918212891E-3,1.358032227E-2,1.358032227E-3
1.514416971E0,8.850097656E-3,1.278686523E-2,1.525878906E-3
1.519452372E0,7.766723633E-3,1.062011719E-2,2.609252930E-3
1.524487772E0,8.636474609E-3,9.765625000E-3,2.395629883E-3
1.529523173E0,8.148193359E-3,9.765625000E-3,1.968383789E-3
1.534558573E0,6.652832031E-3,1.110839844E-2,1.968383789E-3
1.539593973E0,7.629394531E-3,1.052856445E-2,2.655029297E-3
1.544629374E0,7.705688477E-3,9.063720703E-3,2.349853516E-3
1.549664774E0,7.339477539E-3,8.697509766E-3,2.685546875E-3
1.554700174E0,6.622314453E-3,1.011657715E-2,2.334594727E-3
1.559735575E0,6.271362305E-3,1.228332520E-2,2.700805664E-3
1.564770975E0,4.776000977E-3,1.074218750E-2,2.304077148E-3
1.569806376E0,3.372192383E-3,8.255004883E-3,1.220703125E-3
1.574841776E0,4.592895508E-3,7.629394531E-3,9.002685547E-4
1.579877176E0,5.203247070E-3,9.948730469E-3,1.678466797E-3
1.584912577E0,5.203247070E-3,1.083374023E-2,3.967285156E-4
1.589947977E0,3.601074219E-3,1.002502441E-2,-1.678466797E-4
1.594983378E0,3.067016602E-3,8.132934570E-3,-1.678466797E-4
1.600018778E0,3.890991211E-3,8.453369141E-3,-1.678466797E-4
1.605054178E0,3.295898438E-3,9.521484375E-3,-9.918212891E-4
1.610089579E0,3.906250000E-3,8.911132812E-3,-3.814697266E-4
1.615124979E0,1.556396484E-3,7.827758789E-3,-1.678466797E-4
1.620160380E0,4.577636719E-5,7.629394531E-3,-1.678466797E-4
1.625195780E0,7.324218750E-4,7.629394531E-3,-1.037597656E-3
1.630231180E0,1.815795898E-3,8.514404297E-3,-1.235961914E-3
1.635266581E0,1.678466797E-4,8.697509766E-3,-1.235961914E-3
1.640301981E0,-1.373291016E-4,6.851196289E-3,-1.235961914E-3
1.645337382E0,-1.373291016E-4,4.699707031E-3,-2.151489258E-3
1.650372782E0,-1.083374023E-3,5.355834961E-3,-1.358032227E-3
1.655408182E0,-1.205444336E-3,6.439208984E-3,-1.235961914E-3
1.660443583E0,-1.205444336E-3,6.561279297E-3,-1.235961914E-3
1.665478983E0,-1.205444336E-3,5.584716797E-3,-2.197265625E-3
1.670514383E0,-2.197265625E-3,4.501342773E-3,-1.312255859E-3
1.675549784E0,-1.281738281E-3,5.416870117E-3,-1.235961914E-3
1.680585184E0,-3.250122070E-3,7.522583008E-3,-2.243041992E-3
1.685620585E0,-3.341674805E-3,7.629394531E-3,-2.304077148E-3
1.690655985E0,-3.341674805E-3,5.554199219E-3,-2.288818359E-4
1.695691385E0,-2.304077148E-3,3.387451172E-3,-1.205444336E-3
1.700726786E0,-3.341674805E-3,5.477905273E-3,-1.235961914E-3
1.705762186E0,-3.341674805E-3,6.561279297E-3,-2.304077148E-3
1.710797587E0,-4.425048828E-3,6.546020508E-3,-2.304077148E-3
1.715832987E0,-5.462646484E-3,5.432128906E-3,-2.273559570E-3
1.720868387E0,-4.379272461E-3,3.356933594E-3,-1.235961914E-3
1.725903788E0,-3.295898438E-3,3.402709961E-3,-1.235961914E-3
1.730939188E0,-2.395629883E-3,4.425048828E-3,-1.174926758E-3
1.735974589E0,-4.486083984E-3,4.348754883E-3,-2.288818359E-4
1.741009989E0,-5.477905273E-3,3.433227539E-3,-1.235961914E-3
1.746045389E0,-5.584716797E-3,4.516601562E-3,-1.419067383E-3
1.751080790E0,-6.652832031E-3,5.493164062E-3,-3.372192383E-3
1.756116190E0,-7.507324219E-3,5.020141602E-3,-3.372192383E-3
1.761151590E0,-6.820678711E-3,1.342773438E-3,-3.234863281E-3
1.766186991E0,-8.682250977E-3,2.563476562E-3,-2.716064453E-3
1.771222391E0,-9.140014648E-3,4.272460938E-3,-5.508422852E-3
1.776257792E0,-1.188659668E-2,3.356933594E-3,-5.340576172E-3
1.781293192E0,-1.171875000E-2,3.173828125E-3,-4.440307617E-3
1.786328592E0,-1.081848145E-2,1.907348633E-3,-4.623413086E-3
1.791363993E0,-1.121520996E-2,1.525878906E-4,-5.691528320E-3
1.796399393E0,-1.275634766E-2,-2.593994141E-4,-6.774902344E-3
1.801434794E0,-1.167297363E-2,-2.441406250E-3,-7.644653320E-3
1.806470194E0,-1.129150391E-2,-4.119873047E-3,-7.400512695E-3
1.811505594E0,-1.319885254E-2,-3.646850586E-3,-6.088256836E-3
1.816540995E0,-1.351928711E-2,-1.480102539E-3,-4.943847656E-3
1.821576395E0,-1.162719727E-2,-9.307861328E-4,-6.301879883E-3
1.826611796E0,-1.110839844E-2,-4.684448242E-3,-5.783081055E-3
1.831647196E0,-1.188659668E-2,-5.691528320E-3,-6.286621094E-3
1.836682596E0,-1.219177246E-2,-2.914428711E-3,-5.798339844E-3
1.841717997E0,-1.264953613E-2,4.577636719E-4,-6.256103516E-3
1.846753397E0,-1.156616211E-2,-4.119873047E-4,-5.172729492E-3
1.851788798E0,-1.115417480E-2,-4.791259766E-3,-4.440307617E-3
1.856824198E0,-1.188659668E-2,-5.569458008E-3,-4.776000977E-3
1.861859598E0,-1.153564453E-2,-3.051757812E-3,-5.142211914E-3
1.866894999E0,-1.081848145E-2,-1.296997070E-3,-4.806518555E-3
1.871930399E0,-1.045227051E-2,-2.365112305E-3,-5.874633789E-3
1.876965799E0,-1.054382324E-2,-4.241943359E-3,-6.958007812E-3
1.882001200E0,-1.148986816E-2,-6.256103516E-3,-7.232666016E-3
1.887036600E0,-1.124572754E-2,-5.432128906E-3,-6.576538086E-3
1.892072001E0,-1.232910156E-2,-4.119873047E-3,-7.873535156E-3
1.897107401E0,-1.295471191E-2,-3.677368164E-3,-1.022338867E-2
1.902142801E0,-1.251220703E-2,-4.409790039E-3,-1.039123535E-2
1.907178202E0,-1.188659668E-2,-6.729125977E-3,-1.023864746E-2
1.912213602E0,-1.188659668E-2,-8.270263672E-3,-9.902954102E-3
1.917249003E0,-1.141357422E-2,-9.948730469E-3,-9.185791016E-3
1.922284403E0,-1.132202148E-2,-1.004028320E-2,-9.277343750E-3
1.927319803E0,-1.240539551E-2,-8.453369141E-3,-9.216308594E-3
1.932355204E0,-1.243591309E-2,-8.911132812E-3,-9.246826172E-3
1.937390604E0,-1.242065430E-2,-1.052856445E-2,-9.780883789E-3
1.942426005E0,-1.187133789E-2,-1.052856445E-2,-9.750366211E-3
1.947461405E0,-1.081848145E-2,-9.414672852E-3,-8.148193359E-3
1.952496805E0,-1.081848145E-2,-7.827758789E-3,-7.644653320E-3
1.957532206E0,-1.081848145E-2,-7.324218750E-3,-7.644653320E-3
1.962567606E0,-9.643554688E-3,-9.094238281E-3,-7.644653320E-3
1.967603007E0,-9.292602539E-3,-1.052856445E-2,-7.644653320E-3
1.972638407E0,-8.529663086E-3,-9.307861328E-3,-7.019042969E-3
1.977673807E0,-8.239746094E-3,-7.781982422E-3,-5.950927734E-3
1.982709208E0,-8.682250977E-3,-8.605957031E-3,-6.774902344E-3
1.987744608E0,-8.041381836E-3,-1.141357422E-2,-7.644653320E-3
1.992780008E0,-7.614135742E-3,-1.266479492E-2,-6.973266602E-3
1.997815409E0,-6.958007812E-3,-1.200866699E-2,-5.905151367E-3
2.002850809E0,-5.874633789E-3,-9.567260742E-3,-5.508422852E-3
2.007886210E0,-4.791259766E-3,-7.003784180E-3,-5.508422852E-3
2.012921610E0,-5.126953125E-3,-7.675170898E-3,-5.508422852E-3
2.017957010E0,-4.058837891E-3,-9.826660156E-3,-6.927490234E-3
2.022992411E0,-2.624511719E-3,-1.272583008E-2,-5.447387695E-3
2.028027811E0,-5.249023438E-3,-1.522827148E-2,-6.652832031E-3
2.033063212E0,-5.798339844E-3,-1.437377930E-2,-6.134033203E-3
2.038098612E0,-6.240844727E-3,-9.933471680E-3,-6.256103516E-3
2.043134012E0,-5.783081055E-3,-8.392333984E-3,-6.576538086E-3
2.048169413E0,-4.699707031E-3,-1.155090332E-2,-5.783081055E-3
2.053204813E0,-4.409790039E-3,-1.347351074E-2,-5.508422852E-3
2.058240214E0,-4.409790039E-3,-1.293945312E-2,-4.699707031E-3
2.063275614E0,-5.233764648E-3,-1.103210449E-2,-2.792358398E-3
2.068311014E0,-4.653930664E-3,-1.220703125E-2,-3.128051758E-3
2.073346415E0,-3.570556641E-3,-1.266479492E-2,-3.372192383E-3
2.078381815E0,-2.487182617E-3,-1.095581055E-2,-2.502441406E-3
2.083417215E0,-2.273559570E-3,-9.674072266E-3,-2.304077148E-3
2.088452616E0,-5.187988281E-4,-1.210021973E-2,-1.419067383E-3
2.093488016E0,-1.373291016E-4,-1.445007324E-2,-1.235961914E-3
2.098523417E0,7.476806641E-4,-1.391601562E-2,-2.120971680E-3
2.103558817E0,1.525878906E-5,-1.191711426E-2,-2.304077148E-3
2.108594217E0,7.781982422E-4,-9.750366211E-3,-2.304077148E-3
2.113629618E0,2.792358398E-3,-1.228332520E-2,-2.304077148E-3
2.118665018E0,3.067016602E-3,-1.457214355E-2,-2.304077148E-3
2.123700419E0,2.105712891E-3,-1.480102539E-2,-2.304077148E-3
2.128735819E0,1.998901367E-3,-1.286315918E-2,-1.327514648E-3
2.133771219E0,3.952026367E-3,-1.266479492E-2,-1.235961914E-3
2.138806620E0,2.151489258E-3,-1.266479492E-2,-1.235961914E-3
2.143842020E0,2.990722656E-3,-1.266479492E-2,-2.227783203E-3
2.148877421E0,4.074096680E-3,-1.165771484E-2,-1.281738281E-3
2.153912821E0,2.075195312E-3,-1.057434082E-2,-1.983642578E-4
2.158948221E0,3.021240234E-3,-1.364135742E-2,8.697509766E-4
2.163983622E0,4.119873047E-3,-1.585388184E-2,9.002685547E-4
2.169019022E0,3.067016602E-3,-1.693725586E-2,1.968383789E-3
2.174054423E0,1.998901367E-3,-1.586914062E-2,1.968383789E-3
2.179089823E0,3.082275391E-3,-1.371765137E-2,9.307861328E-4
2.184125223E0,4.135131836E-3,-1.264953613E-2,1.968383789E-3
2.189160624E0,4.165649414E-3,-1.164245605E-2,2.059936523E-3
2.194196024E0,5.310058594E-3,-1.290893555E-2,4.165649414E-3
2.199231424E0,7.263183594E-3,-1.679992676E-2,5.172729492E-3
2.204266825E0,6.179809570E-3,-1.457214355E-2,5.096435547E-3
2.209302225E0,5.203247070E-3,-1.132202148E-2,4.104614258E-3
2.214337626E0,5.401611328E-3,-8.499145508E-3,4.104614258E-3
2.219373026E0,7.446289062E-3,-9.704589844E-3,4.226684570E-3
2.224408426E0,8.407592773E-3,-1.187133789E-2,5.310058594E-3
2.229443827E0,8.255004883E-3,-1.345825195E-2,6.103515625E-3
2.234479227E0,7.476806641E-3,-1.115417480E-2,5.172729492E-3
2.239514628E0,8.407592773E-3,-8.239746094E-3,5.340576172E-3
2.244550028E0,8.575439453E-3,-7.507324219E-3,6.240844727E-3
2.249585428E0,9.475708008E-3,-8.590698242E-3,6.240844727E-3
2.254620829E0,9.658813477E-3,-9.658813477E-3,6.439208984E-3
2.259656229E0,1.074218750E-2,-1.052856445E-2,7.522583008E-3
2.264691630E0,1.161193848E-2,-1.031494141E-2,8.605957031E-3
2.269727030E0,1.138305664E-2,-9.017944336E-3,9.445190430E-3
2.274762430E0,1.029968262E-2,-7.568359375E-3,9.689331055E-3
2.279797831E0,9.475708008E-3,-8.148193359E-3,1.051330566E-2
2.284833231E0,9.475708008E-3,-7.064819336E-3,1.051330566E-2
2.289868632E0,1.000976562E-2,-5.722045898E-3,1.078796387E-2
2.294904032E0,1.161193848E-2,-4.119873047E-3,1.130676270E-2
2.299939432E0,1.219177246E-2,-4.119873047E-3,1.081848145E-2
2.304974833E0,1.342773438E-2,-4.119873047E-3,1.158142090E-2
2.310010233E0,1.298522949E-2,-3.494262695E-3,1.190185547E-2
2.315045633E0,1.406860352E-2,-1.983642578E-3,1.232910156E-2
2.320081034E0,1.446533203E-2,-2.334594727E-3,1.158142090E-2
2.325116434E0,1.409912109E-2,-3.051757812E-3,1.229858398E-2
2.330151835E0,1.481628418E-2,-3.417968750E-3,1.336669922E-2
2.335187235E0,1.518249512E-2,-3.753662109E-3,1.303100586E-2
2.340222635E0,1.548767090E-2,-2.288818359E-3,1.333618164E-2
2.345258036E0,1.521301270E-2,-5.187988281E-4,1.306152344E-2
2.350293436E0,1.588439941E-2,5.493164062E-4,1.371765137E-2
2.355328837E0,1.629638672E-2,1.632690430E-3,1.330566406E-2
2.360364237E0,1.695251465E-2,2.288818359E-3,1.309204102E-2
2.365399637E0,1.695251465E-2,1.403808594E-3,1.329040527E-2
2.370435038E0,1.695251465E-2,5.950927734E-4,1.310729980E-2
2.375470438E0,1.602172852E-2,1.678466797E-3,1.371765137E-2
2.380505839E0,1.528930664E-2,2.288818359E-3,1.371765137E-2
2.385541239E0,1.637268066E-2,1.785278320E-3,1.371765137E-2
2.390576639E0,1.644897461E-2,7.171630859E-4,1.322937012E-2
2.395612040E0,1.638793945E-2,-3.662109375E-4,1.316833496E-2
2.400647440E0,1.695251465E-2,1.068115234E-4,1.371765137E-2
2.405682840E0,1.747131348E-2,2.273559570E-3,1.319885254E-2
2.410718241E0,1.802062988E-2,3.356933594E-3,1.374816895E-2
2.415753641E0,1.856994629E-2,2.227783203E-3,1.423645020E-2
2.420789042E0,1.965332031E-2,2.349853516E-3,1.315307617E-2
2.425824442E0,2.015686035E-2,4.501342773E-3,1.208496094E-2
2.430859842E0,2.015686035E-2,4.898071289E-3,1.100158691E-2
2.435895243E0,2.075195312E-2,4.425048828E-3,1.051330566E-2
2.440930643E0,2.183532715E-2,3.799438477E-3,1.113891602E-2
2.445966044E0,2.229309082E-2,3.967285156E-3,1.097106934E-2
2.451001444E0,2.229309082E-2,5.050659180E-3,1.051330566E-2
2.456036844E0,2.293395996E-2,6.134033203E-3,9.872436523E-3
2.461072245E0,2.401733398E-2,5.889892578E-3,8.789062500E-3
2.466107645E0,2.375793457E-2,4.150390625E-3,7.720947266E-3
2.471143046E0,2.336120605E-2,4.714965820E-3,7.995605469E-3
2.476178446E0,2.336120605E-2,6.179809570E-3,8.377075195E-3
2.481213846E0,2.194213867E-2,7.263183594E-3,9.094238281E-3
2.486249247E0,2.194213867E-2,6.896972656E-3,8.728027344E-3
2.491284647E0,2.082824707E-2,6.561279297E-3,7.659912109E-3
2.496320048E0,2.163696289E-2,6.561279297E-3,6.576538086E-3
2.501355448E0,2.455139160E-2,8.056640625E-3,6.240844727E-3
2.506390848E0,2.395629883E-2,8.697509766E-3,5.477905273E-3
2.511426249E0,2.412414551E-2,9.460449219E-3,5.950927734E-3
2.516461649E0,2.284240723E-2,1.054382324E-2,5.462646484E-3
2.521497049E0,2.308654785E-2,1.002502441E-2,6.774902344E-3
2.526532450E0,2.416992188E-2,8.941650391E-3,8.132934570E-3
2.531567850E0,2.442932129E-2,8.697509766E-3,7.553100586E-3
2.536603251E0,2.775573730E-2,1.036071777E-2,6.484985352E-3
2.541638651E0,2.870178223E-2,1.083374023E-2,6.240844727E-3
2.546674051E0,2.783203125E-2,9.963989258E-3,5.386352539E-3
2.551709452E0,2.763366699E-2,1.063537598E-2,3.433227539E-3
2.556744852E0,2.850341797E-2,1.258850098E-2,2.166748047E-3
2.561780253E0,2.958679199E-2,1.385498047E-2,1.083374023E-3
2.566815653E0,2.885437012E-2,1.403808594E-2,0.000000000E0
2.571851053E0,2.778625488E-2,1.312255859E-2,7.476806641E-4
2.576886454E0,2.670288086E-2,1.388549805E-2,-9.460449219E-4
2.581921854E0,2.749633789E-2,1.309204102E-2,-1.235961914E-3
2.586957255E0,2.763366699E-2,1.200866699E-2,-1.235961914E-3
2.591992655E0,2.763366699E-2,1.382446289E-2,-1.235961914E-3
2.597028055E0,2.763366699E-2,1.597595215E-2,-4.135131836E-3
2.602063456E0,2.861022949E-2,1.715087891E-2,-4.440307617E-3
2.607098856E0,2.769470215E-2,1.623535156E-2,-2.441406250E-3
2.612134257E0,2.763366699E-2,1.313781738E-2,-2.304077148E-3
2.617169657E0,2.966308594E-2,1.499938965E-2,-2.304077148E-3
2.622205057E0,2.873229980E-2,1.715087891E-2,-3.326416016E-3
2.627240458E0,2.870178223E-2,1.724243164E-2,-4.409790039E-3
2.632275858E0,2.658081055E-2,1.724243164E-2,-3.372192383E-3
2.637311258E0,2.761840820E-2,1.724243164E-2,-3.372192383E-3
2.642346659E0,2.976989746E-2,1.829528809E-2,-3.356933594E-3
2.647382059E0,2.978515625E-2,1.727294922E-2,-2.319335938E-3
2.652417460E0,3.079223633E-2,1.943969727E-2,-3.402709961E-3
2.657452860E0,2.976989746E-2,2.151489258E-2,-4.470825195E-3
2.662488260E0,2.981567383E-2,2.151489258E-2,-5.508422852E-3
2.667523661E0,3.076171875E-2,2.163696289E-2,-5.508422852E-3
2.672559061E0,2.976989746E-2,2.355957031E-2,-5.584716797E-3
2.677594462E0,2.995300293E-2,2.258300781E-2,-6.576538086E-3
2.682629862E0,3.199768066E-2,2.247619629E-2,-6.576538086E-3
2.687665262E0,3.297424316E-2,2.151489258E-2,-6.683349609E-3
2.692700663E0,3.271484375E-2,2.163696289E-2,-7.507324219E-3
2.697736063E0,3.097534180E-2,2.299499512E-2,-6.713867188E-3
2.702771464E0,3.204345703E-2,2.548217773E-2,-7.934570312E-3
2.707806864E0,3.326416016E-2,2.320861816E-2,-9.780883789E-3
2.712842264E0,3.511047363E-2,2.061462402E-2,-1.011657715E-2
2.717877665E0,3.472900391E-2,2.206420898E-2,-1.171875000E-2
2.722913065E0,3.297424316E-2,2.471923828E-2,-1.084899902E-2
2.727948465E0,3.297424316E-2,2.430725098E-2,-1.084899902E-2
2.732983866E0,3.274536133E-2,2.212524414E-2,-1.062011719E-2
2.738019266E0,3.190612793E-2,2.090454102E-2,-1.000976562E-2
2.743054667E0,3.190612793E-2,2.281188965E-2,-1.132202148E-2
2.748090067E0,3.164672852E-2,2.339172363E-2,-1.246643066E-2
2.753125467E0,3.056335449E-2,2.258300781E-2,-1.084899902E-2
2.758160868E0,2.920532227E-2,2.258300781E-2,-1.084899902E-2
2.763196268E0,2.705383301E-2,2.171325684E-2,-1.055908203E-2
2.768231669E0,2.549743652E-2,1.937866211E-2,-1.007080078E-2
2.773267069E0,2.517700195E-2,2.000427246E-2,-1.052856445E-2
2.778302469E0,2.442932129E-2,2.183532715E-2,-1.042175293E-2
2.783337870E0,2.442932129E-2,2.290344238E-2,-1.124572754E-2
2.788373270E0,2.407836914E-2,2.224731445E-2,-9.780883789E-3
2.793408671E0,2.336120605E-2,1.864624023E-2,-9.780883789E-3
2.798444071E0,2.297973633E-2,1.797485352E-2,-1.051330566E-2
2.803479471E0,2.229309082E-2,1.976013184E-2,-1.229858398E-2
2.808514872E0,2.229309082E-2,1.925659180E-2,-1.298522949E-2
2.813550272E0,2.229309082E-2,1.724243164E-2,-1.257324219E-2
2.818585673E0,2.270507812E-2,1.765441895E-2,-1.191711426E-2
2.823621073E0,2.291870117E-2,1.786804199E-2,-1.191711426E-2
2.828656473E0,2.229309082E-2,1.724243164E-2,-1.145935059E-2
2.833691874E0,2.183532715E-2,1.768493652E-2,-1.129150391E-2
2.838727274E0,2.122497559E-2,1.876831055E-2,-1.098632812E-2
2.843762674E0,2.169799805E-2,1.937866211E-2,-9.292602539E-3
2.848798075E0,2.178955078E-2,1.838684082E-2,-8.712768555E-3
2.853833475E0,2.122497559E-2,1.724243164E-2,-8.712768555E-3
2.858868876E0,2.070617676E-2,1.672363281E-2,-9.216308594E-3
2.863904276E0,1.962280273E-2,1.617431641E-2,-9.246826172E-3
2.868939676E0,1.853942871E-2,1.562500000E-2,-8.163452148E-3
2.873975077E0,1.802062988E-2,1.565551758E-2,-7.644653320E-3
2.879010477E0,1.745605469E-2,1.560974121E-2,-7.644653320E-3
2.884045878E0,1.579284668E-2,1.567077637E-2,-8.209228516E-3
2.889081278E0,1.481628418E-2,1.557922363E-2,-7.537841797E-3
2.894116678E0,1.420593262E-2,1.449584961E-2,-5.966186523E-3
2.899152079E0,1.434326172E-2,1.403808594E-2,-6.713867188E-3
2.904187479E0,1.419067383E-2,1.341247559E-2,-6.393432617E-3
2.909222880E0,1.374816895E-2,1.168823242E-2,-6.134033203E-3
2.914258280E0,1.502990723E-2,1.017761230E-2,-5.279541016E-3
2.919293680E0,1.522827148E-2,1.106262207E-2,-4.440307617E-3
2.924329081E0,1.280212402E-2,1.190185547E-2,-5.096435547E-3
2.929364481E0,1.295471191E-2,1.257324219E-2,-4.821777344E-3
2.934399882E0,1.304626465E-2,1.158142090E-2,-3.738403320E-3
2.939435282E0,1.127624512E-2,9.429931641E-3,-3.372192383E-3
2.944470682E0,1.054382324E-2,9.399414062E-3,-4.074096680E-3
2.949506083E0,9.078979492E-3,9.033203125E-3,-3.707885742E-3
2.954541483E0,8.407592773E-3,9.429931641E-3,-3.372192383E-3
2.959576883E0,6.912231445E-3,9.765625000E-3,-4.104614258E-3
2.964612284E0,4.745483398E-3,9.002685547E-3,-4.440307617E-3
2.969647684E0,2.578735352E-3,8.697509766E-3,-2.105712891E-3
2.974683085E0,1.998901367E-3,8.697509766E-3,3.356933594E-4
2.979718485E0,2.777099609E-3,8.697509766E-3,9.002685547E-4
2.984753885E0,2.258300781E-3,7.888793945E-3,9.002685547E-4
2.989789286E0,1.998901367E-3,8.438110352E-3,1.724243164E-3
2.994824686E0,3.204345703E-4,8.697509766E-3,1.968383789E-3
2.999860087E0,-1.373291016E-4,7.843017578E-3,1.968383789E-3
3.004895487E0,-1.373291016E-4,7.629394531E-3,1.129150391E-3
3.009930887E0,-9.918212891E-4,7.629394531E-3,2.609252930E-3
3.014966288E0,-3.356933594E-4,6.744384766E-3,1.296997070E-3
3.020001688E0,-1.373291016E-4,6.561279297E-3,1.800537109E-3
3.025037089E0,-1.037597656E-3,5.661010742E-3,1.083374023E-3
3.030072489E0,-3.952026367E-3,6.393432617E-3,1.815795898E-3
3.035107889E0,-4.409790039E-3,5.630493164E-3,1.968383789E-3
3.040143290E0,-3.479003906E-3,3.616333008E-3,3.845214844E-3
3.045178690E0,-5.233764648E-3,2.410888672E-3,2.227783203E-3
3.050214090E0,-6.439208984E-3,2.288818359E-3,1.968383789E-3
3.055249491E0,-8.499145508E-3,3.250122070E-3,1.968383789E-3
3.060284891E0,-9.674072266E-3,3.356933594E-3,1.968383789E-3
3.065320292E0,-9.750366211E-3,1.358032227E-3,1.968383789E-3
3.070355692E0,-1.177978516E-2,-8.087158203E-4,2.990722656E-3
3.075391092E0,-1.188659668E-2,-1.937866211E-3,1.007080078E-3
3.080426493E0,-1.600646973E-2,-1.983642578E-3,9.002685547E-4
3.085461893E0,-1.721191406E-2,-1.983642578E-3,2.990722656E-3
3.090497294E0,-1.829528809E-2,-1.983642578E-3,4.104614258E-3
3.095532694E0,-1.936340332E-2,-3.051757812E-3,4.104614258E-3
3.100568094E0,-2.044677734E-2,-3.051757812E-3,5.172729492E-3
3.105603495E0,-2.149963379E-2,-2.014160156E-3,4.104614258E-3
3.110638895E0,-2.148437500E-2,-3.082275391E-3,4.135131836E-3
3.115674296E0,-2.043151855E-2,-4.089355469E-3,5.142211914E-3
3.120709696E0,-2.043151855E-2,-3.112792969E-3,4.165649414E-3
3.125745096E0,-2.050781250E-2,-4.196166992E-3,5.050659180E-3
3.130780497E0,-2.127075195E-2,-5.279541016E-3,3.036499023E-3
3.135815897E0,-1.829528809E-2,-6.256103516E-3,2.960205078E-3
3.140851298E0,-1.840209961E-2,-6.164550781E-3,1.968383789E-3
3.145886698E0,-1.936340332E-2,-5.310058594E-3,2.090454102E-3
3.150922098E0,-1.950073242E-2,-6.011962891E-3,2.914428711E-3
3.155957499E0,-2.043151855E-2,-4.272460938E-3,1.968383789E-3
3.160992899E0,-2.014160156E-2,-5.187988281E-3,1.968383789E-3
3.166028299E0,-1.846313477E-2,-5.187988281E-3,1.815795898E-3
3.171063700E0,-1.936340332E-2,-5.187988281E-3,1.083374023E-3
3.176099100E0,-1.956176758E-2,-5.187988281E-3,1.785278320E-3
3.181134501E0,-2.043151855E-2,-5.584716797E-3,1.098632812E-3
3.186169901E0,-2.085876465E-2,-7.537841797E-3,1.770019531E-3
3.191205301E0,-2.235412598E-2,-8.178710938E-3,9.002685547E-4
3.196240702E0,-2.174377441E-2,-7.095336914E-3,1.144409180E-3
3.201276102E0,-2.281188965E-2,-6.500244141E-3,1.968383789E-3
3.206311503E0,-2.389526367E-2,-7.324218750E-3,1.968383789E-3
3.211346903E0,-2.470397949E-2,-7.064819336E-3,1.708984375E-3
3.216382303E0,-2.442932129E-2,-6.820678711E-3,3.509521484E-4
3.221417704E0,-2.363586426E-2,-8.682250977E-3,-9.460449219E-4
3.226453104E0,-2.455139160E-2,-9.765625000E-3,1.373291016E-4
3.231488505E0,-2.653503418E-2,-1.022338867E-2,5.950927734E-4
3.236523905E0,-2.577209473E-2,-9.140014648E-3,-1.678466797E-4
3.241559305E0,-2.545166016E-2,-8.728027344E-3,-1.678466797E-4
3.246594706E0,-2.470397949E-2,-8.773803711E-3,-1.678466797E-4
3.251630106E0,-2.470397949E-2,-7.324218750E-3,-5.187988281E-4
3.256665507E0,-2.433776855E-2,-8.438110352E-3,-1.235961914E-3
3.261700907E0,-2.363586426E-2,-1.091003418E-2,-1.235961914E-3
3.266736307E0,-2.325439453E-2,-1.081848145E-2,-1.617431641E-3
3.271771708E0,-2.217102051E-2,-9.063720703E-3,-1.892089844E-3
3.276807108E0,-2.192687988E-2,-8.392333984E-3,-1.647949219E-3
3.281842508E0,-2.214050293E-2,-8.392333984E-3,-2.731323242E-3
3.286877909E0,-2.149963379E-2,-8.834838867E-3,-3.372192383E-3
3.291913309E0,-2.149963379E-2,-9.017944336E-3,-3.372192383E-3
3.296948710E0,-2.197265625E-2,-8.865356445E-3,-3.372192383E-3
3.301984110E0,-2.209472656E-2,-9.948730469E-3,-3.845214844E-3
3.307019510E0,-2.102661133E-2,-1.052856445E-2,-4.440307617E-3
3.312054911E0,-2.043151855E-2,-9.552001953E-3,-4.440307617E-3
3.317090311E0,-2.043151855E-2,-8.911132812E-3,-4.943847656E-3
3.322125712E0,-2.148437500E-2,-1.051330566E-2,-4.974365234E-3
3.327161112E0,-2.256774902E-2,-1.266479492E-2,-4.959106445E-3
3.332196512E0,-2.256774902E-2,-1.373291016E-2,-6.591796875E-3
3.337231913E0,-2.201843262E-2,-1.318359375E-2,-7.080078125E-3
3.342267313E0,-2.264404297E-2,-1.153564453E-2,-6.576538086E-3
3.347302714E0,-2.307128906E-2,-1.110839844E-2,-7.720947266E-3
3.352338114E0,-2.198791504E-2,-1.336669922E-2,-8.712768555E-3
3.357373514E0,-2.210998535E-2,-1.480102539E-2,-9.307861328E-3
3.362408915E0,-2.256774902E-2,-1.419067383E-2,-1.039123535E-2
3.367444315E0,-2.194213867E-2,-1.373291016E-2,-1.084899902E-2
3.372479715E0,-2.149963379E-2,-1.373291016E-2,-1.148986816E-2
3.377515116E0,-2.085876465E-2,-1.438903809E-2,-1.191711426E-2
3.382550516E0,-1.977539062E-2,-1.480102539E-2,-1.257324219E-2
3.387585917E0,-1.869201660E-2,-1.617431641E-2,-1.298522949E-2
3.392621317E0,-1.899719238E-2,-1.625061035E-2,-1.298522949E-2
3.397656717E0,-1.727294922E-2,-1.657104492E-2,-1.298522949E-2
3.402692118E0,-1.615905762E-2,-1.623535156E-2,-1.226806641E-2
3.407727518E0,-1.544189453E-2,-1.586914062E-2,-1.263427734E-2
3.412762919E0,-1.509094238E-2,-1.661682129E-2,-1.298522949E-2
3.417798319E0,-1.509094238E-2,-1.620483398E-2,-1.371765137E-2
3.422833719E0,-1.509094238E-2,-1.512145996E-2,-1.556396484E-2
3.427869120E0,-1.354980469E-2,-1.635742188E-2,-1.618957520E-2
3.432904520E0,-1.138305664E-2,-1.615905762E-2,-1.618957520E-2
3.437939921E0,-1.242065430E-2,-1.747131348E-2,-1.618957520E-2
3.442975321E0,-1.135253906E-2,-1.721191406E-2,-1.538085938E-2
3.448010721E0,-1.081848145E-2,-1.693725586E-2,-1.429748535E-2
3.453046122E0,-9.994506836E-3,-1.611328125E-2,-1.405334473E-2
3.458081522E0,-8.926391602E-3,-1.670837402E-2,-1.487731934E-2
3.463116923E0,-9.536743164E-3,-1.693725586E-2,-1.512145996E-2
3.468152323E0,-8.895874023E-3,-1.693725586E-2,-1.683044434E-2
3.473187723E0,-1.043701172E-2,-1.693725586E-2,-1.725769043E-2
3.478223124E0,-8.178710938E-3,-1.782226562E-2,-1.637268066E-2
3.483258524E0,-7.614135742E-3,-1.800537109E-2,-1.707458496E-2
3.488293924E0,-8.529663086E-3,-1.710510254E-2,-1.725769043E-2
3.493329325E0,-7.766723633E-3,-1.693725586E-2,-1.632690430E-2
3.498364725E0,-5.767822266E-3,-1.786804199E-2,-1.525878906E-2
3.503400126E0,-5.477905273E-3,-1.707458496E-2,-1.417541504E-2
3.508435526E0,-4.531860352E-3,-1.599121094E-2,-1.405334473E-2
3.513470926E0,-3.448486328E-3,-1.586914062E-2,-1.405334473E-2
3.518506327E0,-4.318237305E-3,-1.586914062E-2,-1.501464844E-2
3.523541727E0,-4.409790039E-3,-1.489257812E-2,-1.609802246E-2
3.528577128E0,-3.417968750E-3,-1.380920410E-2,-1.618957520E-2
3.533612528E0,-2.334594727E-3,-1.170349121E-2,-1.516723633E-2
3.538647928E0,-1.251220703E-3,-1.159667969E-2,-1.614379883E-2
3.543683329E0,-2.243041992E-3,-1.263427734E-2,-1.515197754E-2
3.548718729E0,-1.831054688E-4,-1.266479492E-2,-1.406860352E-2
3.553754130E0,-1.373291016E-4,-1.373291016E-2,-1.405334473E-2
3.558789530E0,1.998901367E-3,-1.264953613E-2,-1.403808594E-2
3.563824930E0,4.135131836E-3,-9.460449219E-3,-1.298522949E-2
3.568860331E0,4.150390625E-3,-9.460449219E-3,-1.295471191E-2
3.573895731E0,5.203247070E-3,-9.552001953E-3,-1.194763184E-2
3.578931132E0,5.249023438E-3,-1.155090332E-2,-1.307678223E-2
3.583966532E0,6.332397461E-3,-1.046752930E-2,-1.504516602E-2
3.589001932E0,7.339477539E-3,-9.460449219E-3,-1.397705078E-2
3.594037333E0,7.339477539E-3,-9.552001953E-3,-1.280212402E-2
3.599072733E0,7.522583008E-3,-1.063537598E-2,-1.084899902E-2
3.604108133E0,9.475708008E-3,-1.138305664E-2,-1.084899902E-2
3.609143534E0,9.475708008E-3,-9.216308594E-3,-1.071166992E-2
3.614178934E0,9.475708008E-3,-7.324218750E-3,-9.643554688E-3
3.619214335E0,9.735107422E-3,-7.461547852E-3,-8.438110352E-3
3.624249735E0,1.161193848E-2,-8.560180664E-3,-6.408691406E-3
3.629285135E0,1.161193848E-2,-9.292602539E-3,-5.676269531E-3
3.634320536E0,1.161193848E-2,-8.392333984E-3,-6.393432617E-3
3.639355936E0,1.161193848E-2,-8.590698242E-3,-5.691528320E-3
3.644391337E0,1.181030273E-2,-9.063720703E-3,-6.774902344E-3
3.649426737E0,1.245117188E-2,-7.110595703E-3,-7.644653320E-3
3.654462137E0,1.161193848E-2,-6.713867188E-3,-7.858276367E-3
3.659497538E0,1.161193848E-2,-8.636474609E-3,-8.712768555E-3
3.664532938E0,1.161193848E-2,-8.972167969E-3,-7.705688477E-3
3.669568339E0,1.187133789E-2,-6.805419922E-3,-4.440307617E-3
3.674603739E0,1.268005371E-2,-5.462646484E-3,-4.440307617E-3
3.679639139E0,1.268005371E-2,-6.256103516E-3,-4.440307617E-3
3.684674540E0,1.237487793E-2,-6.561279297E-3,-4.135131836E-3
3.689709940E0,1.222229004E-2,-7.019042969E-3,-3.372192383E-3
3.694745340E0,1.406860352E-2,-5.615234375E-3,-2.716064453E-3
3.699780741E0,1.414489746E-2,-4.119873047E-3,-1.556396484E-3
3.704816141E0,1.335144043E-2,-4.119873047E-3,-2.304077148E-3
3.709851542E0,1.551818848E-2,-3.768920898E-3,-1.937866211E-3
3.714886942E0,1.620483398E-2,-3.051757812E-3,-1.235961914E-3
3.719922342E0,1.481628418E-2,-3.051757812E-3,-8.544921875E-4
3.724957743E0,1.519775391E-2,-3.448486328E-3,-1.678466797E-4
3.729993143E0,1.628112793E-2,-3.326416016E-3,-1.678466797E-4
3.735028544E0,1.736450195E-2,-1.159667969E-3,2.593994141E-4
3.740063944E0,1.716613770E-2,-2.746582031E-4,9.002685547E-4
3.745099344E0,1.631164551E-2,-1.800537109E-3,9.002685547E-4
3.750134745E0,1.783752441E-2,-3.509521484E-3,4.577636719E-4
3.755170145E0,1.815795898E-2,-4.592895508E-3,3.051757812E-4
3.760205546E0,1.647949219E-2,-4.257202148E-3,1.373291016E-3
3.765240946E0,1.539611816E-2,-1.617431641E-3,1.007080078E-3
3.770276346E0,1.431274414E-2,1.525878906E-4,-1.678466797E-4
3.775311747E0,1.374816895E-2,-8.697509766E-4,8.544921875E-4
3.780347147E0,1.425170898E-2,-3.021240234E-3,3.005981445E-3
3.785382548E0,1.428222656E-2,-3.601074219E-3,5.172729492E-3
3.790417948E0,1.266479492E-2,-1.983642578E-3,6.240844727E-3
3.795453348E0,1.161193848E-2,-9.155273438E-4,6.240844727E-3
3.800488749E0,1.216125488E-2,-9.155273438E-4,6.240844727E-3
3.805524149E0,1.210021973E-2,-9.155273438E-4,7.400512695E-3
3.810559549E0,1.161193848E-2,-3.356933594E-4,7.797241211E-3
3.815594950E0,1.100158691E-2,7.476806641E-4,8.514404297E-3
3.820630350E0,1.174926758E-2,2.426147461E-3,1.005554199E-2
3.825665751E0,1.268005371E-2,2.731323242E-3,9.277343750E-3
3.830701151E0,1.268005371E-2,2.288818359E-3,8.377075195E-3
3.835736551E0,1.268005371E-2,2.288818359E-3,9.674072266E-3
3.840771952E0,1.332092285E-2,2.288818359E-3,9.872436523E-3
3.845807352E0,1.440429688E-2,3.616333008E-3,9.445190430E-3
3.850842753E0,1.412963867E-2,5.096435547E-3,1.013183594E-2
3.855878153E0,1.374816895E-2,4.104614258E-3,9.826660156E-3
3.860913553E0,1.443481445E-2,3.356933594E-3,8.758544922E-3
3.865948954E0,1.481628418E-2,3.356933594E-3,9.094238281E-3
3.870984354E0,1.481628418E-2,3.356933594E-3,1.017761230E-2
3.876019755E0,1.333618164E-2,4.821777344E-3,1.126098633E-2
3.881055155E0,1.268005371E-2,5.493164062E-3,1.084899902E-2
3.886090555E0,1.191711426E-2,6.240844727E-3,9.765625000E-3
3.891125956E0,1.161193848E-2,5.783081055E-3,8.682250977E-3
3.896161356E0,1.002502441E-2,5.493164062E-3,9.170532227E-3
3.901196757E0,7.873535156E-3,4.684448242E-3,9.445190430E-3
3.906232157E0,8.132934570E-3,5.218505859E-3,1.106262207E-2
3.911267557E0,1.004028320E-2,7.125854492E-3,1.077270508E-2
3.916302958E0,9.704589844E-3,6.790161133E-3,1.051330566E-2
3.921338358E0,8.636474609E-3,4.898071289E-3,1.135253906E-2
3.926373758E0,8.407592773E-3,6.973266602E-3,1.074218750E-2
3.931409159E0,9.262084961E-3,7.629394531E-3,9.658813477E-3
3.936444559E0,1.034545898E-2,6.744384766E-3,9.445190430E-3
3.941479960E0,1.054382324E-2,5.661010742E-3,8.560180664E-3
3.946515360E0,9.643554688E-3,6.378173828E-3,9.277343750E-3
3.951550760E0,1.037597656E-2,8.377075195E-3,9.445190430E-3
3.956586161E0,1.145935059E-2,1.054382324E-2,1.037597656E-2
3.961621561E0,1.254272461E-2,1.176452637E-2,1.051330566E-2
3.966656962E0,1.171875000E-2,9.994506836E-3,1.051330566E-2
3.971692362E0,1.161193848E-2,1.167297363E-2,1.147460938E-2
3.976727762E0,9.658813477E-3,1.190185547E-2,1.062011719E-2
3.981763163E0,1.142883301E-2,1.190185547E-2,1.051330566E-2
3.986798563E0,1.060485840E-2,1.289367676E-2,1.051330566E-2
3.991833964E0,1.054382324E-2,1.094055176E-2,1.153564453E-2
3.996869364E0,1.054382324E-2,1.083374023E-2,8.529663086E-3
4.001904764E0,9.506225586E-3,1.185607910E-2,9.414672852E-3
4.006940165E0,9.475708008E-3,1.293945312E-2,9.445190430E-3
4.011975565E0,8.407592773E-3,1.296997070E-2,8.392333984E-3
4.017010965E0,8.407592773E-3,1.083374023E-2,7.308959961E-3
4.022046366E0,5.203247070E-3,1.083374023E-2,7.308959961E-3
4.027081766E0,5.218505859E-3,1.084899902E-2,6.225585938E-3
4.032117167E0,6.225585938E-3,1.196289062E-2,5.172729492E-3
4.037152567E0,5.142211914E-3,1.403808594E-2,5.172729492E-3
4.042187967E0,4.180908203E-3,1.403808594E-2,5.172729492E-3
4.047223368E0,5.126953125E-3,1.403808594E-2,5.035400391E-3
4.052258768E0,4.135131836E-3,1.394653320E-2,2.960205078E-3
4.057294169E0,4.226684570E-3,1.286315918E-2,1.876831055E-3
4.062329569E0,5.203247070E-3,1.190185547E-2,1.007080078E-3
4.067364969E0,5.081176758E-3,1.200866699E-2,1.968383789E-3
4.072400370E0,4.135131836E-3,1.333618164E-2,1.846313477E-3
4.077435770E0,4.135131836E-3,1.602172852E-2,1.052856445E-3
4.082471171E0,3.982543945E-3,1.480102539E-2,1.831054688E-3
4.087506571E0,3.555297852E-3,1.312255859E-2,7.476806641E-4
4.092541971E0,5.905151367E-3,1.438903809E-2,-3.356933594E-4
4.097577372E0,4.318237305E-3,1.654052734E-2,-1.037597656E-3
4.102612772E0,5.386352539E-3,1.791381836E-2,3.051757812E-5
4.107648173E0,6.469726562E-3,1.574707031E-2,1.113891602E-3
4.112683573E0,7.339477539E-3,1.425170898E-2,1.525878906E-3
4.117718973E0,7.095336914E-3,1.580810547E-2,-3.967285156E-4
4.122754374E0,6.500244141E-3,1.831054688E-2,-1.235961914E-3
4.127789774E0,7.339477539E-3,1.753234863E-2,-1.235961914E-3
4.132825174E0,7.339477539E-3,1.483154297E-2,-9.613037109E-4
4.137860575E0,7.049560547E-3,1.458740234E-2,-7.171630859E-4
4.142895975E0,6.271362305E-3,1.617431641E-2,-2.593994141E-3
4.147931376E0,6.576538086E-3,1.617431641E-2,-3.982543945E-3
4.152966776E0,7.339477539E-3,1.617431641E-2,-5.813598633E-3
4.158002176E0,7.339477539E-3,1.617431641E-2,-6.576538086E-3
4.163037577E0,6.652832031E-3,1.582336426E-2,-6.576538086E-3
4.168072977E0,5.554199219E-3,1.473999023E-2,-7.278442383E-3
4.173108378E0,6.271362305E-3,1.403808594E-2,-9.063720703E-3
4.178143778E0,6.271362305E-3,1.440429688E-2,-9.399414062E-3
4.183179178E0,7.034301758E-3,1.432800293E-2,-8.712768555E-3
4.188214579E0,7.598876953E-3,1.376342773E-2,-8.712768555E-3
4.193249979E0,6.271362305E-3,1.467895508E-2,-9.124755859E-3
4.198285380E0,6.271362305E-3,1.361083984E-2,-1.019287109E-2
4.203320780E0,6.271362305E-3,1.339721680E-2,-1.084899902E-2
4.208356180E0,6.271362305E-3,1.448059082E-2,-1.084899902E-2
4.213391581E0,6.271362305E-3,1.510620117E-2,-1.130676270E-2
4.218426981E0,6.271362305E-3,1.463317871E-2,-1.144409180E-2
4.223462382E0,5.325317383E-3,1.356506348E-2,-1.084899902E-2
4.228497782E0,3.646850586E-3,1.248168945E-2,-1.084899902E-2
4.233533182E0,3.570556641E-3,1.341247559E-2,-1.185607910E-2
4.238568583E0,3.616333008E-3,1.510620117E-2,-1.298522949E-2
4.243603983E0,3.585815430E-3,1.405334473E-2,-1.245117188E-2
4.248639383E0,4.135131836E-3,1.242065430E-2,-1.136779785E-2
4.253674784E0,4.684448242E-3,1.245117188E-2,-1.249694824E-2
4.258710184E0,5.752563477E-3,1.351928711E-2,-1.405334473E-2
4.263745585E0,5.691528320E-3,1.231384277E-2,-1.461791992E-2
4.268780985E0,4.608154297E-3,1.083374023E-2,-1.512145996E-2
4.273816385E0,3.524780273E-3,1.022338867E-2,-1.631164551E-2
4.278851786E0,3.662109375E-3,1.097106934E-2,-1.725769043E-2
4.283887186E0,3.509521484E-3,1.251220703E-2,-1.663208008E-2
4.288922587E0,3.692626953E-3,1.232910156E-2,-1.681518555E-2
4.293957987E0,5.416870117E-3,9.963989258E-3,-1.596069336E-2
4.298993387E0,4.959106445E-3,8.697509766E-3,-1.641845703E-2
4.304028788E0,4.135131836E-3,8.697509766E-3,-1.791381836E-2
4.309064188E0,4.135131836E-3,9.368896484E-3,-1.696777344E-2
4.314099589E0,2.746582031E-3,8.377075195E-3,-1.687622070E-2
4.319134989E0,1.998901367E-3,7.629394531E-3,-1.794433594E-2
4.324170389E0,2.700805664E-3,7.629394531E-3,-1.760864258E-2
4.329205790E0,3.784179688E-3,6.896972656E-3,-1.870727539E-2
4.334241190E0,4.135131836E-3,6.561279297E-3,-1.864624023E-2
4.339276590E0,3.387451172E-3,6.561279297E-3,-1.905822754E-2
4.344311991E0,2.304077148E-3,5.035400391E-3,-1.939392090E-2
4.349347391E0,1.998901367E-3,4.425048828E-3,-2.015686035E-2
4.354382792E0,1.205444336E-3,6.774902344E-3,-1.966857910E-2
4.359418192E0,9.307861328E-4,6.820678711E-3,-1.858520508E-2
4.364453592E0,1.724243164E-3,5.752563477E-3,-1.911926270E-2
4.369488993E0,1.174926758E-3,3.021240234E-3,-1.939392090E-2
4.374524393E0,9.307861328E-4,1.449584961E-3,-1.939392090E-2
4.379559794E0,9.307861328E-4,2.899169922E-3,-1.939392090E-2
4.384595194E0,1.770019531E-3,5.905151367E-3,-1.853942871E-2
4.389630594E0,1.998901367E-3,4.821777344E-3,-1.918029785E-2
4.394665995E0,1.113891602E-3,1.785278320E-3,-1.850891113E-2
4.399701395E0,2.700805664E-3,-5.645751953E-4,-1.654052734E-2
4.404736796E0,3.067016602E-3,1.785278320E-3,-1.708984375E-2
4.409772196E0,3.067016602E-3,4.104614258E-3,-1.815795898E-2
4.414807596E0,1.205444336E-3,2.563476562E-3,-1.739501953E-2
4.419842997E0,-1.525878906E-5,1.342773438E-3,-1.631164551E-2
4.424878397E0,-1.373291016E-4,2.166748047E-3,-1.618957520E-2
4.429913798E0,-1.373291016E-4,1.327514648E-3,-1.522827148E-2
4.434949198E0,-1.113891602E-3,2.441406250E-4,-1.608276367E-2
4.439984598E0,-2.197265625E-3,1.525878906E-4,-1.618957520E-2
4.445019999E0,-2.273559570E-3,1.525878906E-4,-1.518249512E-2
4.450055399E0,-3.295898438E-3,1.525878906E-4,-1.512145996E-2
4.455090799E0,-3.341674805E-3,-8.697509766E-4,-1.512145996E-2
4.460126200E0,-5.401611328E-3,-1.953125000E-3,-1.512145996E-2
4.465161600E0,-5.477905273E-3,-4.074096680E-3,-1.406860352E-2
4.470197001E0,-4.425048828E-3,-4.119873047E-3,-1.298522949E-2
4.475232401E0,-7.614135742E-3,-1.983642578E-3,-1.298522949E-2
4.480267801E0,-5.477905273E-3,-9.307861328E-4,-1.403808594E-2
4.485303202E0,-5.508422852E-3,-2.029418945E-3,-1.295471191E-2
4.490338602E0,-6.591796875E-3,-4.165649414E-3,-1.187133789E-2
4.495374003E0,-7.583618164E-3,-5.157470703E-3,-1.087951660E-2
4.500409403E0,-6.500244141E-3,-4.028320312E-3,-1.196289062E-2
4.505444803E0,-5.554199219E-3,-1.983642578E-3,-1.298522949E-2
4.510480204E0,-6.637573242E-3,-2.151489258E-3,-1.289367676E-2
4.515515604E0,-7.614135742E-3,-4.318237305E-3,-1.181030273E-2
4.520551005E0,-7.720947266E-3,-6.256103516E-3,-1.074218750E-2
4.525586405E0,-8.575439453E-3,-5.920410156E-3,-9.658813477E-3
4.530621805E0,-7.843017578E-3,-3.051757812E-3,-8.712768555E-3
4.535657206E0,-1.004028320E-2,-3.204345703E-3,-8.712768555E-3
4.540692606E0,-1.173400879E-2,-4.440307617E-3,-8.712768555E-3
4.545728007E0,-1.081848145E-2,-6.088256836E-3,-8.712768555E-3
4.550763407E0,-1.100158691E-2,-5.187988281E-3,-8.880615234E-3
4.555798807E0,-1.228332520E-2,-5.187988281E-3,-9.582519531E-3
4.560834208E0,-1.382446289E-2,-5.187988281E-3,-8.499145508E-3
4.565869608E0,-1.295471191E-2,-5.844116211E-3,-7.415771484E-3
4.570905008E0,-1.295471191E-2,-8.636474609E-3,-6.576538086E-3
4.575940409E0,-1.319885254E-2,-8.987426758E-3,-6.576538086E-3
4.580975809E0,-1.428222656E-2,-7.324218750E-3,-6.576538086E-3
4.586011210E0,-1.509094238E-2,-8.117675781E-3,-6.301879883E-3
4.591046610E0,-1.538085938E-2,-1.052856445E-2,-5.508422852E-3
4.596082010E0,-1.615905762E-2,-1.025390625E-2,-5.218505859E-3
4.601117411E0,-1.615905762E-2,-9.765625000E-3,-4.730224609E-3
4.606152811E0,-1.615905762E-2,-1.084899902E-2,-5.187988281E-3
4.611188212E0,-1.615905762E-2,-1.129150391E-2,-4.440307617E-3
4.616223612E0,-1.615905762E-2,-1.052856445E-2,-3.784179688E-3
4.621259012E0,-1.582336426E-2,-1.121520996E-2,-2.639770508E-3
4.626294413E0,-1.509094238E-2,-1.266479492E-2,-3.723144531E-3
4.631329813E0,-1.545715332E-2,-1.194763184E-2,-4.074096680E-3
4.636365214E0,-1.654052734E-2,-1.052856445E-2,-3.738403320E-3
4.641400614E0,-1.722717285E-2,-1.130676270E-2,-4.440307617E-3
4.646436014E0,-1.763916016E-2,-1.266479492E-2,-4.440307617E-3
4.651471415E0,-1.829528809E-2,-1.307678223E-2,-4.028320312E-3
4.656506815E0,-1.829528809E-2,-1.373291016E-2,-3.372192383E-3
4.661542215E0,-1.786804199E-2,-1.287841797E-2,-2.929687500E-3
4.666577616E0,-1.722717285E-2,-1.205444336E-2,-2.304077148E-3
4.671613016E0,-1.722717285E-2,-1.313781738E-2,-2.304077148E-3
4.676648417E0,-1.770019531E-2,-1.327514648E-2,-2.304077148E-3
4.681683817E0,-1.878356934E-2,-1.362609863E-2,-1.815795898E-3
4.686719217E0,-1.986694336E-2,-1.431274414E-2,-7.324218750E-4
4.691754618E0,-1.992797852E-2,-1.475524902E-2,3.509521484E-4
4.696790018E0,-2.040100098E-2,-1.638793945E-2,3.967285156E-4
4.701825419E0,-2.044677734E-2,-1.588439941E-2,-6.866455078E-4
4.706860819E0,-1.991271973E-2,-1.480102539E-2,-1.525878906E-4
4.711896219E0,-2.043151855E-2,-1.480102539E-2,9.002685547E-4
4.716931620E0,-2.099609375E-2,-1.480102539E-2,9.002685547E-4
4.721967020E0,-2.149963379E-2,-1.480102539E-2,3.356933594E-4
4.727002421E0,-2.149963379E-2,-1.480102539E-2,4.272460938E-4
4.732037821E0,-2.210998535E-2,-1.480102539E-2,9.002685547E-4
4.737073221E0,-2.136230469E-2,-1.480102539E-2,1.510620117E-3
4.742108622E0,-2.043151855E-2,-1.542663574E-2,2.593994141E-3
4.747144022E0,-1.980590820E-2,-1.586914062E-2,2.410888672E-3
4.752179423E0,-2.066040039E-2,-1.522827148E-2,1.968383789E-3
4.757214823E0,-2.085876465E-2,-1.350402832E-2,2.624511719E-3
4.762250223E0,-1.977539062E-2,-1.333618164E-2,2.380371094E-3
4.767285624E0,-1.936340332E-2,-1.373291016E-2,1.968383789E-3
4.772321024E0,-2.006530762E-2,-1.373291016E-2,1.968383789E-3
4.777356424E0,-2.113342285E-2,-1.373291016E-2,1.281738281E-3
4.782391825E0,-2.079772949E-2,-1.373291016E-2,1.617431641E-3
4.787427225E0,-2.116394043E-2,-1.373291016E-2,1.968383789E-3
4.792462626E0,-2.299499512E-2,-1.373291016E-2,1.235961914E-3
4.797498026E0,-2.214050293E-2,-1.524353027E-2,9.002685547E-4
4.802533426E0,-2.075195312E-2,-1.586914062E-2,1.663208008E-3
4.807568827E0,-2.120971680E-2,-1.586914062E-2,1.968383789E-3
4.812604227E0,-2.149963379E-2,-1.586914062E-2,1.190185547E-3
4.817639628E0,-2.149963379E-2,-1.507568359E-2,1.708984375E-3
4.822675028E0,-2.230834961E-2,-1.480102539E-2,1.968383789E-3
4.827710428E0,-2.175903320E-2,-1.480102539E-2,1.968383789E-3
4.832745829E0,-2.149963379E-2,-1.399230957E-2,1.159667969E-3
4.837781229E0,-2.149963379E-2,-1.373291016E-2,9.002685547E-4
4.842816630E0,-2.149963379E-2,-1.544189453E-2,9.002685547E-4
4.847852030E0,-2.149963379E-2,-1.586914062E-2,9.002685547E-4
4.852887430E0,-2.062988281E-2,-1.499938965E-2,9.002685547E-4
4.857922831E0,-1.954650879E-2,-1.570129395E-2,9.002685547E-4
4.862958231E0,-1.936340332E-2,-1.496887207E-2,9.002685547E-4
4.867993632E0,-1.936340332E-2,-1.480102539E-2,9.002685547E-4
4.873029032E0,-1.844787598E-2,-1.666259766E-2,9.002685547E-4
4.878064432E0,-1.924133301E-2,-1.693725586E-2,9.002685547E-4
4.883099833E0,-1.936340332E-2,-1.599121094E-2,-4.577636719E-5
4.888135233E0,-1.936340332E-2,-1.394653320E-2,-1.129150391E-3
4.893170633E0,-1.936340332E-2,-1.470947266E-2,-2.593994141E-4
4.898206034E0,-1.838684082E-2,-1.480102539E-2,8.239746094E-4
4.903241434E0,-1.829528809E-2,-1.281738281E-2,9.002685547E-4
4.908276835E0,-1.628112793E-2,-1.165771484E-2,-1.068115234E-4
4.913312235E0,-1.615905762E-2,-1.364135742E-2,8.544921875E-4
4.918347635E0,-1.615905762E-2,-1.271057129E-2,9.002685547E-4
4.923383036E0,-1.615905762E-2,-1.475524902E-2,1.953125000E-3
4.928418436E0,-1.510620117E-2,-1.480102539E-2,1.968383789E-3
4.933453837E0,-1.615905762E-2,-1.373291016E-2,-1.235961914E-3
4.938489237E0,-1.510620117E-2,-1.266479492E-2,-1.235961914E-3
4.943524637E0,-1.615905762E-2,-1.264953613E-2,-2.304077148E-3
4.948560038E0,-1.609802246E-2,-1.159667969E-2,-2.304077148E-3
4.953595438E0,-1.397705078E-2,-1.155090332E-2,-2.349853516E-3
4.958630839E0,-1.301574707E-2,-1.058959961E-2,-3.372192383E-3
4.963666239E0,-1.396179199E-2,-1.173400879E-2,-3.295898438E-3
4.968701639E0,-1.287841797E-2,-1.358032227E-2,-2.380371094E-3
4.973737040E0,-1.199340820E-2,-1.132202148E-2,-3.372192383E-3
4.978772440E0,-1.306152344E-2,-8.605957031E-3,-3.158569336E-3
4.983807840E0,-1.391601562E-2,-1.065063477E-2,-1.235961914E-3
4.988843241E0,-1.271057129E-2,-1.159667969E-2,-1.235961914E-3
4.993878641E0,-1.068115234E-2,-1.132202148E-2,-1.235961914E-3
4.998914042E0,-9.750366211E-3,-9.460449219E-3,-1.373291016E-3
5.003949442E0,-9.750366211E-3,-8.972167969E-3,-2.624511719E-3
5.008984842E0,-9.750366211E-3,-6.256103516E-3,-4.074096680E-3
5.014020243E0,-9.567260742E-3,-6.454467773E-3,-2.105712891E-3
5.019055643E0,-8.880615234E-3,-7.522583008E-3,-1.037597656E-3
5.024091044E0,-9.552001953E-3,-8.193969727E-3,-3.662109375E-4
5.029126444E0,-8.468627930E-3,-7.110595703E-3,-1.449584961E-3
5.034161844E0,-7.614135742E-3,-6.256103516E-3,-2.532958984E-3
5.039197245E0,-7.614135742E-3,-6.256103516E-3,-3.372192383E-3
5.044232645E0,-7.369995117E-3,-6.256103516E-3,-3.372192383E-3
5.049268046E0,-6.286621094E-3,-5.996704102E-3,-3.631591797E-3
5.054303446E0,-5.477905273E-3,-5.477905273E-3,-4.440307617E-3
5.059338846E0,-5.187988281E-3,-6.256103516E-3,-4.440307617E-3
5.064374247E0,-4.409790039E-3,-5.950927734E-3,-4.745483398E-3
5.069409647E0,-4.104614258E-3,-5.187988281E-3,-5.508422852E-3
5.074445048E0,-3.341674805E-3,-4.867553711E-3,-5.828857422E-3
5.079480448E0,-3.692626953E-3,-3.448486328E-3,-6.576538086E-3
5.084515848E0,-4.776000977E-3,-2.700805664E-3,-6.210327148E-3
5.089551249E0,-5.126953125E-3,-4.486083984E-3,-5.142211914E-3
5.094586649E0,-4.043579102E-3,-5.187988281E-3,-4.058837891E-3
5.099622049E0,-3.341674805E-3,-4.806518555E-3,-3.753662109E-3
5.104657450E0,-3.341674805E-3,-3.723144531E-3,-4.837036133E-3
5.109692850E0,-2.929687500E-3,-3.051757812E-3,-5.920410156E-3
5.114728251E0,-1.861572266E-3,-3.051757812E-3,-6.149291992E-3
5.119763651E0,-3.509521484E-4,-3.051757812E-3,-5.508422852E-3
5.124799051E0,9.307861328E-4,-2.166748047E-3,-5.508422852E-3
5.129834452E0,9.307861328E-4,-4.577636719E-4,-5.508422852E-3
5.134869852E0,9.307861328E-4,1.525878906E-4,-4.577636719E-3
5.139905253E0,1.388549805E-3,1.525878906E-4,-3.372192383E-3
5.144940653E0,2.975463867E-3,-3.509521484E-4,-3.860473633E-3
5.149976053E0,4.135131836E-3,9.155273438E-5,-4.943847656E-3
5.155011454E0,4.638671875E-3,7.019042969E-4,-4.989624023E-3
5.160046854E0,5.722045898E-3,6.713867188E-4,-4.440307617E-3
5.165082255E0,6.805419922E-3,1.754760742E-3,-4.974365234E-3
5.170117655E0,7.888793945E-3,2.838134766E-3,-4.943847656E-3
5.175153055E0,8.407592773E-3,2.792358398E-3,-5.554199219E-3
5.180188456E0,7.827758789E-3,2.288818359E-3,-7.141113281E-3
5.185223856E0,7.339477539E-3,1.693725586E-3,-6.454467773E-3
5.190259257E0,6.729125977E-3,1.815795898E-3,-5.508422852E-3
5.195294657E0,6.271362305E-3,2.899169922E-3,-5.508422852E-3
5.200330057E0,6.881713867E-3,3.967285156E-3,-5.508422852E-3
5.205365458E0,7.339477539E-3,3.784179688E-3,-5.508422852E-3
5.210400858E0,7.339477539E-3,2.700805664E-3,-5.508422852E-3
5.215436258E0,8.651733398E-3,2.944946289E-3,-6.164550781E-3
5.220471659E0,8.132934570E-3,3.356933594E-3,-6.576538086E-3
5.225507059E0,8.010864258E-3,3.356933594E-3,-5.889892578E-3
5.230542460E0,9.094238281E-3,2.655029297E-3,-5.508422852E-3
5.235577860E0,1.017761230E-2,2.990722656E-3,-5.508422852E-3
5.240613260E0,9.109497070E-3,3.356933594E-3,-5.508422852E-3
5.245648661E0,8.407592773E-3,4.074096680E-3,-4.776000977E-3
5.250684061E0,9.140014648E-3,4.425048828E-3,-3.692626953E-3
5.255719462E0,1.097106934E-2,5.172729492E-3,-3.372192383E-3
5.260754862E0,1.084899902E-2,4.730224609E-3,-3.372192383E-3
5.265790262E0,1.130676270E-2,5.187988281E-3,-2.593994141E-3
5.270825663E0,1.161193848E-2,7.064819336E-3,-2.304077148E-3
5.275861063E0,1.161193848E-2,8.422851562E-3,-3.097534180E-3
5.280896464E0,1.161193848E-2,7.873535156E-3,-2.548217773E-3
5.285931864E0,1.324462891E-2,9.262084961E-3,-1.480102539E-3
5.290967264E0,1.457214355E-2,8.926391602E-3,-2.059936523E-3
5.296002665E0,1.649475098E-2,7.843017578E-3,-1.449584961E-3
5.301038065E0,1.695251465E-2,8.483886719E-3,-2.090454102E-3
5.306073465E0,1.695251465E-2,8.697509766E-3,-2.304077148E-3
5.311108866E0,1.695251465E-2,8.697509766E-3,-5.340576172E-4
5.316144266E0,1.783752441E-2,9.582519531E-3,-1.678466797E-4
5.321179667E0,1.530456543E-2,8.850097656E-3,-1.678466797E-4
5.326215067E0,1.573181152E-2,7.766723633E-3,-1.678466797E-4
5.331250467E0,1.773071289E-2,8.544921875E-3,7.629394531E-4
5.336285868E0,1.802062988E-2,8.697509766E-3,-3.051757812E-5
5.341321268E0,1.802062988E-2,1.058959961E-2,-1.113891602E-3
5.346356669E0,1.608276367E-2,1.179504395E-2,-2.197265625E-3
5.351392069E0,1.588439941E-2,8.972167969E-3,-1.327514648E-3
5.356427469E0,1.489257812E-2,8.697509766E-3,-1.235961914E-3
5.361462870E0,1.580810547E-2,9.689331055E-3,-2.288818359E-4
5.366498270E0,1.588439941E-2,1.077270508E-2,-2.182006836E-3
5.371533671E0,1.588439941E-2,9.811401367E-3,-2.304077148E-3
5.376569071E0,1.588439941E-2,8.728027344E-3,-2.304077148E-3
5.381604471E0,1.588439941E-2,9.735107422E-3,-1.251220703E-3
5.386639872E0,1.481628418E-2,1.397705078E-2,-1.235961914E-3
5.391675272E0,1.588439941E-2,1.402282715E-2,-1.220703125E-3
5.396710673E0,1.588439941E-2,1.187133789E-2,-1.373291016E-4
5.401746073E0,1.585388184E-2,9.780883789E-3,1.922607422E-3
5.406781473E0,1.481628418E-2,1.091003418E-2,-1.678466797E-4
5.411816874E0,1.481628418E-2,1.290893555E-2,-1.678466797E-4
5.416852274E0,1.492309570E-2,1.184082031E-2,-1.678466797E-4
5.421887674E0,1.695251465E-2,1.075744629E-2,-9.155273438E-5
5.426923075E0,1.695251465E-2,9.841918945E-3,9.002685547E-4
5.431958475E0,1.695251465E-2,1.083374023E-2,8.087158203E-4
5.436993876E0,1.673889160E-2,1.072692871E-2,-1.678466797E-4
5.442029276E0,1.481628418E-2,9.658813477E-3,-2.593994141E-4
5.447064676E0,1.481628418E-2,8.819580078E-3,-1.235961914E-3
5.452100077E0,1.466369629E-2,9.902954102E-3,-1.373291016E-3
5.457135477E0,1.374816895E-2,1.098632812E-2,-1.983642578E-3
5.462170878E0,1.374816895E-2,1.171875000E-2,-1.678466797E-4
5.467206278E0,1.356506348E-2,1.046752930E-2,-1.678466797E-4
5.472241678E0,1.268005371E-2,8.697509766E-3,2.136230469E-4
5.477277079E0,1.268005371E-2,8.895874023E-3,1.373291016E-3
5.482312479E0,1.268005371E-2,9.765625000E-3,-1.007080078E-3
5.487347880E0,1.268005371E-2,9.765625000E-3,6.103515625E-5
5.492383280E0,1.268005371E-2,9.765625000E-3,9.002685547E-4
5.497418680E0,1.242065430E-2,9.506225586E-3,6.561279297E-4
5.502454081E0,1.213073730E-2,8.956909180E-3,1.068115234E-4
5.507489481E0,1.374816895E-2,9.765625000E-3,1.190185547E-3
5.512524882E0,1.345825195E-2,1.004028320E-2,2.548217773E-3
5.517560282E0,1.296997070E-2,1.141357422E-2,4.104614258E-3
5.522595682E0,1.374816895E-2,1.264953613E-2,4.104614258E-3
5.527631083E0,1.341247559E-2,1.190185547E-2,3.784179688E-3
5.532666483E0,1.268005371E-2,1.156616211E-2,2.380371094E-3
5.537701883E0,1.232910156E-2,1.083374023E-2,1.602172852E-3
5.542737284E0,1.161193848E-2,1.083374023E-2,2.685546875E-3
5.547772684E0,1.161193848E-2,1.083374023E-2,1.968383789E-3
5.552808085E0,1.123046875E-2,1.045227051E-2,2.349853516E-3
5.557843485E0,9.750366211E-3,9.368896484E-3,2.655029297E-3
5.562878885E0,8.804321289E-3,9.490966797E-3,2.380371094E-3
5.567914286E0,9.475708008E-3,1.083374023E-2,2.624511719E-3
5.572949686E0,9.048461914E-3,1.083374023E-2,1.129150391E-3
5.577985087E0,8.407592773E-3,9.948730469E-3,-1.678466797E-4
5.583020487E0,8.407592773E-3,8.697509766E-3,7.476806641E-4
5.588055887E0,8.407592773E-3,8.224487305E-3,2.441406250E-3
5.593091288E0,8.407592773E-3,8.560180664E-3,3.036499023E-3
5.598126688E0,8.407592773E-3,9.765625000E-3,2.563476562E-3
5.603162089E0,7.904052734E-3,8.758544922E-3,2.471923828E-3
5.608197489E0,6.317138672E-3,7.629394531E-3,2.532958984E-3
5.613232889E0,5.722045898E-3,8.148193359E-3,2.502441406E-3
5.618268290E0,6.271362305E-3,8.697509766E-3,2.517700195E-3
5.623303690E0,5.172729492E-3,8.148193359E-3,1.434326172E-3
5.628339090E0,4.135131836E-3,8.178710938E-3,1.464843750E-3
5.633374491E0,4.135131836E-3,8.697509766E-3,2.548217773E-3
5.638409891E0,4.135131836E-3,8.697509766E-3,2.471923828E-3
5.643445292E0,4.714965820E-3,8.697509766E-3,1.968383789E-3
5.648480692E0,3.387451172E-3,7.476806641E-3,2.578735352E-3
5.653516092E0,1.998901367E-3,6.561279297E-3,3.662109375E-3
5.658551493E0,2.624511719E-3,6.561279297E-3,3.479003906E-3
5.663586893E0,2.426147461E-3,6.561279297E-3,3.036499023E-3
5.668622294E0,1.342773438E-3,7.202148438E-3,2.395629883E-3
5.673657694E0,9.307861328E-4,7.629394531E-3,1.968383789E-3
5.678693094E0,1.602172852E-3,6.942749023E-3,1.296997070E-3
5.683728495E0,1.312255859E-3,5.187988281E-3,1.586914062E-3
5.688763895E0,1.617431641E-3,3.723144531E-3,1.968383789E-3
5.693799296E0,5.798339844E-4,3.356933594E-3,2.685546875E-3
5.698834696E0,-8.697509766E-4,2.624511719E-3,2.319335938E-3
5.703870096E0,-1.205444336E-3,3.005981445E-3,4.165649414E-3
5.708905497E0,-1.205444336E-3,4.089355469E-3,4.440307617E-3
5.713940897E0,-1.968383789E-3,3.662109375E-3,4.104614258E-3
5.718976298E0,-1.510620117E-3,2.578735352E-3,3.341674805E-3
5.724011698E0,-2.777099609E-3,1.495361328E-3,1.480102539E-3
5.729047098E0,-2.563476562E-3,1.220703125E-3,1.693725586E-3
5.734082499E0,-3.082275391E-3,3.631591797E-3,2.777099609E-3
5.739117899E0,-4.165649414E-3,3.601074219E-3,3.036499023E-3
5.744153299E0,-4.409790039E-3,3.356933594E-3,3.036499023E-3
5.749188700E0,-5.264282227E-3,8.239746094E-4,3.036499023E-3
5.754224100E0,-6.332397461E-3,1.525878906E-4,3.890991211E-3
5.759259501E0,-6.546020508E-3,1.525878906E-4,3.250122070E-3
5.764294901E0,-5.676269531E-3,1.525878906E-4,3.036499023E-3
5.769330301E0,-5.477905273E-3,1.922607422E-3,3.036499023E-3
5.774365702E0,-5.477905273E-3,2.288818359E-3,2.151489258E-3
5.779401102E0,-4.577636719E-3,2.288818359E-3,1.068115234E-3
5.784436503E0,-5.340576172E-3,1.358032227E-3,9.002685547E-4
5.789471903E0,-7.354736328E-3,2.746582031E-4,1.846313477E-3
5.794507303E0,-7.614135742E-3,-7.934570312E-4,9.155273438E-5
5.799542704E0,-7.614135742E-3,-9.155273438E-4,-1.113891602E-3
5.804578104E0,-8.590698242E-3,-9.155273438E-4,-2.593994141E-4
5.809613505E0,-8.682250977E-3,-2.868652344E-3,-1.678466797E-4
5.814648905E0,-9.674072266E-3,-2.075195312E-3,-1.678466797E-4
5.819684305E0,-9.750366211E-3,-9.918212891E-4,-1.159667969E-3
5.824719706E0,-8.743286133E-3,-9.155273438E-4,-1.235961914E-3
5.829755106E0,-9.704589844E-3,-2.960205078E-3,-1.235961914E-3
5.834790507E0,-1.078796387E-2,-4.089355469E-3,-2.258300781E-3
5.839825907E0,-1.187133789E-2,-3.082275391E-3,-1.251220703E-3
5.844861307E0,-1.188659668E-2,-3.051757812E-3,-2.288818359E-3
5.849896708E0,-1.295471191E-2,-4.119873047E-3,-2.304077148E-3
5.854932108E0,-1.402282715E-2,-5.187988281E-3,-2.304077148E-3
5.859967508E0,-1.405334473E-2,-4.119873047E-3,-3.372192383E-3
5.865002909E0,-1.502990723E-2,-4.089355469E-3,-3.372192383E-3
5.870038309E0,-1.295471191E-2,-3.112792969E-3,-3.372192383E-3
5.875073710E0,-1.290893555E-2,-4.180908203E-3,-3.189086914E-3
5.880109110E0,-1.203918457E-2,-5.187988281E-3,-3.051757812E-4
5.885144510E0,-1.402282715E-2,-5.035400391E-3,-2.304077148E-3
5.890179911E0,-1.393127441E-2,-3.250122070E-3,-2.304077148E-3
5.895215311E0,-1.295471191E-2,-5.096435547E-3,-2.395629883E-3
5.900250712E0,-1.295471191E-2,-4.241943359E-3,-3.250122070E-3
5.905286112E0,-1.295471191E-2,-5.187988281E-3,-2.304077148E-3
5.910321512E0,-1.295471191E-2,-5.050659180E-3,-2.304077148E-3
5.915356913E0,-1.310729980E-2,-4.425048828E-3,-2.304077148E-3
5.920392313E0,-1.387023926E-2,-6.423950195E-3,-2.456665039E-3
5.925427714E0,-1.295471191E-2,-6.988525391E-3,-3.189086914E-3
5.930463114E0,-1.315307617E-2,-5.187988281E-3,-2.487182617E-3
5.935498514E0,-1.402282715E-2,-5.004882812E-3,-3.173828125E-3
5.940533915E0,-1.382446289E-2,-4.547119141E-3,-2.502441406E-3
5.945569315E0,-1.295471191E-2,-6.256103516E-3,-3.372192383E-3
5.950604715E0,-1.319885254E-2,-6.027221680E-3,-3.601074219E-3
5.955640116E0,-1.402282715E-2,-5.432128906E-3,-4.440307617E-3
5.960675516E0,-1.428222656E-2,-6.011962891E-3,-4.180908203E-3
5.965710917E0,-1.509094238E-2,-5.462646484E-3,-3.372192383E-3
5.970746317E0,-1.481628418E-2,-5.981445312E-3,-3.372192383E-3
5.975781717E0,-1.431274414E-2,-5.767822266E-3,-3.372192383E-3
5.980817118E0,-1.509094238E-2,-7.324218750E-3,-3.662109375E-3
5.985852518E0,-1.478576660E-2,-7.019042969E-3,-4.745483398E-3
5.990887919E0,-1.467895508E-2,-6.591796875E-3,-5.828857422E-3
5.995923319E0,-1.583862305E-2,-7.324218750E-3,-5.905151367E-3
6.000958719E0,-1.544189453E-2,-7.675170898E-3,-4.776000977E-3
6.005994120E0,-1.580810547E-2,-8.392333984E-3,-5.142211914E-3
6.011029520E0,-1.509094238E-2,-7.659912109E-3,-4.806518555E-3
6.016064921E0,-1.547241211E-2,-6.637573242E-3,-5.126953125E-3
6.021100321E0,-1.615905762E-2,-7.720947266E-3,-4.821777344E-3
6.026135721E0,-1.535034180E-2,-8.392333984E-3,-5.905151367E-3
6.031171122E0,-1.361083984E-2,-7.980346680E-3,-6.988525391E-3
6.036206522E0,-1.295471191E-2,-7.324218750E-3,-6.774902344E-3
6.041241923E0,-1.295471191E-2,-7.324218750E-3,-4.623413086E-3
6.046277323E0,-1.295471191E-2,-6.881713867E-3,-3.814697266E-3
6.051312723E0,-1.205444336E-2,-6.256103516E-3,-4.440307617E-3
6.056348124E0,-1.130676270E-2,-7.217407227E-3,-4.440307617E-3
6.061383524E0,-1.188659668E-2,-8.895874023E-3,-4.928588867E-3
6.066418924E0,-1.139831543E-2,-9.460449219E-3,-5.996704102E-3
6.071454325E0,-1.133728027E-2,-7.934570312E-3,-6.576538086E-3
6.076489725E0,-1.188659668E-2,-5.737304688E-3,-7.095336914E-3
6.081525126E0,-1.243591309E-2,-6.271362305E-3,-7.644653320E-3
6.086560526E0,-1.242065430E-2,-8.972167969E-3,-7.095336914E-3
6.091595926E0,-1.077270508E-2,-1.052856445E-2,-7.125854492E-3
6.096631327E0,-9.185791016E-3,-9.399414062E-3,-7.064819336E-3
6.101666727E0,-9.277343750E-3,-7.812500000E-3,-7.156372070E-3
6.106702128E0,-1.036071777E-2,-7.934570312E-3,-7.644653320E-3
6.111737528E0,-1.081848145E-2,-9.613037109E-3,-7.034301758E-3
6.116772928E0,-1.081848145E-2,-1.052856445E-2,-7.186889648E-3
6.121808329E0,-1.208496094E-2,-8.651733398E-3,-7.644653320E-3
6.126843729E0,-1.295471191E-2,-7.324218750E-3,-8.285522461E-3
6.131879130E0,-1.231384277E-2,-8.636474609E-3,-8.712768555E-3
6.136914530E0,-1.188659668E-2,-1.078796387E-2,-8.712768555E-3
6.141949930E0,-1.257324219E-2,-1.228332520E-2,-8.712768555E-3
6.146985331E0,-1.226806641E-2,-1.197814941E-2,-8.712768555E-3
6.152020731E0,-1.329040527E-2,-1.020812988E-2,-8.712768555E-3
6.157056132E0,-1.332092285E-2,-1.017761230E-2,-1.011657715E-2
6.162091532E0,-1.295471191E-2,-1.052856445E-2,-1.011657715E-2
6.167126932E0,-1.222229004E-2,-9.796142578E-3,-9.780883789E-3
6.172162333E0,-1.040649414E-2,-9.460449219E-3,-9.033203125E-3
6.177197733E0,-8.239746094E-3,-8.712768555E-3,-8.712768555E-3
6.182233133E0,-7.614135742E-3,-7.629394531E-3,-7.934570312E-3
6.187268534E0,-8.407592773E-3,-6.546020508E-3,-7.644653320E-3
6.192303934E0,-7.110595703E-3,-7.049560547E-3,-6.851196289E-3
6.197339335E0,-4.135131836E-3,-6.530761719E-3,-7.369995117E-3
6.202374735E0,-3.341674805E-3,-8.712768555E-3,-7.644653320E-3
6.207410135E0,-3.341674805E-3,-9.460449219E-3,-9.292602539E-3
6.212445536E0,-4.180908203E-3,-9.460449219E-3,-8.941650391E-3
6.217480936E0,-4.409790039E-3,-8.621215820E-3,-8.712768555E-3
6.222516337E0,-2.685546875E-3,-8.392333984E-3,-7.843017578E-3
6.227551737E0,-2.273559570E-3,-8.392333984E-3,-6.759643555E-3
6.232587137E0,-4.943847656E-3,-9.292602539E-3,-5.676269531E-3
6.237622538E0,-5.477905273E-3,-9.460449219E-3,-6.393432617E-3
6.242657938E0,-5.477905273E-3,-7.644653320E-3,-5.661010742E-3
6.247693339E0,-4.562377930E-3,-7.324218750E-3,-6.423950195E-3
6.252728739E0,-3.479003906E-3,-8.270263672E-3,-5.630493164E-3
6.257764139E0,-4.287719727E-3,-1.028442383E-2,-4.562377930E-3
6.262799540E0,-3.463745117E-3,-9.582519531E-3,-4.440307617E-3
6.267834940E0,-4.318237305E-3,-7.522583008E-3,-7.339477539E-3
6.272870340E0,-4.409790039E-3,-8.316040039E-3,-8.621215820E-3
6.277905741E0,-3.433227539E-3,-9.384155273E-3,-7.720947266E-3
6.282941141E0,-2.349853516E-3,-9.460449219E-3,-6.637573242E-3
6.287976542E0,-3.295898438E-3,-7.431030273E-3,-6.576538086E-3
6.293011942E0,-2.319335938E-3,-8.361816406E-3,-6.576538086E-3
6.298047342E0,-1.983642578E-4,-7.354736328E-3,-4.486083984E-3
6.303082743E0,9.002685547E-4,-8.377075195E-3,-4.440307617E-3
6.308118143E0,9.307861328E-4,-7.339477539E-3,-5.493164062E-3
6.313153544E0,-1.373291016E-4,-7.324218750E-3,-5.508422852E-3
6.318188944E0,1.998901367E-3,-6.271362305E-3,-5.493164062E-3
6.323224344E0,1.998901367E-3,-7.354736328E-3,-4.440307617E-3
6.328259745E0,2.075195312E-3,-8.361816406E-3,-4.470825195E-3
6.333295145E0,4.074096680E-3,-7.324218750E-3,-5.447387695E-3
6.338330546E0,3.067016602E-3,-7.217407227E-3,-4.440307617E-3
6.343365946E0,3.143310547E-3,-5.111694336E-3,-4.272460938E-3
6.348401346E0,4.302978516E-3,-4.211425781E-3,-2.380371094E-3
6.353436747E0,6.347656250E-3,-5.279541016E-3,-3.280639648E-3
6.358472147E0,7.446289062E-3,-6.149291992E-3,-2.304077148E-3
6.363507548E0,8.270263672E-3,-5.065917969E-3,-2.426147461E-3
6.368542948E0,7.202148438E-3,-4.119873047E-3,-3.372192383E-3
6.373578348E0,6.271362305E-3,-4.119873047E-3,-3.219604492E-3
6.378613749E0,6.271362305E-3,-4.440307617E-3,-2.136230469E-3
6.383649149E0,6.439208984E-3,-6.256103516E-3,-1.235961914E-3
6.388684549E0,7.339477539E-3,-5.889892578E-3,-1.037597656E-3
6.393719950E0,7.141113281E-3,-3.936767578E-3,-3.509521484E-4
6.398755350E0,6.271362305E-3,-3.051757812E-3,-1.434326172E-3
6.403790751E0,6.042480469E-3,-3.280639648E-3,-2.304077148E-3
6.408826151E0,5.661010742E-3,-4.364013672E-3,-2.304077148E-3
6.413861551E0,7.339477539E-3,-4.714965820E-3,-2.304077148E-3
6.418896952E0,7.339477539E-3,-3.311157227E-3,-2.044677734E-3
6.423932352E0,7.598876953E-3,-4.119873047E-3,-9.613037109E-4
6.428967753E0,8.682250977E-3,-3.570556641E-3,1.220703125E-4
6.434003153E0,9.475708008E-3,-1.983642578E-3,1.190185547E-3
6.439038553E0,1.007080078E-2,-1.388549805E-3,1.968383789E-3
6.444073954E0,1.161193848E-2,1.525878906E-4,1.663208008E-3
6.449109354E0,1.161193848E-2,-1.831054688E-4,1.235961914E-3
6.454144755E0,1.161193848E-2,-9.155273438E-4,1.968383789E-3
6.459180155E0,1.126098633E-2,-1.266479492E-3,1.968383789E-3
6.464215555E0,1.089477539E-2,-1.266479492E-3,2.334594727E-3
6.469250956E0,1.197814941E-2,5.187988281E-4,3.036499023E-3
6.474286356E0,1.304626465E-2,1.586914062E-3,3.417968750E-3
6.479321757E0,1.335144043E-2,1.892089844E-3,4.104614258E-3
6.484357157E0,1.307678223E-2,1.617431641E-3,4.516601562E-3
6.489392557E0,1.416015625E-2,1.861572266E-3,5.172729492E-3
6.494427958E0,1.481628418E-2,1.220703125E-3,4.745483398E-3
6.499463358E0,1.481628418E-2,1.663208008E-3,4.562377930E-3
6.504498758E0,1.481628418E-2,2.731323242E-3,5.630493164E-3
6.509534159E0,1.527404785E-2,2.883911133E-3,5.783081055E-3
6.514569559E0,1.539611816E-2,2.288818359E-3,5.661010742E-3
6.519604960E0,1.530456543E-2,2.288818359E-3,5.752563477E-3
6.524640360E0,1.588439941E-2,3.295898438E-3,6.195068359E-3
6.529675760E0,1.588439941E-2,4.928588867E-3,6.286621094E-3
6.534711161E0,1.588439941E-2,5.493164062E-3,5.706787109E-3
6.539746561E0,1.533508301E-2,4.943847656E-3,6.790161133E-3
6.544781962E0,1.481628418E-2,3.860473633E-3,7.308959961E-3
6.549817362E0,1.536560059E-2,4.470825195E-3,7.308959961E-3
6.554852762E0,1.644897461E-2,6.637573242E-3,7.308959961E-3
6.559888163E0,1.635742188E-2,6.454467773E-3,7.904052734E-3
6.564923563E0,1.647949219E-2,4.882812500E-3,8.377075195E-3
6.569958964E0,1.634216309E-2,4.425048828E-3,7.171630859E-3
6.574994364E0,1.525878906E-2,5.661010742E-3,6.866455078E-3
6.580029764E0,1.544189453E-2,7.186889648E-3,7.308959961E-3
6.585065165E0,1.588439941E-2,7.629394531E-3,7.308959961E-3
6.590100565E0,1.521301270E-2,8.285522461E-3,7.308959961E-3
6.595135965E0,1.547241211E-2,8.026123047E-3,6.652832031E-3
6.600171366E0,1.588439941E-2,6.942749023E-3,6.927490234E-3
6.605206766E0,1.518249512E-2,5.859375000E-3,6.622314453E-3
6.610242167E0,1.481628418E-2,6.195068359E-3,6.958007812E-3
6.615277567E0,1.481628418E-2,6.561279297E-3,8.026123047E-3
6.620312967E0,1.481628418E-2,5.828857422E-3,6.195068359E-3
6.625348368E0,1.629638672E-2,6.973266602E-3,5.172729492E-3
6.630383768E0,1.695251465E-2,8.377075195E-3,4.425048828E-3
6.635419169E0,1.617431641E-2,8.697509766E-3,4.104614258E-3
6.640454569E0,1.664733887E-2,7.919311523E-3,4.882812500E-3
6.645489969E0,1.615905762E-2,7.629394531E-3,5.172729492E-3
6.650525370E0,1.667785645E-2,8.422851562E-3,5.172729492E-3
6.655560770E0,1.774597168E-2,9.490966797E-3,5.981445312E-3
6.660596171E0,1.802062988E-2,8.941650391E-3,6.240844727E-3
6.665631571E0,1.634216309E-2,8.697509766E-3,5.416870117E-3
6.670666971E0,1.756286621E-2,9.536743164E-3,6.027221680E-3
6.675702372E0,1.544189453E-2,1.147460938E-2,5.386352539E-3
6.680737772E0,1.481628418E-2,1.101684570E-2,4.302978516E-3
6.685773173E0,1.481628418E-2,1.170349121E-2,4.104614258E-3
6.690808573E0,1.748657227E-2,1.190185547E-2,4.104614258E-3
6.695843973E0,1.892089844E-2,1.190185547E-2,4.104614258E-3
6.700879374E0,1.815795898E-2,1.190185547E-2,4.104614258E-3
6.705914774E0,1.802062988E-2,1.281738281E-2,4.104614258E-3
6.710950174E0,1.612854004E-2,1.107788086E-2,5.050659180E-3
6.715985575E0,1.492309570E-2,1.177978516E-2,3.265380859E-3
6.721020975E0,1.770019531E-2,1.190185547E-2,4.013061523E-3
6.726056376E0,1.606750488E-2,1.092529297E-2,1.190185547E-3
6.731091776E0,1.588439941E-2,1.083374023E-2,-7.629394531E-5
6.736127176E0,1.687622070E-2,1.083374023E-2,-1.678466797E-4
6.741162577E0,1.593017578E-2,1.083374023E-2,8.544921875E-4
6.746197977E0,1.484680176E-2,1.287841797E-2,-1.220703125E-4
6.751233378E0,1.481628418E-2,1.296997070E-2,-1.678466797E-4
6.756268778E0,1.585388184E-2,1.296997070E-2,-1.205444336E-3
6.761304178E0,1.693725586E-2,1.190185547E-2,-2.288818359E-3
6.766339579E0,1.586914062E-2,1.295471191E-2,-1.220703125E-3
6.771374979E0,1.481628418E-2,1.191711426E-2,8.850097656E-4
6.776410380E0,1.484680176E-2,1.296997070E-2,-1.678466797E-4
6.781445780E0,1.591491699E-2,1.304626465E-2,-1.220703125E-4
6.786481180E0,1.689147949E-2,1.510620117E-2,8.087158203E-4
6.791516581E0,1.580810547E-2,1.502990723E-2,-1.235961914E-3
6.796551981E0,1.489257812E-2,1.411437988E-2,-1.235961914E-3
6.801587382E0,1.596069336E-2,1.501464844E-2,-1.144409180E-3
6.806622782E0,1.695251465E-2,1.412963867E-2,-3.509521484E-4
6.811658182E0,1.695251465E-2,1.487731934E-2,-2.304077148E-3
6.816693583E0,1.669311523E-2,1.283264160E-2,-2.304077148E-3
6.821728983E0,1.466369629E-2,1.203918457E-2,-2.151489258E-3
6.826764383E0,1.359558105E-2,1.310729980E-2,-1.235961914E-3
6.831799784E0,1.298522949E-2,1.387023926E-2,-1.235961914E-3
6.836835184E0,1.463317871E-2,1.296997070E-2,-1.571655273E-3
6.841870585E0,1.336669922E-2,1.315307617E-2,-3.738403320E-3
6.846905985E0,1.179504395E-2,1.441955566E-2,-5.508422852E-3
6.851941385E0,1.246643066E-2,1.596069336E-2,-5.294799805E-3
6.856976786E0,1.182556152E-2,1.466369629E-2,-4.653930664E-3
6.862012186E0,1.220703125E-2,1.249694824E-2,-5.508422852E-3
6.867047587E0,1.054382324E-2,1.106262207E-2,-5.981445312E-3
6.872082987E0,1.002502441E-2,1.214599609E-2,-7.125854492E-3
6.877118387E0,8.407592773E-3,1.322937012E-2,-5.508422852E-3
6.882153788E0,8.407592773E-3,1.347351074E-2,-5.508422852E-3
6.887189188E0,8.407592773E-3,1.161193848E-2,-5.783081055E-3
6.892224589E0,8.407592773E-3,1.083374023E-2,-6.271362305E-3
6.897259989E0,8.712768555E-3,1.113891602E-2,-5.187988281E-3
6.902295389E0,9.475708008E-3,1.190185547E-2,-4.760742188E-3
6.907330790E0,8.789062500E-3,1.190185547E-2,-5.844116211E-3
6.912366190E0,7.339477539E-3,1.190185547E-2,-6.927490234E-3
6.917401590E0,7.705688477E-3,1.226806641E-2,-8.010864258E-3
6.922436991E0,8.407592773E-3,1.182556152E-2,-7.949829102E-3
6.927472391E0,8.407592773E-3,9.765625000E-3,-6.958007812E-3
6.932507792E0,8.804321289E-3,1.016235352E-2,-7.232666016E-3
6.937543192E0,9.475708008E-3,1.206970215E-2,-6.988525391E-3
6.942578592E0,9.475708008E-3,1.361083984E-2,-8.056640625E-3
6.947613993E0,9.475708008E-3,1.296997070E-2,-8.270263672E-3
6.952649393E0,8.575439453E-3,1.206970215E-2,-8.087158203E-3
6.957684794E0,7.781982422E-3,9.918212891E-3,-8.712768555E-3
6.962720194E0,8.407592773E-3,8.224487305E-3,-8.712768555E-3
6.967755594E0,7.919311523E-3,8.590698242E-3,-8.712768555E-3
6.972790995E0,7.827758789E-3,1.074218750E-2,-8.712768555E-3
6.977826395E0,7.400512695E-3,1.139831543E-2,-8.712768555E-3
6.982861796E0,6.774902344E-3,1.031494141E-2,-9.216308594E-3
6.987897196E0,7.858276367E-3,8.178710938E-3,-9.246826172E-3
6.992932596E0,8.407592773E-3,6.011962891E-3,-8.163452148E-3
6.997967997E0,8.407592773E-3,6.591796875E-3,-8.193969727E-3
7.003003397E0,7.843017578E-3,8.178710938E-3,-9.262084961E-3
7.008038798E0,7.339477539E-3,8.117675781E-3,-9.201049805E-3
7.013074198E0,6.744384766E-3,5.874633789E-3,-8.712768555E-3
7.018109598E0,6.866455078E-3,5.615234375E-3,-8.712768555E-3
7.023144999E0,7.934570312E-3,7.766723633E-3,-8.102416992E-3
7.028180399E0,7.781982422E-3,8.697509766E-3,-7.019042969E-3
7.033215799E0,6.057739258E-3,8.056640625E-3,-6.576538086E-3
7.038251200E0,5.203247070E-3,7.629394531E-3,-6.576538086E-3
7.043286600E0,5.844116211E-3,7.629394531E-3,-7.217407227E-3
7.048322001E0,5.599975586E-3,8.956909180E-3,-7.644653320E-3
7.053357401E0,4.516601562E-3,9.078979492E-3,-7.644653320E-3
7.058392801E0,4.135131836E-3,7.308959961E-3,-7.644653320E-3
7.063428202E0,4.837036133E-3,5.844116211E-3,-6.225585938E-3
7.068463602E0,4.486083984E-3,6.912231445E-3,-6.927490234E-3
7.073499003E0,4.852294922E-3,6.164550781E-3,-6.912231445E-3
7.078534403E0,5.203247070E-3,5.493164062E-3,-7.308959961E-3
7.083569803E0,4.440307617E-3,5.493164062E-3,-7.644653320E-3
7.088605204E0,4.135131836E-3,5.493164062E-3,-6.881713867E-3
7.093640604E0,4.135131836E-3,4.714965820E-3,-5.798339844E-3
7.098676005E0,4.135131836E-3,5.996704102E-3,-6.286621094E-3
7.103711405E0,3.326416016E-3,4.959106445E-3,-7.369995117E-3
7.108746805E0,3.875732422E-3,3.601074219E-3,-6.011962891E-3
7.113782206E0,4.135131836E-3,4.989624023E-3,-5.508422852E-3
7.118817606E0,3.295898438E-3,4.653930664E-3,-5.508422852E-3
7.123853007E0,2.212524414E-3,5.264282227E-3,-5.508422852E-3
7.128888407E0,1.998901367E-3,5.493164062E-3,-4.638671875E-3
7.133923807E0,2.868652344E-3,4.608154297E-3,-3.555297852E-3
7.138959208E0,2.182006836E-3,3.540039062E-3,-3.372192383E-3
7.143994608E0,2.883911133E-3,3.356933594E-3,-3.372192383E-3
7.149030008E0,3.067016602E-3,3.356933594E-3,-2.456665039E-3
7.154065409E0,2.136230469E-3,4.272460938E-3,-2.304077148E-3
7.159100809E0,1.998901367E-3,3.494262695E-3,-2.304077148E-3
7.164136210E0,2.929687500E-3,3.356933594E-3,-3.234863281E-3
7.169171610E0,2.105712891E-3,3.356933594E-3,-2.410888672E-3
7.174207010E0,1.022338867E-3,3.356933594E-3,-1.327514648E-3
7.179242411E0,2.868652344E-3,2.380371094E-3,-2.593994141E-4
7.184277811E0,2.075195312E-3,2.288818359E-3,-1.678466797E-4
7.189313212E0,9.918212891E-4,2.288818359E-3,-1.678466797E-4
7.194348612E0,-1.113891602E-3,2.288818359E-3,-1.678466797E-4
7.199384012E0,-1.205444336E-3,2.288818359E-3,-1.190185547E-3
7.204419413E0,-1.205444336E-3,1.251220703E-3,-1.235961914E-3
7.209454813E0,8.850097656E-4,1.220703125E-3,-1.235961914E-3
7.214490214E0,9.307861328E-4,1.525878906E-4,9.002685547E-4
7.219525614E0,-1.205444336E-3,1.205444336E-3,-1.678466797E-4
7.224561014E0,-1.190185547E-3,1.525878906E-4,-1.373291016E-4
7.229596415E0,-1.678466797E-4,1.220703125E-4,9.002685547E-4
7.234631815E0,-1.205444336E-3,-9.613037109E-4,9.460449219E-4
7.239667215E0,-1.266479492E-3,-1.937866211E-3,2.029418945E-3
7.244702616E0,-2.273559570E-3,-9.155273438E-4,2.914428711E-3
7.249738016E0,-2.273559570E-3,-8.392333984E-4,8.239746094E-4
7.254773417E0,-2.273559570E-3,6.103515625E-5,-1.678466797E-4
7.259808817E0,-2.273559570E-3,-1.022338867E-3,3.051757812E-5
7.264844217E0,-2.273559570E-3,-1.983642578E-3,1.968383789E-3
7.269879618E0,-2.273559570E-3,-1.739501953E-3,1.846313477E-3
7.274915018E0,-2.426147461E-3,0.000000000E0,9.002685547E-4
7.279950419E0,-3.204345703E-3,-1.373291016E-3,1.052856445E-3
7.284985819E0,-2.441406250E-3,-4.119873047E-3,1.968383789E-3
7.290021219E0,-3.341674805E-3,-3.952026367E-3,1.800537109E-3
7.295056620E0,-3.341674805E-3,-3.051757812E-3,9.002685547E-4
7.300092020E0,-3.341674805E-3,-3.250122070E-3,1.098632812E-3
7.305127421E0,-3.555297852E-3,-4.333496094E-3,1.968383789E-3
7.310162821E0,-4.196166992E-3,-5.187988281E-3,2.197265625E-3
7.315198221E0,-3.585815430E-3,-4.959106445E-3,2.807617188E-3
7.320233622E0,-4.180908203E-3,-4.119873047E-3,2.212524414E-3
7.325269022E0,-3.601074219E-3,-4.379272461E-3,3.295898438E-3
7.330304423E0,-4.409790039E-3,-4.928588867E-3,3.845214844E-3
7.335339823E0,-4.409790039E-3,-3.845214844E-3,2.761840820E-3
7.340375223E0,-4.699707031E-3,-3.051757812E-3,1.968383789E-3
7.345410624E0,-5.477905273E-3,-3.967285156E-3,1.373291016E-3
7.350446024E0,-5.477905273E-3,-5.950927734E-3,-1.678466797E-4
7.355481424E0,-5.157470703E-3,-5.844116211E-3,4.882812500E-4
7.360516825E0,-4.760742188E-3,-7.324218750E-3,1.632690430E-3
7.365552225E0,-5.844116211E-3,-6.271362305E-3,9.002685547E-4
7.370587626E0,-6.546020508E-3,-4.119873047E-3,1.632690430E-3
7.375623026E0,-6.927490234E-3,-4.501342773E-3,2.670288086E-3
7.380658426E0,-7.614135742E-3,-5.584716797E-3,1.586914062E-3
7.385693827E0,-7.217407227E-3,-6.256103516E-3,9.002685547E-4
7.390729227E0,-6.546020508E-3,-6.683349609E-3,9.002685547E-4
7.395764628E0,-6.973266602E-3,-6.912231445E-3,1.327514648E-3
7.400800028E0,-7.614135742E-3,-5.828857422E-3,1.968383789E-3
7.405835428E0,-7.171630859E-3,-6.530761719E-3,1.968383789E-3
7.410870829E0,-7.019042969E-3,-7.934570312E-3,1.968383789E-3
7.415906229E0,-7.614135742E-3,-7.324218750E-3,1.510620117E-3
7.420941630E0,-7.614135742E-3,-7.324218750E-3,1.388549805E-3
7.425977030E0,-6.622314453E-3,-7.827758789E-3,1.480102539E-3
7.431012430E0,-5.477905273E-3,-7.888793945E-3,1.419067383E-3
7.436047831E0,-6.011962891E-3,-6.286621094E-3,1.449584961E-3
7.441083231E0,-7.080078125E-3,-5.722045898E-3,1.434326172E-3
7.446118632E0,-7.614135742E-3,-6.805419922E-3,1.434326172E-3
7.451154032E0,-8.178710938E-3,-8.453369141E-3,1.464843750E-3
7.456189432E0,-8.682250977E-3,-8.895874023E-3,8.392333984E-4
7.461224833E0,-8.682250977E-3,-8.392333984E-3,4.272460938E-4
7.466260233E0,-8.682250977E-3,-8.987426758E-3,1.495361328E-3
7.471295633E0,-8.087158203E-3,-8.255004883E-3,7.629394531E-4
7.476331034E0,-7.614135742E-3,-7.324218750E-3,-1.678466797E-4
7.481366434E0,-8.255004883E-3,-7.965087891E-3,-1.678466797E-4
7.486401835E0,-9.338378906E-3,-7.110595703E-3,-1.678466797E-4
7.491437235E0,-9.109497070E-3,-6.912231445E-3,4.882812500E-4
7.496472635E0,-9.353637695E-3,-7.324218750E-3,2.441406250E-4
7.501508036E0,-9.078979492E-3,-6.652832031E-3,5.187988281E-4
7.506543436E0,-7.308959961E-3,-6.958007812E-3,9.002685547E-4
7.511578837E0,-6.546020508E-3,-8.026123047E-3,2.136230469E-4
7.516614237E0,-5.844116211E-3,-9.109497070E-3,-8.697509766E-4
7.521649637E0,-6.942749023E-3,-8.743286133E-3,-5.035400391E-4
7.526685038E0,-7.614135742E-3,-8.392333984E-3,-1.678466797E-4
7.531720438E0,-6.134033203E-3,-6.912231445E-3,-2.395629883E-3
7.536755839E0,-6.240844727E-3,-6.256103516E-3,-3.372192383E-3
7.541791239E0,-5.783081055E-3,-7.034301758E-3,-2.593994141E-3
7.546826639E0,-5.477905273E-3,-8.117675781E-3,-2.304077148E-3
7.551862040E0,-6.286621094E-3,-6.805419922E-3,-3.097534180E-3
7.556897440E0,-8.163452148E-3,-7.064819336E-3,-4.165649414E-3
7.561932840E0,-7.873535156E-3,-8.972167969E-3,-3.616333008E-3
7.566968241E0,-7.614135742E-3,-9.460449219E-3,-3.372192383E-3
7.572003641E0,-8.468627930E-3,-7.781982422E-3,-5.050659180E-3
7.577039042E0,-7.827758789E-3,-8.193969727E-3,-5.508422852E-3
7.582074442E0,-6.759643555E-3,-9.262084961E-3,-5.508422852E-3
7.587109842E0,-6.546020508E-3,-1.034545898E-2,-3.738403320E-3
7.592145243E0,-7.446289062E-3,-1.142883301E-2,-4.257202148E-3
7.597180643E0,-7.614135742E-3,-9.796142578E-3,-5.340576172E-3
7.602216044E0,-8.544921875E-3,-9.460449219E-3,-5.508422852E-3
7.607251444E0,-9.613037109E-3,-9.460449219E-3,-6.423950195E-3
7.612286844E0,-8.819580078E-3,-1.040649414E-2,-6.576538086E-3
7.617322245E0,-7.736206055E-3,-1.052856445E-2,-7.522583008E-3
7.622357645E0,-7.614135742E-3,-1.052856445E-2,-7.644653320E-3
7.627393046E0,-7.614135742E-3,-1.052856445E-2,-6.668090820E-3
7.632428446E0,-7.614135742E-3,-1.052856445E-2,-6.576538086E-3
7.637463846E0,-5.630493164E-3,-1.052856445E-2,-6.576538086E-3
7.642499247E0,-5.477905273E-3,-8.514404297E-3,-7.583618164E-3
7.647534647E0,-6.500244141E-3,-1.043701172E-2,-8.651733398E-3
7.652570048E0,-4.486083984E-3,-1.052856445E-2,-7.675170898E-3
7.657605448E0,-6.515502930E-3,-1.052856445E-2,-7.644653320E-3
7.662640848E0,-5.493164062E-3,-1.052856445E-2,-6.576538086E-3
7.667676249E0,-5.477905273E-3,-9.460449219E-3,-7.644653320E-3
7.672711649E0,-3.341674805E-3,-8.407592773E-3,-7.644653320E-3
7.677747049E0,-2.304077148E-3,-9.490966797E-3,-7.644653320E-3
7.682782450E0,-3.341674805E-3,-1.049804688E-2,-7.720947266E-3
7.687817850E0,-3.295898438E-3,-9.460449219E-3,-9.826660156E-3
7.692853251E0,-2.349853516E-3,-9.277343750E-3,-1.077270508E-2
7.697888651E0,-3.341674805E-3,-6.256103516E-3,-9.780883789E-3
7.702924051E0,-3.341674805E-3,-6.347656250E-3,-9.689331055E-3
7.707959452E0,-3.250122070E-3,-7.324218750E-3,-8.712768555E-3
7.712994852E0,-2.166748047E-3,-7.446289062E-3,-8.712768555E-3
7.718030253E0,-9.613037109E-4,-8.270263672E-3,-8.834838867E-3
7.723065653E0,5.187988281E-4,-7.324218750E-3,-9.780883789E-3
7.728101053E0,-2.136230469E-3,-7.324218750E-3,-9.490966797E-3
7.733136454E0,-9.002685547E-4,-7.019042969E-3,-7.797241211E-3
7.738171854E0,7.476806641E-4,-5.187988281E-3,-8.529663086E-3
7.743207255E0,-1.373291016E-4,-5.386352539E-3,-7.644653320E-3
7.748242655E0,-1.373291016E-4,-6.256103516E-3,-7.644653320E-3
7.753278055E0,-1.373291016E-4,-6.057739258E-3,-7.644653320E-3
7.758313456E0,7.629394531E-5,-5.416870117E-3,-7.415771484E-3
7.763348856E0,4.577636719E-4,-6.256103516E-3,-7.034301758E-3
7.768384257E0,-9.765625000E-4,-6.256103516E-3,-8.468627930E-3
7.773419657E0,-1.373291016E-4,-5.752563477E-3,-7.125854492E-3
7.778455057E0,-4.119873047E-4,-4.394531250E-3,-5.508422852E-3
7.783490458E0,-3.814697266E-4,-5.187988281E-3,-5.783081055E-3
7.788525858E0,1.998901367E-3,-5.477905273E-3,-6.576538086E-3
7.793561258E0,2.288818359E-3,-5.661010742E-3,-6.271362305E-3
7.798596659E0,3.067016602E-3,-3.814697266E-3,-5.813598633E-3
7.803632059E0,3.387451172E-3,-2.731323242E-3,-6.240844727E-3
7.808667460E0,3.799438477E-3,-1.983642578E-3,-5.508422852E-3
7.813702860E0,3.402709961E-3,-2.685546875E-3,-5.844116211E-3
7.818738260E0,4.486083984E-3,-3.768920898E-3,-6.576538086E-3
7.823773661E0,5.203247070E-3,-3.433227539E-3,-6.576538086E-3
7.828809061E0,4.806518555E-3,-4.119873047E-3,-6.179809570E-3
7.833844462E0,4.913330078E-3,-3.738403320E-3,-5.508422852E-3
7.838879862E0,5.859375000E-3,-2.655029297E-3,-4.684448242E-3
7.843915262E0,6.027221680E-3,-1.571655273E-3,-3.784179688E-3
7.848950663E0,6.896972656E-3,-9.155273438E-4,-4.440307617E-3
7.853986063E0,5.813598633E-3,-9.155273438E-4,-5.325317383E-3
7.859021464E0,5.645751953E-3,-1.373291016E-3,-5.661010742E-3
7.864056864E0,6.729125977E-3,-1.983642578E-3,-4.440307617E-3
7.869092264E0,6.866455078E-3,-1.983642578E-3,-4.898071289E-3
7.874127665E0,6.744384766E-3,-1.510620117E-3,-5.508422852E-3
7.879163065E0,7.339477539E-3,-9.155273438E-4,-5.004882812E-3
7.884198465E0,7.843017578E-3,-9.155273438E-4,-4.440307617E-3
7.889233866E0,8.407592773E-3,-3.967285156E-4,-4.440307617E-3
7.894269266E0,8.407592773E-3,-3.967285156E-4,-3.890991211E-3
7.899304667E0,8.407592773E-3,-3.662109375E-4,-3.372192383E-3
7.904340067E0,8.407592773E-3,7.019042969E-4,-2.807617188E-3
7.909375467E0,8.407592773E-3,1.220703125E-3,-2.304077148E-3
7.914410868E0,8.987426758E-3,6.256103516E-4,-2.304077148E-3
7.919446268E0,9.475708008E-3,7.476806641E-4,-2.304077148E-3
7.924481669E0,9.475708008E-3,1.815795898E-3,-2.899169922E-3
7.929517069E0,9.475708008E-3,2.288818359E-3,-2.746582031E-3
7.934552469E0,1.010131836E-2,2.288818359E-3,-1.663208008E-3
7.939587870E0,1.118469238E-2,2.288818359E-3,-1.876831055E-3
7.944623270E0,1.095581055E-2,2.288818359E-3,-1.647949219E-3
7.949658671E0,1.119995117E-2,3.616333008E-3,-1.235961914E-3
7.954694071E0,1.161193848E-2,4.425048828E-3,-1.907348633E-3
7.959729471E0,1.229858398E-2,4.425048828E-3,-1.602172852E-3
7.964764872E0,1.268005371E-2,4.425048828E-3,-1.235961914E-3
7.969800272E0,1.268005371E-2,5.126953125E-3,-1.937866211E-3
7.974835673E0,1.268005371E-2,5.493164062E-3,-1.571655273E-3
7.979871073E0,1.341247559E-2,4.745483398E-3,-4.882812500E-4
7.984906473E0,1.449584961E-2,5.920410156E-3,-1.678466797E-4
7.989941874E0,1.481628418E-2,6.561279297E-3,-1.678466797E-4
7.994977274E0,1.481628418E-2,5.783081055E-3,6.103515625E-4
8.000012674E0,1.402282715E-2,5.493164062E-3,1.693725586E-3
8.005048075E0,1.374816895E-2,6.286621094E-3,1.968383789E-3
8.010083475E0,1.374816895E-2,7.354736328E-3,1.968383789E-3
8.015118876E0,1.538085938E-2,8.438110352E-3,1.968383789E-3
8.020154276E0,1.670837402E-2,7.858276367E-3,2.807617188E-3
8.025189676E0,1.609802246E-2,7.629394531E-3,3.036499023E-3
8.030225077E0,1.673889160E-2,7.629394531E-3,2.182006836E-3
8.035260477E0,1.695251465E-2,8.483886719E-3,1.113891602E-3
8.040295878E0,1.606750488E-2,7.812500000E-3,1.785278320E-3
8.045331278E0,1.676940918E-2,8.514404297E-3,2.868652344E-3
8.050366678E0,1.785278320E-2,8.697509766E-3,1.235961914E-3
8.055402079E0,1.802062988E-2,8.697509766E-3,1.831054688E-3
8.060437479E0,1.802062988E-2,1.054382324E-2,1.052856445E-3
8.065472880E0,1.895141602E-2,8.956909180E-3,1.846313477E-3
8.070508280E0,1.718139648E-2,9.643554688E-3,2.929687500E-3
8.075543680E0,1.695251465E-2,1.072692871E-2,2.075195312E-3
8.080579081E0,1.498413086E-2,1.181030273E-2,2.960205078E-3
8.085614481E0,1.678466797E-2,9.918212891E-3,2.059936523E-3
8.090649882E0,1.695251465E-2,6.744384766E-3,3.982543945E-3
8.095685282E0,1.593017578E-2,6.561279297E-3,4.104614258E-3
8.100720682E0,1.484680176E-2,8.605957031E-3,2.059936523E-3
8.105756083E0,1.481628418E-2,1.077270508E-2,9.307861328E-4
8.110791483E0,1.586914062E-2,9.765625000E-3,1.968383789E-3
8.115826883E0,1.481628418E-2,9.765625000E-3,1.968383789E-3
8.120862284E0,1.481628418E-2,8.697509766E-3,9.155273438E-4
8.125897684E0,1.478576660E-2,9.765625000E-3,1.953125000E-3
8.130933085E0,1.374816895E-2,9.796142578E-3,9.460449219E-4
8.135968485E0,1.374816895E-2,1.078796387E-2,2.014160156E-3
8.141003885E0,1.383972168E-2,9.704589844E-3,3.036499023E-3
8.146039286E0,1.588439941E-2,8.743286133E-3,3.097534180E-3
8.151074686E0,1.588439941E-2,9.826660156E-3,4.104614258E-3
8.156110087E0,1.588439941E-2,1.083374023E-2,4.104614258E-3
8.161145487E0,1.588439941E-2,1.072692871E-2,4.013061523E-3
8.166180887E0,1.588439941E-2,9.765625000E-3,3.036499023E-3
8.171216288E0,1.599121094E-2,9.872436523E-3,3.158569336E-3
8.176251688E0,1.695251465E-2,1.094055176E-2,3.997802734E-3
8.181287089E0,1.695251465E-2,1.161193848E-2,3.189086914E-3
8.186322489E0,1.695251465E-2,9.765625000E-3,3.952026367E-3
8.191357889E0,1.661682129E-2,9.918212891E-3,3.204345703E-3
8.196393290E0,1.498413086E-2,1.083374023E-2,3.753662109E-3
8.201428690E0,1.568603516E-2,1.083374023E-2,2.166748047E-3
8.206464090E0,1.460266113E-2,1.022338867E-2,3.250122070E-3
8.211499491E0,1.351928711E-2,8.056640625E-3,3.890991211E-3
8.216534891E0,1.289367676E-2,9.536743164E-3,3.036499023E-3
8.221570292E0,1.420593262E-2,8.697509766E-3,3.036499023E-3
8.226605692E0,1.538085938E-2,8.697509766E-3,2.792358398E-3
8.231641092E0,1.321411133E-2,8.956909180E-3,1.968383789E-3
8.236676493E0,1.188659668E-2,9.201049805E-3,2.258300781E-3
8.241711893E0,1.268005371E-2,7.904052734E-3,2.761840820E-3
8.246747294E0,1.325988770E-2,9.277343750E-3,2.273559570E-3
8.251782694E0,1.481628418E-2,1.051330566E-2,3.036499023E-3
8.256818094E0,1.448059082E-2,9.765625000E-3,3.372192383E-3
8.261853495E0,1.406860352E-2,1.042175293E-2,3.784179688E-3
8.266888895E0,1.481628418E-2,1.155090332E-2,3.387451172E-3
8.271924296E0,1.445007324E-2,1.118469238E-2,3.753662109E-3
8.276959696E0,1.374816895E-2,1.152038574E-2,3.036499023E-3
8.281995096E0,1.411437988E-2,1.083374023E-2,2.288818359E-3
8.287030497E0,1.481628418E-2,1.004028320E-2,9.002685547E-4
8.292065897E0,1.521301270E-2,9.490966797E-3,9.002685547E-4
8.297101298E0,1.545715332E-2,1.083374023E-2,1.327514648E-3
8.302136698E0,1.438903809E-2,9.979248047E-3,1.556396484E-3
8.307172098E0,1.374816895E-2,8.697509766E-3,4.730224609E-4
8.312207499E0,1.374816895E-2,8.239746094E-3,-1.678466797E-4
8.317242899E0,1.420593262E-2,8.087158203E-3,3.051757812E-4
8.322278299E0,1.432800293E-2,9.170532227E-3,1.388549805E-3
8.327313700E0,1.325988770E-2,9.277343750E-3,1.007080078E-3
8.332349100E0,1.316833496E-2,9.185791016E-3,-1.678466797E-4
8.337384501E0,1.322937012E-2,1.026916504E-2,-1.678466797E-4
8.342419901E0,1.214599609E-2,1.083374023E-2,3.662109375E-4
8.347455301E0,1.214599609E-2,1.029968262E-2,9.002685547E-4
8.352490702E0,1.213073730E-2,9.216308594E-3,9.002685547E-4
8.357526102E0,1.104736328E-2,9.246826172E-3,3.509521484E-4
8.362561503E0,1.054382324E-2,9.765625000E-3,9.765625000E-4
8.367596903E0,1.054382324E-2,9.765625000E-3,1.403808594E-3
8.372632303E0,1.112365723E-2,9.765625000E-3,-2.746582031E-4
8.377667704E0,1.100158691E-2,9.155273438E-3,-6.256103516E-4
8.382703104E0,1.115417480E-2,9.307861328E-3,4.577636719E-4
8.387738505E0,1.223754883E-2,9.124755859E-3,-3.509521484E-4
8.392773905E0,1.138305664E-2,9.338378906E-3,-5.798339844E-4
8.397809305E0,9.887695312E-3,9.109497070E-3,-1.678466797E-4
8.402844706E0,1.145935059E-2,8.026123047E-3,-1.678466797E-4
8.407880106E0,1.268005371E-2,8.300781250E-3,-8.392333984E-4
8.412915507E0,1.197814941E-2,7.995605469E-3,-1.235961914E-3
8.417950907E0,1.091003418E-2,6.927490234E-3,-2.624511719E-3
8.422986307E0,1.124572754E-2,6.561279297E-3,-2.655029297E-3
8.428021708E0,1.087951660E-2,7.278442383E-3,-3.021240234E-3
8.433057108E0,1.054382324E-2,7.629394531E-3,-3.372192383E-3
8.438092508E0,1.054382324E-2,6.881713867E-3,-2.624511719E-3
8.443127909E0,1.054382324E-2,5.798339844E-3,-2.304077148E-3
8.448163309E0,9.765625000E-3,4.714965820E-3,-1.525878906E-3
8.453198710E0,9.475708008E-3,5.203247070E-3,-2.792358398E-3
8.458234110E0,9.475708008E-3,6.271362305E-3,-3.372192383E-3
8.463269510E0,8.666992188E-3,5.752563477E-3,-4.974365234E-3
8.468304911E0,8.407592773E-3,4.669189453E-3,-4.684448242E-3
8.473340311E0,7.568359375E-3,3.585815430E-3,-3.601074219E-3
8.478375712E0,7.339477539E-3,3.356933594E-3,-3.372192383E-3
8.483411112E0,7.339477539E-3,4.196166992E-3,-5.065917969E-3
8.488446512E0,6.469726562E-3,4.425048828E-3,-6.362915039E-3
8.493481913E0,6.271362305E-3,2.655029297E-3,-4.806518555E-3
8.498517313E0,5.371093750E-3,2.288818359E-3,-3.540039062E-3
8.503552714E0,6.988525391E-3,2.288818359E-3,-4.257202148E-3
8.508588114E0,7.339477539E-3,1.373291016E-3,-3.524780273E-3
8.513623514E0,7.339477539E-3,2.136230469E-3,-2.441406250E-3
8.518658915E0,6.393432617E-3,2.288818359E-3,-4.165649414E-3
8.523694315E0,6.271362305E-3,2.288818359E-3,-5.386352539E-3
8.528729715E0,7.232666016E-3,1.312255859E-3,-4.531860352E-3
8.533765116E0,7.339477539E-3,2.441406250E-4,-3.463745117E-3
8.538800516E0,5.371093750E-3,2.105712891E-3,-4.348754883E-3
8.543835917E0,5.203247070E-3,2.288818359E-3,-4.440307617E-3
8.548871317E0,6.210327148E-3,2.288818359E-3,-5.447387695E-3
8.553906717E0,5.249023438E-3,1.266479492E-3,-3.463745117E-3
8.558942118E0,5.203247070E-3,1.220703125E-3,-5.432128906E-3
8.563977518E0,5.203247070E-3,-8.697509766E-4,-5.508422852E-3
8.569012919E0,5.203247070E-3,1.373291016E-4,-5.508422852E-3
8.574048319E0,6.271362305E-3,-9.155273438E-4,-7.644653320E-3
8.579083719E0,5.187988281E-3,1.525878906E-4,-5.523681641E-3
8.584119120E0,4.135131836E-3,1.525878906E-4,-7.614135742E-3
8.589154520E0,4.135131836E-3,1.525878906E-4,-6.530761719E-3
8.594189921E0,4.135131836E-3,1.525878906E-4,-5.508422852E-3
8.599225321E0,4.135131836E-3,9.155273438E-5,-5.447387695E-3
8.604260721E0,4.196166992E-3,-9.155273438E-4,-4.440307617E-3
8.609296122E0,5.203247070E-3,-9.155273438E-4,-4.440307617E-3
8.614331522E0,5.004882812E-3,-9.155273438E-4,-4.333496094E-3
8.619366923E0,3.265380859E-3,-9.155273438E-4,-3.463745117E-3
8.624402323E0,5.081176758E-3,-8.087158203E-4,-4.318237305E-3
8.629437723E0,4.257202148E-3,1.525878906E-4,-3.494262695E-3
8.634473124E0,5.203247070E-3,1.525878906E-4,-4.287719727E-3
8.639508524E0,5.050659180E-3,1.525878906E-4,-3.372192383E-3
8.644543924E0,3.967285156E-3,-1.525878906E-5,-3.372192383E-3
8.649579325E0,3.234863281E-3,-7.476806641E-4,-3.005981445E-3
8.654614725E0,3.936767578E-3,-4.577636719E-5,-1.419067383E-3
8.659650126E0,3.067016602E-3,-7.171630859E-4,-2.304077148E-3
8.664685526E0,2.853393555E-3,-6.103515625E-5,-2.716064453E-3
8.669720926E0,1.770019531E-3,-9.155273438E-4,-3.982543945E-3
8.674756327E0,9.307861328E-4,-9.155273438E-4,-2.059936523E-3
8.679791727E0,6.713867188E-4,-4.272460938E-4,-1.480102539E-3
8.684827128E0,-1.373291016E-4,9.613037109E-4,-2.044677734E-3
8.689862528E0,1.220703125E-4,1.525878906E-4,-1.235961914E-3
8.694897928E0,9.307861328E-4,-4.119873047E-4,-1.235961914E-3
8.699933329E0,9.307861328E-4,-1.983642578E-3,-9.307861328E-4
8.704968729E0,6.256103516E-4,-1.693725586E-3,-1.678466797E-4
8.710004130E0,1.678466797E-4,-1.235961914E-3,-4.730224609E-4
8.715039530E0,2.746582031E-4,-2.319335938E-3,-1.235961914E-3
8.720074930E0,-8.697509766E-4,-2.716064453E-3,-5.493164062E-4
8.725110331E0,-5.035400391E-4,-2.349853516E-3,1.983642578E-4
8.730145731E0,-8.544921875E-4,-3.417968750E-3,-1.235961914E-3
8.735181132E0,-1.373291016E-4,-3.753662109E-3,-1.235961914E-3
8.740216532E0,-5.340576172E-4,-3.051757812E-3,-8.392333984E-4
8.745251932E0,-1.617431641E-3,-2.655029297E-3,-5.645751953E-4
8.750287333E0,-2.273559570E-3,-1.983642578E-3,-1.235961914E-3
8.755322733E0,-2.273559570E-3,-1.983642578E-3,-8.087158203E-4
8.760358133E0,-2.716064453E-3,-1.983642578E-3,2.746582031E-4
8.765393534E0,-3.341674805E-3,-1.983642578E-3,9.002685547E-4
8.770428934E0,-3.814697266E-3,-2.456665039E-3,4.425048828E-4
8.775464335E0,-3.952026367E-3,-3.051757812E-3,3.051757812E-4
8.780499735E0,-4.302978516E-3,-3.540039062E-3,9.002685547E-4
8.785535135E0,-5.477905273E-3,-3.646850586E-3,9.002685547E-4
8.790570536E0,-5.996704102E-3,-3.051757812E-3,9.002685547E-4
8.795605936E0,-6.042480469E-3,-3.570556641E-3,9.002685547E-4
8.800641337E0,-6.011962891E-3,-3.601074219E-3,9.002685547E-4
8.805676737E0,-7.095336914E-3,-3.051757812E-3,9.002685547E-4
8.810712137E0,-8.178710938E-3,-2.502441406E-3,3.509521484E-4
8.815747538E0,-8.132934570E-3,-1.983642578E-3,3.967285156E-4
8.820782938E0,-7.614135742E-3,-2.563476562E-3,1.480102539E-3
8.825818339E0,-8.804321289E-3,-4.241943359E-3,1.388549805E-3
8.830853739E0,-1.036071777E-2,-5.187988281E-3,1.510620117E-3
8.835889139E0,-9.597778320E-3,-4.577636719E-3,1.968383789E-3
8.840924540E0,-8.682250977E-3,-4.119873047E-3,1.358032227E-3
8.845959940E0,-9.963989258E-3,-4.119873047E-3,2.746582031E-4
8.850995340E0,-1.017761230E-2,-4.119873047E-3,1.144409180E-3
8.856030741E0,-9.750366211E-3,-4.119873047E-3,2.639770508E-3
8.861066141E0,-9.094238281E-3,-3.463745117E-3,2.380371094E-3
8.866101542E0,-9.368896484E-3,-4.425048828E-3,1.296997070E-3
8.871136942E0,-1.045227051E-2,-4.501342773E-3,1.602172852E-3
8.876172342E0,-1.081848145E-2,-3.417968750E-3,1.266479492E-3
8.881207743E0,-1.081848145E-2,-3.051757812E-3,9.002685547E-4
8.886243143E0,-1.081848145E-2,-3.051757812E-3,1.647949219E-3
8.891278544E0,-1.008605957E-2,-4.547119141E-3,1.968383789E-3
8.896313944E0,-1.051330566E-2,-4.440307617E-3,1.968383789E-3
8.901349344E0,-1.159667969E-2,-3.356933594E-3,3.509521484E-3
8.906384745E0,-1.034545898E-2,-3.051757812E-3,4.104614258E-3
8.911420145E0,-9.750366211E-3,-4.638671875E-3,4.104614258E-3
8.916455546E0,-1.055908203E-2,-4.394531250E-3,4.104614258E-3
8.921490946E0,-1.164245605E-2,-1.693725586E-3,4.104614258E-3
8.926526346E0,-1.023864746E-2,-9.155273438E-5,4.943847656E-3
8.931561747E0,-1.058959961E-2,-2.365112305E-3,4.348754883E-3
8.936597147E0,-1.167297363E-2,-3.906250000E-3,4.104614258E-3
8.941632548E0,-1.103210449E-2,-3.265380859E-3,4.974365234E-3
8.946667948E0,-1.170349121E-2,-3.051757812E-3,6.057739258E-3
8.951703348E0,-1.277160645E-2,-3.936767578E-3,6.240844727E-3
8.956738749E0,-1.385498047E-2,-5.020141602E-3,5.355834961E-3
8.961774149E0,-1.312255859E-2,-4.287719727E-3,5.172729492E-3
8.966809549E0,-1.388549805E-2,-4.119873047E-3,5.172729492E-3
8.971844950E0,-1.310729980E-2,-3.204345703E-3,6.103515625E-3
8.976880350E0,-1.295471191E-2,-3.997802734E-3,5.310058594E-3
8.981915751E0,-1.391601562E-2,-4.119873047E-3,5.172729492E-3
8.986951151E0,-1.499938965E-2,-3.158569336E-3,5.172729492E-3
8.991986551E0,-1.509094238E-2,-5.020141602E-3,5.172729492E-3
8.997021952E0,-1.411437988E-2,-3.219604492E-3,4.196166992E-3
9.002057352E0,-1.402282715E-2,-3.051757812E-3,4.104614258E-3
9.007092753E0,-1.504516602E-2,-3.051757812E-3,5.126953125E-3
9.012128153E0,-1.509094238E-2,-3.051757812E-3,4.150390625E-3
9.017163553E0,-1.716613770E-2,-3.051757812E-3,3.082275391E-3
9.022198954E0,-1.618957520E-2,-3.051757812E-3,1.998901367E-3
9.027234354E0,-1.510620117E-2,-1.998901367E-3,3.036499023E-3
9.032269755E0,-1.615905762E-2,-3.051757812E-3,3.036499023E-3
9.037305155E0,-1.512145996E-2,-9.460449219E-4,9.002685547E-4
9.042340555E0,-1.614379883E-2,-2.075195312E-3,9.613037109E-4
9.047375956E0,-1.506042480E-2,-5.187988281E-3,3.005981445E-3
9.052411356E0,-1.402282715E-2,-5.187988281E-3,2.029418945E-3
9.057446757E0,-1.409912109E-2,-5.004882812E-3,3.036499023E-3
9.062482157E0,-1.509094238E-2,-1.922607422E-3,3.036499023E-3
9.067517557E0,-1.509094238E-2,-1.098632812E-3,3.036499023E-3
9.072552958E0,-1.519775391E-2,-3.158569336E-3,3.036499023E-3
9.077588358E0,-1.615905762E-2,-3.906250000E-3,2.929687500E-3
9.082623758E0,-1.603698730E-2,-1.861572266E-3,1.846313477E-3
9.087659159E0,-1.521301270E-2,-1.037597656E-3,9.002685547E-4
9.092694559E0,-1.602172852E-2,-2.136230469E-3,7.629394531E-4
9.097729960E0,-1.525878906E-2,-2.746582031E-3,-1.678466797E-4
9.102765360E0,-1.599121094E-2,-1.098632812E-3,1.525878906E-5
9.107800760E0,-1.509094238E-2,-1.983642578E-3,9.002685547E-4
9.112836161E0,-1.528930664E-2,-2.380371094E-3,3.204345703E-4
9.117871561E0,-1.596069336E-2,-3.921508789E-3,-2.090454102E-3
9.122906962E0,-1.531982422E-2,-3.280639648E-3,-1.235961914E-3
9.127942362E0,-1.615905762E-2,-4.119873047E-3,-1.464843750E-3
9.132977762E0,-1.593017578E-2,-4.119873047E-3,-2.532958984E-3
9.138013163E0,-1.509094238E-2,-4.379272461E-3,-3.372192383E-3
9.143048563E0,-1.509094238E-2,-4.928588867E-3,-2.838134766E-3
9.148083964E0,-1.509094238E-2,-4.119873047E-3,-1.785278320E-3
9.153119364E0,-1.481628418E-2,-3.845214844E-3,-3.646850586E-3
9.158154764E0,-1.402282715E-2,-3.051757812E-3,-4.135131836E-3
9.163190165E0,-1.434326172E-2,-2.746582031E-3,-3.372192383E-3
9.168225565E0,-1.477050781E-2,-1.983642578E-3,-3.372192383E-3
9.173260965E0,-1.370239258E-2,-2.990722656E-3,-3.372192383E-3
9.178296366E0,-1.295471191E-2,-4.852294922E-3,-3.372192383E-3
9.183331766E0,-1.295471191E-2,-3.402709961E-3,-3.372192383E-3
9.188367167E0,-1.295471191E-2,-1.983642578E-3,-3.372192383E-3
9.193402567E0,-1.295471191E-2,-1.983642578E-3,-3.753662109E-3
9.198437967E0,-1.216125488E-2,-2.395629883E-3,-4.028320312E-3
9.203473368E0,-1.123046875E-2,-3.463745117E-3,-3.768920898E-3
9.208508768E0,-1.106262207E-2,-4.119873047E-3,-4.013061523E-3
9.213544169E0,-9.750366211E-3,-3.692626953E-3,-4.669189453E-3
9.218579569E0,-9.307861328E-3,-2.609252930E-3,-5.676269531E-3
9.223614969E0,-8.682250977E-3,-2.456665039E-3,-5.355834961E-3
9.228650370E0,-8.682250977E-3,-2.593994141E-3,-6.576538086E-3
9.233685770E0,-8.209228516E-3,-2.471923828E-3,-6.576538086E-3
9.238721171E0,-8.117675781E-3,-4.043579102E-3,-6.576538086E-3
9.243756571E0,-9.201049805E-3,-4.684448242E-3,-7.583618164E-3
9.248791971E0,-9.246826172E-3,-3.616333008E-3,-8.193969727E-3
9.253827372E0,-8.682250977E-3,-3.585815430E-3,-8.163452148E-3
9.258862772E0,-9.780883789E-3,-4.119873047E-3,-8.712768555E-3
9.263898173E0,-9.704589844E-3,-3.570556641E-3,-8.148193359E-3
9.268933573E0,-8.682250977E-3,-3.051757812E-3,-7.064819336E-3
9.273968973E0,-9.277343750E-3,-3.051757812E-3,-7.156372070E-3
9.279004374E0,-8.575439453E-3,-3.646850586E-3,-7.644653320E-3
9.284039774E0,-7.614135742E-3,-4.119873047E-3,-7.644653320E-3
9.289075174E0,-7.614135742E-3,-2.899169922E-3,-7.644653320E-3
9.294110575E0,-6.988525391E-3,-1.983642578E-3,-7.644653320E-3
9.299145975E0,-7.202148438E-3,-2.639770508E-3,-7.644653320E-3
9.304181376E0,-6.973266602E-3,-3.707885742E-3,-6.332397461E-3
9.309216776E0,-5.889892578E-3,-2.792358398E-3,-5.508422852E-3
9.314252176E0,-7.507324219E-3,-1.983642578E-3,-6.179809570E-3
9.319287577E0,-7.308959961E-3,-2.685546875E-3,-7.949829102E-3
9.324322977E0,-5.157470703E-3,-3.051757812E-3,-9.399414062E-3
9.329358378E0,-4.409790039E-3,-3.768920898E-3,-9.780883789E-3
9.334393778E0,-5.142211914E-3,-3.402709961E-3,-9.048461914E-3
9.339429178E0,-5.477905273E-3,-2.334594727E-3,-8.712768555E-3
9.344464579E0,-3.997802734E-3,-3.479003906E-3,-8.712768555E-3
9.349499979E0,-1.846313477E-3,-4.119873047E-3,-8.712768555E-3
9.354535380E0,-1.968383789E-3,-3.372192383E-3,-9.460449219E-3
9.359570780E0,-1.510620117E-3,-2.288818359E-3,-1.054382324E-2
9.364606180E0,3.662109375E-4,-3.570556641E-3,-1.084899902E-2
9.369641581E0,1.220703125E-4,-4.119873047E-3,-1.084899902E-2
9.374676981E0,6.713867188E-4,-4.943847656E-3,-1.002502441E-2
9.379712382E0,9.307861328E-4,-4.364013672E-3,-1.060485840E-2
9.384747782E0,9.155273438E-5,-3.295898438E-3,-1.000976562E-2
9.389783182E0,6.866455078E-4,-3.890991211E-3,-8.102416992E-3
9.394818583E0,6.103515625E-5,-4.119873047E-3,-9.353637695E-3
9.399853983E0,-1.022338867E-3,-4.119873047E-3,-9.780883789E-3
9.404889383E0,-3.356933594E-4,-4.119873047E-3,-8.895874023E-3
9.409924784E0,-1.373291016E-4,-4.119873047E-3,-8.712768555E-3
9.414960184E0,-1.373291016E-4,-4.119873047E-3,-7.797241211E-3
9.419995585E0,7.781982422E-4,-3.204345703E-3,-8.560180664E-3
9.425030985E0,-1.525878906E-5,-3.997802734E-3,-7.766723633E-3
9.430066385E0,-1.373291016E-4,-4.119873047E-3,-6.698608398E-3
9.435101786E0,-1.373291016E-4,-3.173828125E-3,-7.522583008E-3
9.440137186E0,8.239746094E-4,-3.051757812E-3,-7.644653320E-3
9.445172587E0,-6.103515625E-5,-2.075195312E-3,-6.652832031E-3
9.450207987E0,-1.129150391E-3,-3.967285156E-3,-6.576538086E-3
9.455243387E0,7.934570312E-4,-4.119873047E-3,-7.568359375E-3
9.460278788E0,1.937866211E-3,-3.112792969E-3,-8.651733398E-3
9.465314188E0,1.998901367E-3,-2.029418945E-3,-8.712768555E-3
9.470349589E0,5.111694336E-3,-4.074096680E-3,-9.750366211E-3
9.475384989E0,5.203247070E-3,-3.082275391E-3,-9.780883789E-3
9.480420389E0,4.135131836E-3,-1.998901367E-3,-9.780883789E-3
9.485455790E0,5.203247070E-3,-3.067016602E-3,-8.712768555E-3
9.490491190E0,5.172729492E-3,-4.104614258E-3,-8.682250977E-3
9.495526590E0,4.165649414E-3,-3.051757812E-3,-7.675170898E-3
9.500561991E0,5.233764648E-3,-3.021240234E-3,-8.712768555E-3
9.505597391E0,6.362915039E-3,-2.044677734E-3,-8.651733398E-3
9.510632792E0,8.331298828E-3,-3.051757812E-3,-7.568359375E-3
9.515668192E0,7.247924805E-3,-3.051757812E-3,-6.484985352E-3
9.520703592E0,6.347656250E-3,-2.883911133E-3,-5.508422852E-3
9.525738993E0,7.339477539E-3,-9.155273438E-4,-5.508422852E-3
9.530774393E0,7.339477539E-3,-9.155273438E-4,-5.386352539E-3
9.535809794E0,7.461547852E-3,-9.155273438E-4,-4.302978516E-3
9.540845194E0,8.407592773E-3,-1.068115234E-3,-3.372192383E-3
9.545880594E0,8.407592773E-3,-1.983642578E-3,-3.372192383E-3
9.550915995E0,8.560180664E-3,-1.983642578E-3,-3.524780273E-3
9.555951395E0,9.292602539E-3,-1.983642578E-3,-3.906250000E-3
9.560986796E0,8.407592773E-3,-1.983642578E-3,-1.419067383E-3
9.566022196E0,8.407592773E-3,-1.800537109E-3,-2.304077148E-3
9.571057596E0,8.407592773E-3,-1.342773438E-3,-2.304077148E-3
9.576092997E0,8.178710938E-3,-3.051757812E-3,-2.075195312E-3
9.581128397E0,7.797241211E-3,-2.822875977E-3,-1.235961914E-3
9.586163798E0,9.231567383E-3,-1.754760742E-3,-1.464843750E-3
9.591199198E0,8.651733398E-3,-9.155273438E-4,-2.304077148E-3
9.596234598E0,9.735107422E-3,-1.190185547E-3,-2.029418945E-3
9.601269999E0,9.979248047E-3,-1.983642578E-3,-1.510620117E-3
9.606305399E0,8.407592773E-3,-1.983642578E-3,-1.708984375E-3
9.611340799E0,8.697509766E-3,-1.983642578E-3,-1.678466797E-4
9.616376200E0,9.475708008E-3,-2.304077148E-3,-7.934570312E-4
9.621411600E0,9.796142578E-3,-2.410888672E-3,-2.304077148E-3
9.626447001E0,1.087951660E-2,-1.266479492E-3,-1.953125000E-3
9.631482401E0,1.124572754E-2,-1.632690430E-3,-1.235961914E-3
9.636517801E0,1.089477539E-2,-9.155273438E-4,-1.235961914E-3
9.641553202E0,1.197814941E-2,-5.493164062E-4,-8.544921875E-4
9.646588602E0,1.268005371E-2,-2.441406250E-4,2.288818359E-4
9.651624003E0,1.268005371E-2,-1.220703125E-4,9.002685547E-4
9.656659403E0,1.350402832E-2,1.220703125E-3,1.327514648E-3
9.661694803E0,1.396179199E-2,1.220703125E-3,1.556396484E-3
9.666730204E0,1.268005371E-2,7.781982422E-4,9.002685547E-4
9.671765604E0,1.222229004E-2,5.950927734E-4,1.358032227E-3
9.676801005E0,1.206970215E-2,7.476806641E-4,1.968383789E-3
9.681836405E0,1.313781738E-2,1.525878906E-4,1.968383789E-3
9.686871805E0,1.325988770E-2,1.525878906E-4,1.968383789E-3
9.691907206E0,1.316833496E-2,6.408691406E-4,1.480102539E-3
9.696942606E0,1.374816895E-2,1.220703125E-3,9.002685547E-4
9.701978007E0,1.322937012E-2,7.019042969E-4,9.002685547E-4
9.707013407E0,1.214599609E-2,1.525878906E-4,9.002685547E-4
9.712048807E0,1.214599609E-2,1.525878906E-4,9.002685547E-4
9.717084208E0,1.268005371E-2,7.019042969E-4,9.002685547E-4
9.722119608E0,1.155090332E-2,1.220703125E-3,1.464843750E-3
9.727155008E0,1.054382324E-2,1.785278320E-3,1.968383789E-3
9.732186458E0,1.054382324E-2,1.693725586E-3,1.388549805E-3
9.737221858E0,1.054382324E-2,1.815795898E-3,1.510620117E-3
9.742257259E0,1.115417480E-2,1.663208008E-3,2.593994141E-3
9.747292659E0,1.161193848E-2,2.456665039E-3,3.036499023E-3
9.752328059E0,1.161193848E-2,2.716064453E-3,1.770019531E-3
9.757363460E0,1.095581055E-2,9.765625000E-4,9.002685547E-4
9.762398860E0,1.054382324E-2,1.525878906E-4,1.571655273E-3
9.767434261E0,1.054382324E-2,1.480102539E-3,2.639770508E-3
9.772469661E0,9.857177734E-3,1.602172852E-3,3.723144531E-3
9.777505061E0,1.016235352E-2,1.907348633E-3,3.417968750E-3
9.782540462E0,1.054382324E-2,2.288818359E-3,3.753662109E-3
9.787575862E0,1.269531250E-2,2.288818359E-3,4.837036133E-3
9.792611263E0,1.300048828E-2,3.021240234E-3,5.920410156E-3
9.797646663E0,1.118469238E-2,2.609252930E-3,5.508422852E-3
9.802682063E0,1.129150391E-2,3.036499023E-3,5.172729492E-3
9.807717464E0,1.161193848E-2,3.356933594E-3,5.172729492E-3
9.812752864E0,1.081848145E-2,3.356933594E-3,4.394531250E-3
9.817788264E0,1.132202148E-2,3.356933594E-3,4.898071289E-3
9.822823665E0,1.080322266E-2,4.959106445E-3,4.379272461E-3
9.827859065E0,1.054382324E-2,4.669189453E-3,4.104614258E-3
9.832894466E0,1.054382324E-2,4.425048828E-3,4.104614258E-3
9.837929866E0,9.704589844E-3,3.585815430E-3,4.943847656E-3
9.842965266E0,7.766723633E-3,4.196166992E-3,6.027221680E-3
9.848000667E0,9.048461914E-3,2.700805664E-3,6.240844727E-3
9.853036067E0,8.590698242E-3,3.158569336E-3,4.501342773E-3
9.858071468E0,8.407592773E-3,5.111694336E-3,2.349853516E-3
9.863106868E0,8.407592773E-3,5.493164062E-3,2.868652344E-3
9.868142268E0,8.407592773E-3,4.577636719E-3,3.952026367E-3
9.873177669E0,7.476806641E-3,2.563476562E-3,3.189086914E-3
9.878213069E0,7.339477539E-3,4.150390625E-3,2.105712891E-3
9.883248470E0,7.339477539E-3,4.425048828E-3,1.037597656E-3
9.888283870E0,7.339477539E-3,6.332397461E-3,1.861572266E-3
9.893319270E0,7.339477539E-3,7.522583008E-3,3.921508789E-3
9.898354671E0,7.339477539E-3,6.637573242E-3,2.151489258E-3
9.903390071E0,7.339477539E-3,5.554199219E-3,2.975463867E-3
9.908425472E0,6.332397461E-3,5.493164062E-3,2.044677734E-3
9.913460872E0,7.278442383E-3,5.493164062E-3,2.990722656E-3
9.918496272E0,8.361816406E-3,6.515502930E-3,2.014160156E-3
9.923531673E0,6.317138672E-3,7.598876953E-3,1.968383789E-3
9.928567073E0,7.324218750E-3,6.561279297E-3,3.036499023E-3
9.933602473E0,7.339477539E-3,5.493164062E-3,3.036499023E-3
9.938637874E0,7.324218750E-3,6.561279297E-3,1.983642578E-3
9.943673274E0,6.240844727E-3,7.659912109E-3,3.036499023E-3
9.948708675E0,5.203247070E-3,9.689331055E-3,3.036499023E-3
9.953744075E0,5.203247070E-3,7.629394531E-3,3.005981445E-3
9.958779475E0,5.203247070E-3,7.568359375E-3,2.029418945E-3
9.963814876E0,5.203247070E-3,6.561279297E-3,2.975463867E-3
9.968850276E0,5.203247070E-3,6.561279297E-3,2.059936523E-3
9.973885677E0,5.203247070E-3,6.561279297E-3,2.944946289E-3
9.978921077E0,5.203247070E-3,6.652832031E-3,1.770019531E-3
9.983956477E0,5.081176758E-3,7.629394531E-3,-1.678466797E-4
9.988991878E0,4.135131836E-3,7.369995117E-3,-1.678466797E-4
9.994027278E0,3.860473633E-3,5.493164062E-3,-2.899169922E-4
9.999062679E0,1.998901367E-3,5.493164062E-3,-1.373291016E-3
1.000409808E1,1.998901367E-3,5.325317383E-3,-1.968383789E-3
1.000913348E1,1.815795898E-3,4.592895508E-3,-1.678466797E-4
1.001416888E1,1.113891602E-3,5.493164062E-3,-1.678466797E-4
1.001920428E1,1.602172852E-3,5.493164062E-3,-3.509521484E-4
1.002423968E1,6.103515625E-5,5.065917969E-3,-1.235961914E-3
1.002927508E1,7.019042969E-4,3.799438477E-3,-1.235961914E-3
1.003431048E1,-3.814697266E-4,5.493164062E-3,-1.235961914E-3
1.003934588E1,-1.205444336E-3,5.249023438E-3,-9.918212891E-4
1.004438128E1,-1.464843750E-3,4.669189453E-3,-1.678466797E-4
1.004941668E1,-2.014160156E-3,5.218505859E-3,1.068115234E-4
1.005445208E1,-1.495361328E-3,4.699707031E-3,9.002685547E-4
1.005948748E1,-2.868652344E-3,5.493164062E-3,6.103515625E-4
1.006452288E1,-4.409790039E-3,5.493164062E-3,-7.781982422E-4
1.006955828E1,-3.784179688E-3,5.172729492E-3,-1.663208008E-3
1.007459368E1,-1.953125000E-3,4.425048828E-3,-1.678466797E-4
1.007962908E1,-1.205444336E-3,4.425048828E-3,-5.035400391E-4
1.008466449E1,-1.205444336E-3,4.425048828E-3,-1.937866211E-3
1.008969989E1,-1.953125000E-3,4.791259766E-3,-3.372192383E-3
1.009473529E1,-3.723144531E-3,4.730224609E-3,-2.990722656E-3
1.009977069E1,-4.028320312E-3,3.356933594E-3,-2.304077148E-3
1.010480609E1,-3.341674805E-3,3.356933594E-3,-2.304077148E-3
1.010984149E1,-4.180908203E-3,3.768920898E-3,-3.128051758E-3
1.011487689E1,-5.477905273E-3,4.425048828E-3,-4.013061523E-3
1.011991229E1,-5.477905273E-3,3.982543945E-3,-3.372192383E-3
1.012494769E1,-5.477905273E-3,2.899169922E-3,-3.372192383E-3
1.012998309E1,-5.020141602E-3,2.288818359E-3,-3.372192383E-3
1.013501849E1,-5.355834961E-3,2.746582031E-3,-3.372192383E-3
1.014005389E1,-6.546020508E-3,2.868652344E-3,-2.883911133E-3
1.014508929E1,-6.546020508E-3,2.777099609E-3,-2.792358398E-3
1.015012469E1,-6.546020508E-3,3.356933594E-3,-3.372192383E-3
1.015516009E1,-7.064819336E-3,2.334594727E-3,-3.372192383E-3
1.016019549E1,-8.148193359E-3,-3.662109375E-4,-2.838134766E-3
1.016523089E1,-8.148193359E-3,-1.983642578E-3,-3.372192383E-3
1.017026629E1,-7.614135742E-3,-3.356933594E-4,-3.875732422E-3
1.017530169E1,-8.178710938E-3,1.220703125E-3,-3.921508789E-3
1.018033709E1,-8.682250977E-3,6.408691406E-4,-5.004882812E-3
1.018537249E1,-8.682250977E-3,1.525878906E-4,-4.333496094E-3
1.019040789E1,-8.087158203E-3,1.525878906E-4,-3.967285156E-3
1.019544329E1,-8.224487305E-3,1.525878906E-4,-5.035400391E-3
1.020047869E1,-8.682250977E-3,7.629394531E-4,-5.508422852E-3
1.020551410E1,-8.056640625E-3,1.220703125E-3,-5.508422852E-3
1.021054950E1,-8.270263672E-3,1.220703125E-3,-4.852294922E-3
1.021558490E1,-1.000976562E-2,5.493164062E-4,-4.440307617E-3
1.022062030E1,-1.016235352E-2,-5.187988281E-4,-4.440307617E-3
1.022565570E1,-7.720947266E-3,-9.155273438E-4,-3.753662109E-3
1.023069110E1,-6.546020508E-3,-2.288818359E-4,-4.760742188E-3
1.023572650E1,-7.263183594E-3,-5.645751953E-4,-6.210327148E-3
1.024076190E1,-7.614135742E-3,5.035400391E-4,-5.859375000E-3
1.024579730E1,-8.346557617E-3,2.670288086E-3,-6.225585938E-3
1.025083270E1,-8.682250977E-3,1.861572266E-3,-5.081176758E-3
1.025586810E1,-9.445190430E-3,1.220703125E-3,-5.935668945E-3
1.026090350E1,-8.987426758E-3,1.220703125E-3,-5.035400391E-3
1.026593890E1,-9.460449219E-3,4.425048828E-4,-5.203247070E-3
1.027097430E1,-8.972167969E-3,9.307861328E-4,-7.080078125E-3
1.027600970E1,-8.682250977E-3,2.014160156E-3,-6.835937500E-3
1.028104510E1,-9.506225586E-3,2.288818359E-3,-4.943847656E-3
1.028608050E1,-1.058959961E-2,6.256103516E-4,-4.440307617E-3
1.029111590E1,-1.165771484E-2,-6.866455078E-4,-5.264282227E-3
1.029615130E1,-1.188659668E-2,-7.629394531E-5,-5.508422852E-3
1.030118670E1,-1.188659668E-2,9.918212891E-4,-5.508422852E-3
1.030622210E1,-1.275634766E-2,2.075195312E-3,-4.638671875E-3
1.031125750E1,-1.208496094E-2,1.403808594E-3,-5.310058594E-3
1.031629290E1,-1.278686523E-2,3.204345703E-4,-6.393432617E-3
1.032132830E1,-1.295471191E-2,-1.663208008E-3,-5.661010742E-3
1.032636370E1,-1.203918457E-2,-1.068115234E-3,-4.577636719E-3
1.033139910E1,-1.281738281E-2,-9.155273438E-4,-5.355834961E-3
