"Time (s)","Linear Acceleration x (m/s^2)","Linear Acceleration y (m/s^2)","Linear Acceleration z (m/s^2)"
3.858464150E-1,-8.031058311E-2,-4.655838013E-3,8.447360992E-2
3.908207800E-1,-9.119504690E-2,-6.871223450E-3,1.337614059E-1
3.958256630E-1,-5.356496572E-2,4.717826843E-3,8.511829376E-2
4.008000280E-1,-9.087067842E-2,-2.310085297E-2,6.131172180E-2
4.057743930E-1,-2.357971668E-2,2.915382385E-3,5.454349518E-2
4.107487580E-1,-1.823234558E-2,-1.792907715E-2,1.125106812E-1
4.157536410E-1,-5.904430151E-2,-1.741218567E-2,1.041994095E-1
4.207280070E-1,-1.562732458E-2,4.763793945E-2,8.242034912E-2
4.257023720E-1,-6.366729736E-2,-6.933212280E-3,4.064083099E-2
4.306767370E-1,-7.344865799E-2,-1.831817627E-2,1.410655975E-1
4.356816200E-1,3.641843796E-4,6.685256958E-4,4.912281036E-2
4.406559850E-1,7.500946522E-3,2.144241333E-2,8.241748810E-2
4.456303500E-1,-2.490359545E-2,1.385593414E-2,3.147125244E-2
4.506047150E-1,-4.962873459E-2,4.118061066E-2,1.255197525E-1
4.556095980E-1,-1.587909460E-2,2.847671509E-3,5.716609955E-2
4.605534460E-1,-5.955386162E-2,9.550094604E-3,6.779670715E-3
4.655583290E-1,1.411175728E-2,2.093315125E-3,-2.388668060E-2
4.705326940E-1,8.151334524E-2,2.732658386E-2,2.281284332E-2
4.755070590E-1,3.221094608E-3,-2.243328094E-2,3.586578369E-2
4.805119420E-1,8.065879345E-3,-1.298522949E-2,9.974575043E-2
4.854863070E-1,1.124739647E-3,-3.816604614E-3,6.443405151E-2
4.904606730E-1,6.021618843E-3,-1.817893982E-2,1.124000549E-2
4.954350380E-1,3.864765167E-3,-8.971214294E-3,2.671432495E-2
5.004094030E-1,-5.143284798E-4,-2.291679382E-3,3.488063812E-2
5.054142860E-1,1.862865686E-2,-6.101894379E-2,7.089233398E-2
5.103886510E-1,2.810937166E-2,-1.126384735E-2,1.109056473E-1
5.153630160E-1,3.034555912E-2,2.355098724E-2,9.189033508E-2
5.203373820E-1,1.142680645E-2,-1.700305939E-2,-3.760337830E-3
5.253422640E-1,7.692593336E-2,-7.495880127E-4,5.150794983E-3
5.303166300E-1,5.020934343E-2,4.793548584E-2,4.896545410E-2
5.352909950E-1,1.232862473E-2,1.393032074E-2,9.664630890E-2
5.402653600E-1,7.789671421E-3,8.589744568E-3,2.661800385E-2
5.452397250E-1,-3.744959831E-3,1.976108551E-2,3.505706787E-2
5.502140900E-1,9.952348471E-2,3.780746460E-2,1.066207886E-2
5.552189730E-1,1.239836216E-1,6.259918213E-2,-1.096153259E-2
5.601933390E-1,-1.323938370E-2,2.618408203E-2,1.012325287E-1
5.651677040E-1,2.970069647E-2,2.317333221E-2,6.881809235E-2
5.701725870E-1,3.899991512E-2,3.735542297E-3,-1.466846466E-2
5.751469520E-1,8.301854134E-3,-2.480030060E-2,5.305099487E-2
5.801823520E-1,7.424521446E-2,-2.480697632E-2,4.704856873E-2
5.850956820E-1,2.905756235E-2,-6.107330322E-3,1.067304611E-1
5.900700480E-1,-1.315718889E-2,-3.929519653E-2,7.407569885E-2
5.950749300E-1,2.257508039E-2,-6.386756897E-3,3.484249115E-2
6.000492960E-1,1.570588350E-2,-6.814002991E-3,5.949211121E-2
6.050236610E-1,7.017219067E-2,-4.868507385E-3,4.627227783E-2
6.099980260E-1,2.067160606E-2,-1.234054565E-2,1.036357880E-1
6.149723910E-1,6.319946051E-2,-1.975440979E-2,2.405643463E-2
6.199772740E-1,-1.470679045E-2,1.513767242E-2,1.831245422E-2
6.249516390E-1,-2.339726686E-2,-5.376338959E-2,4.784297943E-2
6.299260050E-1,3.399306536E-2,-2.544498444E-2,3.707504272E-2
6.349003700E-1,5.317360163E-2,-3.269672394E-2,9.695625305E-2
6.398747350E-1,-5.520164967E-3,-2.102375031E-2,4.806709290E-2
6.448796180E-1,-1.893317699E-2,-2.360248566E-2,4.916763306E-2
6.498539830E-1,-1.337891817E-2,-2.775192261E-4,3.619384766E-2
6.548283480E-1,1.098847389E-2,-1.248073578E-2,5.396080017E-2
6.598027140E-1,4.919320345E-2,1.307296753E-2,6.680774689E-2
6.648075960E-1,4.457676411E-2,-1.576232910E-2,5.599594116E-2
6.697514440E-1,4.705423117E-2,-4.898548126E-2,6.879901886E-2
6.747563270E-1,2.130025625E-2,-1.362133026E-2,5.323123932E-2
6.797306920E-1,1.000404358E-2,1.896953583E-2,1.178255081E-1
6.847050570E-1,1.234471798E-3,-2.411937714E-2,4.520893097E-2
6.897099400E-1,2.075999975E-2,-7.918357849E-3,5.811309814E-2
6.946843050E-1,3.064739704E-2,-4.839515686E-2,6.614971161E-2
6.996586710E-1,5.938738585E-2,-1.077842712E-2,6.701087952E-2
7.046635530E-1,4.321521521E-2,-6.775379181E-2,9.843349457E-2
7.096074010E-1,-5.760431290E-3,-8.776664734E-3,4.476451874E-2
7.146122840E-1,1.630038023E-2,-2.295494080E-3,9.992885590E-2
7.195866490E-1,2.865672112E-2,-5.945205688E-2,6.739807129E-2
7.245610140E-1,-1.782971621E-2,-9.969711304E-3,5.413055420E-2
7.295353800E-1,6.816786528E-2,-3.635406494E-2,2.218723297E-2
7.345097450E-1,3.548389673E-2,-1.773452759E-2,1.882457733E-2
7.395146280E-1,3.606629372E-2,-1.667976379E-3,2.727794647E-2
7.444889930E-1,4.606765509E-2,-1.167583466E-2,1.445007324E-2
7.494633580E-1,2.776783705E-2,-1.924705505E-2,1.713647842E-1
7.544377230E-1,4.270952940E-2,-3.383445740E-2,9.340572357E-2
7.594120890E-1,2.684515715E-2,-8.175849915E-3,6.577396393E-2
7.644169710E-1,1.807481050E-2,-1.337432861E-2,2.668952942E-2
7.693913370E-1,4.236322641E-2,-4.206848145E-2,9.880256653E-2
7.743657020E-1,-8.987188339E-3,-2.805614471E-2,9.714984894E-2
7.793705850E-1,4.393756390E-2,-3.773593903E-2,9.554195404E-2
7.843449500E-1,2.331840992E-2,-4.256153107E-2,5.628967285E-2
7.893193150E-1,1.701784134E-2,-3.555679321E-2,1.117296219E-1
7.942936800E-1,3.673869371E-2,2.035140991E-3,2.753067017E-2
7.992680460E-1,2.802366018E-2,-1.729965210E-2,9.035205841E-2
8.042729280E-1,3.349733353E-2,-3.648567200E-2,9.597110748E-2
8.092472940E-1,5.066782236E-2,-5.964279175E-3,6.381416321E-2
8.142216590E-1,-1.249033213E-2,-4.408168793E-2,2.492618561E-2
8.191960240E-1,4.994392395E-2,-2.050495148E-2,1.114444733E-1
8.242009070E-1,6.941187382E-2,2.881050110E-3,9.341621399E-2
8.291752720E-1,4.154735804E-2,4.832267761E-3,1.062307358E-1
8.341496370E-1,2.335619926E-2,-3.570270538E-2,9.299182892E-2
8.391240030E-1,4.778277874E-2,1.142501831E-2,1.506729126E-1
8.440983680E-1,2.482151985E-2,-3.386974335E-2,4.932403564E-3
8.490727330E-1,2.574568987E-2,-5.515956879E-2,7.994461060E-2
8.540776160E-1,7.390004396E-2,-6.449604034E-2,1.755456924E-1
8.590519810E-1,3.665369749E-2,-4.306888580E-2,1.830282211E-1
8.640263460E-1,1.141166687E-2,-9.995460510E-3,1.574373245E-1
8.690007120E-1,6.416594982E-2,6.255149841E-3,1.721696854E-1
8.740055940E-1,4.097044468E-2,1.292610168E-2,1.844139099E-1
8.789494420E-1,3.685867786E-2,-4.652976990E-2,1.257677078E-1
8.840153600E-1,1.859670877E-2,-2.760028839E-2,1.761875153E-1
8.889286900E-1,2.865290642E-2,-5.836963654E-2,1.743021011E-1
8.939030550E-1,1.967763901E-2,-4.403972626E-2,1.677074432E-1
8.989079380E-1,8.489966393E-3,-3.924942017E-2,1.965961456E-1
9.038823030E-1,2.342569828E-2,-2.024555206E-2,7.898998260E-2
9.088566690E-1,2.850234509E-3,-3.442573547E-2,1.347074509E-1
9.138310340E-1,5.083358288E-2,-1.550674438E-2,9.546566010E-2
9.188053990E-1,3.699946404E-2,-4.636001587E-2,1.202373505E-1
9.238102820E-1,6.830155849E-3,-2.502441406E-2,2.038125992E-1
9.287846470E-1,-1.837605238E-2,-1.504898071E-3,1.497802734E-1
9.337590120E-1,-1.514017582E-2,1.947689056E-2,1.576004028E-1
9.387333780E-1,4.707926512E-2,9.572982788E-3,1.322803497E-1
9.437382600E-1,1.445364952E-2,-7.395744324E-3,1.826248169E-1
9.487126260E-1,4.346919060E-2,-4.548740387E-2,1.853170395E-1
9.536869910E-1,4.385137558E-2,-4.077243805E-2,1.006498337E-1
9.586613560E-1,2.533549070E-2,1.588439941E-2,1.465759277E-1
9.636662390E-1,-1.217126846E-4,-4.119396210E-2,1.544027328E-1
9.686406040E-1,7.647097111E-3,-1.992225647E-2,1.149282455E-1
9.736149690E-1,1.532572508E-2,-5.546092987E-2,1.253795624E-1
9.785893350E-1,4.885959625E-2,-2.220535278E-2,1.381568909E-1
9.835942170E-1,1.831740141E-2,-2.697563171E-2,1.296110153E-1
9.885685830E-1,3.045117855E-2,-2.694034576E-2,1.141119003E-1
9.935429480E-1,9.483098984E-3,-1.980018616E-2,5.863571167E-2
9.985173130E-1,2.414512634E-2,-2.688121796E-2,1.381721497E-1
1.003491678E0,-1.327300072E-2,-3.150081635E-2,1.368389130E-1
1.008466044E0,6.226718426E-3,-1.475238800E-2,1.025714874E-1
1.013440409E0,1.940667629E-3,-3.586769104E-2,8.752822876E-2
1.018414774E0,7.140278816E-3,-2.847671509E-2,8.677673340E-2
1.023389139E0,2.872049809E-3,-3.765106201E-2,1.025781631E-1
1.028363505E0,-6.064057350E-3,-1.606369019E-2,7.103347778E-2
1.033368387E0,8.661329746E-3,-1.354026794E-2,9.876632690E-2
1.038342753E0,4.354894161E-3,-4.406452179E-2,5.547904968E-2
1.043317118E0,4.491746426E-2,-8.236885071E-3,1.329441071E-1
1.048291483E0,2.611052990E-2,-3.371238708E-3,4.219245911E-2
1.053296366E0,7.419228554E-3,-1.504802704E-2,8.677768707E-2
1.058270731E0,-1.723945141E-3,-3.137302399E-2,6.251144409E-2
1.063245096E0,-3.756463528E-3,-3.814315796E-2,1.446485519E-1
1.068219462E0,2.720338106E-2,-2.359294891E-2,7.977390289E-2
1.073224344E0,8.356928825E-3,-7.053852081E-2,8.389472961E-2
1.078198710E0,6.287276745E-2,2.690410614E-2,1.469964981E-1
1.083173075E0,8.254587650E-3,-5.110645294E-2,7.743549347E-2
1.088177958E0,-3.469109535E-3,-8.059501648E-3,1.453924179E-1
1.093152323E0,7.463115454E-2,-2.198028564E-2,6.647872925E-2
1.098126688E0,1.989352703E-2,-1.919460297E-2,6.147766113E-2
1.103131571E0,-1.408815384E-3,-1.643276215E-2,8.012866974E-2
1.108105936E0,-2.496391535E-2,-4.912662506E-2,7.971572876E-2
1.113080301E0,5.084651709E-2,1.115798950E-3,8.643913269E-2
1.118054667E0,1.989471912E-2,1.087856293E-2,9.554004669E-2
1.123029032E0,4.826176167E-2,-5.339622498E-3,8.811569214E-2
1.128003397E0,3.378295898E-2,-4.265117645E-2,3.120994568E-2
1.133008280E0,1.692241430E-2,1.946735382E-2,2.433204651E-2
1.137982645E0,3.564041853E-2,-4.640102386E-2,1.520624161E-1
1.142957010E0,2.826189995E-2,-3.143882751E-2,1.017131805E-1
1.147931376E0,2.091926336E-2,-2.838325500E-2,1.627550125E-1
1.152936258E0,6.080174446E-2,-2.535247803E-2,1.335916519E-1
1.157910624E0,8.845603466E-2,-8.189201355E-3,8.578681946E-2
1.162884989E0,-9.179294109E-3,-1.713180542E-2,1.351633072E-1
1.167859354E0,3.093618155E-2,-4.753112793E-3,6.846046448E-2
1.172833719E0,3.525853157E-2,-9.004592896E-3,8.021163940E-2
1.177808085E0,1.829975843E-2,-1.322078705E-2,8.478260040E-2
1.182812967E0,3.820002079E-3,-5.597114563E-3,5.627250671E-2
1.187848368E0,5.083853006E-2,1.372718811E-2,1.034917831E-1
1.192761698E0,3.609883785E-2,-4.929542542E-3,7.707977295E-2
1.197736063E0,9.629905224E-3,-4.543304443E-3,6.977844238E-2
1.202740946E0,1.168501377E-2,-3.718471527E-2,7.673168182E-2
1.207715311E0,2.793490887E-2,-1.524066925E-2,5.532073975E-2
1.212689676E0,1.807558537E-2,-3.122997284E-2,7.423973083E-2
1.217664042E0,5.886793137E-3,-2.346229553E-2,7.886409760E-2
1.222638407E0,2.208316326E-2,-6.316184998E-3,3.192901611E-3
1.227643290E0,4.043853283E-2,-8.238792419E-3,2.253055573E-2
1.232617655E0,8.998811245E-3,-7.295608521E-4,9.361362457E-2
1.237592020E0,1.088631153E-2,6.779670715E-3,5.559253693E-2
1.242566385E0,1.507556438E-2,1.193141937E-2,5.809688568E-2
1.247540751E0,2.383935452E-2,-1.362800598E-2,-1.492691040E-2
1.252545633E0,6.316697598E-2,1.134872437E-3,6.371307373E-2
1.257519999E0,7.312297821E-4,1.105117798E-2,3.074359894E-2
1.262494364E0,4.979431629E-3,-5.036354065E-3,9.251880646E-2
1.267468729E0,2.570629120E-2,-2.570629120E-2,3.339767456E-2
1.272443094E0,3.675752878E-2,1.753234863E-2,-1.814365387E-2
1.277417460E0,1.937836409E-2,-1.038837433E-2,1.338386536E-2
1.282422342E0,5.890280008E-2,6.776809692E-3,1.395797729E-2
1.287396708E0,4.857999086E-2,4.914283752E-3,1.216316223E-2
1.292371073E0,3.589600325E-2,5.471229553E-3,-2.732944489E-2
1.297345438E0,-4.760777950E-2,1.553058624E-2,1.385021210E-2
1.302350321E0,8.857011795E-3,8.966445923E-3,9.817123413E-3
1.307324686E0,1.772683859E-2,-6.990432739E-3,-2.252197266E-2
1.312299051E0,6.433147192E-2,1.499557495E-2,-2.857971191E-2
1.317273417E0,3.024947643E-2,8.473396301E-3,-1.534461975E-3
1.322247782E0,6.718170643E-2,-7.436752319E-3,4.653739929E-2
1.327222147E0,1.637142897E-2,-3.263759613E-2,2.814102173E-2
1.332227030E0,1.562064886E-2,-3.876018524E-2,7.513999939E-3
1.337201395E0,8.065700531E-4,-1.891136169E-2,5.882263184E-3
1.342175760E0,3.564071655E-2,-3.929138184E-3,-2.403545380E-2
1.347150126E0,8.737742901E-3,1.094722748E-2,8.559608459E-2
1.352155008E0,-6.168127060E-3,2.098178864E-2,-2.757358551E-2
1.357129374E0,2.157354355E-2,1.912879944E-2,5.376148224E-2
1.362103739E0,-5.092620850E-4,7.677078247E-4,1.639270782E-2
1.367078104E0,3.185939789E-2,-1.040363312E-2,-4.191398621E-3
1.372052469E0,-1.155799627E-2,1.156520844E-2,-3.640937805E-2
1.377057352E0,1.855939627E-2,1.447105408E-2,-2.114295959E-2
1.382031717E0,-2.000474930E-2,-1.579284668E-3,5.767440796E-2
1.387006083E0,-1.580482721E-2,-2.932167053E-2,2.014446259E-2
1.391980448E0,-4.576027393E-3,2.581024170E-2,1.128196716E-2
1.396954813E0,-2.169513702E-2,-4.429817200E-3,9.649276733E-3
1.401959696E0,1.568645239E-2,5.739212036E-3,-1.384735107E-3
1.406934061E0,1.031351089E-2,3.706455231E-2,6.549835205E-3
1.411908426E0,-4.227703810E-2,6.730079651E-3,-6.852149963E-3
1.416852274E0,-3.073430061E-2,3.327655792E-2,-2.489185333E-2
1.421857157E0,4.310607910E-3,2.956390381E-3,9.160995483E-3
1.426831522E0,1.071178913E-2,3.663825989E-2,-1.606464386E-2
1.431805887E0,3.122317791E-2,5.823707581E-2,-2.927780151E-2
1.436780253E0,3.979009390E-2,3.714752197E-2,2.133083344E-2
1.441754618E0,3.395199776E-3,4.451847076E-2,-7.960510254E-2
1.446728983E0,-2.561539412E-2,4.470348358E-2,-1.215171814E-2
1.451733866E0,2.124053240E-2,3.544902802E-2,-3.968238831E-2
1.456708231E0,-1.248437166E-2,-2.096462250E-2,6.159782410E-3
1.461713114E0,4.848366976E-2,1.041030884E-2,-9.239864349E-2
1.466687479E0,1.214241982E-2,1.787281036E-2,1.015663147E-3
1.471661844E0,-7.386863232E-3,4.413890839E-2,-3.151893616E-3
1.476636210E0,-7.861793041E-3,1.589679718E-2,1.868534088E-2
1.481641092E0,-1.232564449E-3,3.508186340E-2,-3.758239746E-2
1.486615458E0,3.838533163E-2,3.287792206E-2,-4.379081726E-2
1.491650858E0,5.171918869E-2,2.369880676E-3,-4.050159454E-2
1.496564188E0,8.154273033E-2,3.813648224E-2,-6.645202637E-3
1.501538553E0,4.973787069E-2,2.871608734E-2,3.160572052E-2
1.506512919E0,-1.260209084E-2,-8.911132812E-3,-3.427028656E-2
1.511517801E0,3.409397602E-2,-8.432388306E-3,-5.142211914E-3
1.516492167E0,-2.343815565E-2,-8.003234863E-3,-1.391916275E-1
1.521466532E0,2.340942621E-2,6.539344788E-3,-5.737113953E-2
1.526440897E0,-1.743054390E-2,1.862239838E-2,-6.591033936E-2
1.531415262E0,4.595977068E-2,-8.106231689E-5,-3.424835205E-2
1.536389628E0,3.796225786E-2,4.268074036E-2,-5.283355713E-3
1.541394510E0,4.652643204E-2,-1.167392731E-2,-5.679130554E-2
1.546368876E0,5.272728205E-2,2.178382874E-2,-1.125736237E-1
1.551343241E0,1.876842976E-2,7.730484009E-3,-1.372318268E-1
1.556348124E0,-5.744498968E-2,-6.225585938E-3,-1.404600143E-1
1.561322489E0,8.526146412E-3,4.600715637E-2,-1.295194626E-1
1.566296854E0,-1.809215546E-2,8.060455322E-3,-9.983730316E-2
1.571271219E0,6.897783279E-2,3.174209595E-2,-7.992744446E-2
1.576245585E0,1.375794411E-2,2.692222595E-2,-9.792995453E-2
1.581250467E0,-1.749026775E-2,4.579162598E-2,-9.212017059E-2
1.586224833E0,-3.664851189E-3,1.493263245E-2,-1.052408218E-1
1.591199198E0,-3.473293781E-2,4.330444336E-2,-9.705924988E-2
1.596173563E0,1.478207111E-2,-1.781463623E-3,-5.123233795E-2
1.601147928E0,3.321951628E-2,3.614997864E-2,-7.421875000E-2
1.606122294E0,1.371628046E-2,1.711273193E-2,-9.701156616E-2
1.611127176E0,2.269995213E-2,2.956390381E-3,-9.836864471E-2
1.616101542E0,4.579257965E-2,7.756233215E-3,-8.796596527E-2
1.621075907E0,-4.462957382E-3,-1.353645325E-2,-7.539176941E-2
1.626050272E0,4.014778137E-2,5.977153778E-2,-7.472515106E-2
1.631055155E0,1.357215643E-2,2.392959595E-2,-5.748748779E-2
1.635999003E0,-8.079588413E-3,2.526283264E-3,-1.726102829E-1
1.641003885E0,4.130607843E-2,9.584426880E-3,-1.428337097E-1
1.645978251E0,2.429884672E-2,3.547000885E-2,-8.498382568E-2
1.650952616E0,-4.348099232E-3,1.154708862E-2,-8.193492889E-2
1.655926981E0,2.223253250E-4,2.084732056E-2,-1.049003601E-1
1.660931864E0,7.092237473E-3,4.103660583E-3,-1.158704758E-1
1.665906229E0,3.047746420E-2,1.346778870E-2,-1.267509460E-1
1.670880594E0,-1.710557938E-2,1.564979553E-2,-6.439113617E-2
1.675854960E0,2.066242695E-2,3.197574615E-2,-3.323745728E-2
1.680829325E0,6.279760599E-2,1.509761810E-2,-1.015081406E-1
1.685803690E0,3.138631582E-2,3.039360046E-3,-2.054309845E-2
1.690808573E0,2.383351326E-2,-2.308559418E-2,-5.356216431E-2
1.695782938E0,4.473346472E-2,3.364753723E-2,-1.310825348E-2
1.700757303E0,1.355230808E-2,-4.512786865E-3,-9.101963043E-2
1.705762186E0,1.091641188E-2,-2.246856689E-3,-5.263710022E-2
1.710736551E0,4.135507345E-2,7.551860809E-2,-7.361125946E-2
1.715710917E0,6.920176744E-2,-3.203392029E-3,-5.197238922E-2
1.720685282E0,4.492419958E-2,8.429527283E-3,-5.412387848E-2
1.725659647E0,2.558785677E-2,2.944946289E-2,-3.732490540E-2
1.730664530E0,3.707736731E-2,5.486488342E-3,-2.769565582E-2
1.735638895E0,4.606425762E-2,2.655124664E-2,-4.649734497E-2
1.740613260E0,7.049441338E-4,3.557300568E-2,-3.217124939E-2
1.745587626E0,1.240199804E-2,1.381206512E-2,-1.799011230E-2
1.750592508E0,2.164787054E-2,2.289867401E-2,1.021194458E-2
1.755566874E0,5.681270361E-2,3.543853760E-3,7.444381714E-3
1.760541239E0,3.747898340E-2,1.503753662E-2,2.593994141E-2
1.765546122E0,3.250986338E-2,-1.371955872E-2,3.008651733E-2
1.770520487E0,3.700941801E-2,-1.867008209E-2,4.359626770E-2
1.775494852E0,4.624706507E-2,-2.395629883E-3,-6.347084045E-2
1.780469217E0,4.832261801E-2,-5.208015442E-3,-2.100849152E-2
1.785474100E0,7.870477438E-2,3.451156616E-2,4.000568390E-2
1.790448465E0,3.810715675E-2,3.143596649E-2,6.984996796E-2
1.795483866E0,4.987752438E-2,3.542137146E-2,-3.044700623E-2
1.800397196E0,6.871801615E-2,-1.728725433E-2,4.948043823E-2
1.805371561E0,8.279770613E-2,5.087089539E-2,7.684803009E-2
1.810376444E0,8.025753498E-2,1.693153381E-2,5.910587311E-2
1.815350809E0,7.053399086E-2,-2.679824829E-4,1.028156281E-1
1.820325174E0,2.539563179E-2,2.990913391E-2,3.524589539E-2
1.825299540E0,3.263425827E-2,-8.555412292E-3,-1.000404358E-3
1.830304423E0,8.715772629E-2,4.535961151E-2,1.733589172E-2
1.835278788E0,4.208052158E-2,1.854801178E-2,2.133369446E-2
1.840253153E0,1.968920231E-3,6.101608276E-3,-4.553604126E-2
1.845227518E0,6.122636795E-2,-1.332378387E-2,8.408546448E-2
1.850232401E0,6.809633970E-2,-2.546787262E-2,7.575702667E-2
1.855206766E0,5.614948273E-2,-1.154327393E-2,6.749153137E-2
1.860181132E0,7.265424728E-2,6.966590881E-3,6.635093689E-2
1.865155497E0,2.045643330E-2,-7.703781128E-3,3.456497192E-2
1.870160380E0,-7.743179798E-3,-3.348350525E-3,2.903461456E-2
1.875134745E0,1.867741346E-2,5.719184875E-3,8.022975922E-2
1.880109110E0,1.668906212E-2,-8.913040161E-3,7.431411743E-2
1.885083475E0,4.546988010E-2,2.521514893E-3,2.828884125E-2
1.890057840E0,7.846355438E-3,9.138107300E-3,1.006774902E-1
1.895032206E0,4.138576984E-2,-7.945060730E-3,2.842140198E-2
1.900037089E0,3.912866116E-3,-2.490520477E-2,7.004547119E-2
1.905011454E0,-2.140605450E-2,1.495456696E-2,4.997539520E-2
1.910016337E0,2.203381062E-2,-2.811908722E-2,2.772712708E-2
1.914990702E0,2.265703678E-2,-5.430889130E-2,3.635120392E-2
1.919965067E0,3.275704384E-2,-4.721641541E-3,1.086597443E-1
1.924939432E0,1.916724443E-2,1.848697662E-2,1.984786987E-2
1.929913798E0,-2.034097910E-2,-6.476688385E-2,6.155967712E-2
1.934888163E0,-1.464807987E-2,-2.693843842E-2,6.515407562E-2
1.939893046E0,2.414149046E-2,8.213043213E-3,1.064796448E-1
1.944867411E0,3.191542625E-2,1.004886627E-2,3.182220459E-2
1.949841776E0,4.096448421E-3,3.315353394E-2,8.767127991E-2
1.954816141E0,-1.177877188E-2,2.537727356E-2,1.100120544E-1
1.959821024E0,7.872581482E-4,-1.302433014E-2,6.370830536E-2
1.964795389E0,-8.537173271E-4,5.593299866E-3,8.157444000E-2
1.969769755E0,1.646852493E-2,4.720687866E-4,1.205587387E-1
1.974744120E0,-4.196053743E-2,-1.874923706E-2,8.370876312E-2
1.979749003E0,-1.031398773E-2,-4.959678650E-2,8.496189117E-2
1.984723368E0,-3.318053484E-2,3.074073792E-2,7.673740387E-2
1.989697733E0,-4.153436422E-2,-9.954452515E-3,6.859970093E-2
1.994672098E0,1.867747307E-2,1.816558838E-2,5.110836029E-2
1.999676981E0,4.055160284E-2,-1.142501831E-3,1.187677383E-1
2.004651346E0,-1.577204466E-2,1.280212402E-2,1.056632996E-1
2.009625712E0,-4.340863228E-2,-4.014015198E-3,3.843307495E-2
2.014600077E0,-8.497887850E-2,2.915382385E-3,5.910301208E-2
2.019604960E0,-7.648962736E-2,-6.712913513E-3,1.055860519E-1
2.024579325E0,-2.550220490E-2,-1.619625092E-2,9.745883942E-2
2.029553690E0,-3.620564938E-2,1.210308075E-2,1.412487030E-1
2.034528055E0,-4.915535450E-2,2.334594727E-3,1.421070099E-1
2.039532938E0,-1.188235879E-1,6.808280945E-3,8.631324768E-2
2.044507303E0,-6.524974108E-2,1.805305481E-3,6.404113770E-2
2.049481669E0,-8.759880066E-2,-1.019573212E-2,8.212852478E-2
2.054456034E0,-1.073188186E-1,-1.263427734E-2,1.520156860E-1
2.059460917E0,-6.552070379E-2,-2.213668823E-2,1.410608292E-1
2.064435282E0,-6.670647860E-2,-1.034069061E-2,1.301774979E-1
2.069409647E0,-7.026851177E-2,3.716468811E-3,1.453504562E-1
2.074384012E0,-1.115015745E-1,3.658676147E-2,1.392002106E-1
2.079358378E0,-8.872491121E-2,-1.575565338E-2,1.567611694E-1
2.084363260E0,-7.566714287E-2,-6.268501282E-3,1.222724915E-1
2.089337626E0,-3.673708439E-2,5.542755127E-3,2.438354492E-2
2.094311991E0,-8.775007725E-2,1.965808868E-2,9.967327118E-2
2.099377909E0,-2.733266354E-2,-1.825332642E-2,1.507549286E-1
2.104260721E0,-8.550947905E-2,-3.915786743E-3,1.329603195E-1
2.109265604E0,-8.898097277E-2,1.266384125E-2,6.574726105E-2
2.114239969E0,-8.296298981E-2,1.028537750E-2,5.346107483E-2
2.119214335E0,-5.800259113E-2,-1.091480255E-2,4.840183258E-2
2.124219217E0,-8.513492346E-2,-1.543521881E-2,1.873521805E-1
2.129193583E0,-8.850890398E-2,1.310634613E-2,1.504411697E-1
2.134167948E0,-6.123602390E-2,2.492809296E-2,1.020879745E-1
2.139172831E0,-8.847975731E-2,2.484893799E-2,1.178731918E-1
2.144147196E0,-6.118178368E-2,-1.065921783E-2,5.560207367E-2
2.149121561E0,-1.096708179E-1,1.382827759E-3,8.832359314E-2
2.154095926E0,-8.467280865E-2,-5.584716797E-3,1.537990570E-1
2.159100809E0,-1.094596982E-1,3.233242035E-2,8.178806305E-2
2.164044657E0,-6.550770998E-2,-2.680873871E-2,4.582691193E-2
2.169049540E0,-5.256241560E-2,1.132583618E-2,3.848838806E-2
2.174023905E0,-4.447507858E-2,-1.935958862E-2,8.545207977E-2
2.178998270E0,-4.357600212E-2,2.811050415E-2,1.131458282E-1
2.184003153E0,-5.690973997E-2,-3.080368042E-4,1.217803955E-1
2.188977518E0,-6.784349680E-2,6.937026978E-3,3.830909729E-2
2.193921366E0,-8.346045017E-2,-2.384185791E-3,1.042718887E-1
2.198895731E0,-2.130389214E-3,-2.573108673E-2,1.154623032E-1
2.203900614E0,-6.437301636E-3,-8.731842041E-3,1.006174088E-1
2.208874979E0,-5.092298985E-2,1.280403137E-2,9.293270111E-2
2.213849344E0,-9.986376762E-2,-3.903770447E-2,4.752731323E-2
2.218823710E0,-9.886854887E-2,-1.486682892E-2,1.276636124E-1
2.223798075E0,-9.312129021E-2,-2.756118774E-4,1.411085129E-1
2.228802958E0,-4.489469528E-2,4.254150391E-2,5.768013000E-2
2.233777323E0,-1.791775227E-3,9.440422058E-3,1.071100235E-1
2.238751688E0,-2.522575855E-2,-6.587409973E-2,4.991054535E-2
2.243756571E0,-8.634537458E-2,1.053619385E-2,7.348060608E-2
2.248730936E0,-7.144397497E-2,-2.461814880E-2,7.327175140E-2
2.253705301E0,-4.954171181E-2,-9.886741638E-3,4.003906250E-2
2.258679667E0,-6.557309628E-2,2.126598358E-2,4.487419128E-2
2.263654032E0,-4.845237732E-2,2.151203156E-2,1.194858551E-2
2.268689432E0,-3.219783306E-3,7.616996765E-3,1.001739502E-2
2.273663798E0,8.498847485E-3,1.741409302E-2,5.056571960E-2
2.278638163E0,-5.893230438E-3,-2.720832825E-2,6.476116180E-2
2.283612528E0,-3.666996956E-3,2.294063568E-2,5.520725250E-2
2.288617411E0,-1.094603539E-2,2.310276031E-2,8.350849152E-2
2.293591776E0,-4.089772701E-3,-3.032684326E-4,5.497360229E-2
2.298566141E0,-3.274220228E-2,4.856109619E-3,2.436923981E-2
2.303540507E0,7.300376892E-3,3.126049042E-2,-2.245426178E-2
2.308545389E0,9.212970734E-3,-6.267547607E-3,7.513618469E-2
2.313519755E0,-3.119885921E-3,-5.718231201E-3,1.847743988E-2
2.318494120E0,-2.483558655E-2,1.375389099E-2,2.607917786E-2
2.323468485E0,8.878111839E-4,-7.063865662E-3,2.928733826E-3
2.328473368E0,-1.376461983E-2,5.339622498E-3,7.203578949E-2
2.333447733E0,-4.245954752E-2,-1.067066193E-2,5.796718597E-2
2.338422098E0,-2.459108829E-3,-1.236248016E-2,-1.969432831E-2
2.343396464E0,-1.006746292E-2,-4.236698151E-2,1.424217224E-2
2.348401346E0,1.536720991E-2,8.141517639E-3,-8.749008179E-3
2.353375712E0,9.838104248E-3,-5.034065247E-2,6.998062134E-2
2.358350077E0,-2.871072292E-2,4.994392395E-3,5.602169037E-2
2.363354960E0,-1.031106710E-2,-2.744579315E-2,-7.361412048E-3
2.368329325E0,4.575234652E-2,6.475448608E-3,-8.851051331E-3
2.373303690E0,4.707789421E-2,1.178836823E-2,7.465076447E-2
2.378278055E0,3.472983837E-3,3.117561340E-2,4.410266876E-2
2.383252421E0,6.171393394E-2,-1.571559906E-2,2.558803558E-2
2.388257303E0,-1.742565632E-2,3.461360931E-2,-1.868534088E-2
2.393231669E0,3.399747610E-2,3.967094421E-2,8.611774445E-2
2.398206034E0,6.379097700E-2,1.635932922E-2,9.090232849E-2
2.403241434E0,5.787307024E-2,2.395725250E-2,3.666973114E-2
2.408185282E0,7.792234421E-2,3.150367737E-2,-2.653789520E-2
2.413159647E0,7.884734869E-2,-2.000331879E-2,8.549594879E-2
2.418134012E0,7.270073891E-2,-7.326126099E-3,1.116399765E-1
2.423108378E0,9.734356403E-2,4.778194427E-2,1.022081375E-1
2.428113260E0,1.477076411E-1,9.565353394E-4,1.735401154E-2
2.433087626E0,1.032636762E-1,3.241825104E-2,6.303310394E-2
2.438061991E0,1.512987018E-1,6.987571716E-3,8.238887787E-2
2.443036356E0,1.469978690E-1,6.443023682E-2,3.317642212E-2
2.448041239E0,1.450892091E-1,1.755714417E-2,2.689552307E-2
2.453015604E0,1.124953032E-1,4.660892487E-2,2.538394928E-2
2.457989969E0,1.297267675E-1,-3.078365326E-2,8.764934540E-2
2.462964335E0,1.539474130E-1,2.706623077E-2,1.541681290E-1
2.467969217E0,1.851605177E-1,3.251171112E-2,9.030532837E-2
2.472943583E0,1.807088256E-1,-4.605293274E-3,6.470966339E-2
2.477917948E0,1.266319752E-1,5.796432495E-3,1.030664444E-1
2.482892313E0,1.413930058E-1,3.731155396E-2,8.440303802E-2
2.487866678E0,1.300649643E-1,4.965877533E-2,5.642700195E-2
2.492871561E0,1.873562336E-1,3.356361389E-2,5.226898193E-2
2.497845926E0,1.757689714E-1,6.953239441E-2,5.648612976E-3
2.502820292E0,1.855053902E-1,2.505207062E-2,7.993507385E-2
2.507794657E0,1.809794903E-1,4.470062256E-2,4.268455505E-2
2.512799540E0,2.024320364E-1,1.695823669E-2,2.697181702E-2
2.517773905E0,1.717342138E-1,3.663158417E-2,-1.932716370E-2
2.522748270E0,2.002806664E-1,8.906364441E-3,4.568004608E-2
2.527722635E0,2.191146016E-1,2.394104004E-2,7.242488861E-2
2.532697001E0,1.740779877E-1,4.123306274E-2,8.244705200E-2
2.537701883E0,1.506641507E-1,1.598739624E-2,1.113824844E-1
2.542706766E0,1.864414215E-1,5.949687958E-2,5.992221832E-2
2.547650614E0,1.960104704E-1,6.956195831E-2,3.009128571E-2
2.552624979E0,2.102928758E-1,4.412460327E-2,2.409744263E-2
2.557629862E0,2.339062095E-1,2.837371826E-2,4.415702820E-2
2.562604227E0,2.006587386E-1,4.584121704E-2,2.868747711E-2
2.567578592E0,1.747984290E-1,2.775859833E-2,4.167461395E-2
2.572583475E0,1.704164743E-1,1.687145233E-2,6.867313385E-2
2.577557840E0,1.944265962E-1,5.323791504E-2,1.748943329E-2
2.582532206E0,2.230087519E-1,4.209327698E-2,4.935073853E-2
2.587506571E0,2.018243074E-1,2.634143829E-2,7.388782501E-2
2.592480936E0,1.595491767E-1,5.793285370E-2,3.684711456E-2
2.597485819E0,1.553812027E-1,3.261852264E-2,6.386375427E-2
2.602460184E0,1.748675108E-1,2.877902985E-2,-8.467674255E-3
2.607434549E0,1.799775362E-1,6.273746490E-2,-2.590465546E-2
2.612408915E0,1.284270883E-1,4.445743561E-2,1.814746857E-2
2.617413798E0,1.859105825E-1,4.290390015E-2,2.412128448E-2
2.622388163E0,1.460738182E-1,4.137897491E-2,4.659175873E-2
2.627362528E0,1.183784008E-1,4.456901550E-2,2.400112152E-2
2.632336893E0,1.097977757E-1,3.824710846E-2,-5.534172058E-3
2.637341776E0,1.366684437E-1,2.960109711E-2,-3.720188141E-2
2.642316141E0,1.231673360E-1,1.636409760E-2,-2.604675293E-2
2.647290507E0,1.050318778E-1,1.508235931E-2,-1.257324219E-2
2.652264872E0,9.174656868E-2,5.868434906E-2,-1.807022095E-2
2.657269755E0,6.672856212E-2,6.652545929E-2,-9.344100952E-3
2.662244120E0,8.441993594E-2,6.247234344E-2,-7.228851318E-4
2.667218485E0,9.254699945E-2,6.083679199E-2,1.021289825E-2
2.672192850E0,6.515425444E-2,3.796958923E-2,-2.379131317E-2
2.677167215E0,5.451670289E-2,3.415679932E-2,1.327991486E-2
2.682141581E0,4.873555899E-2,5.638694763E-2,-1.600360870E-2
2.687146464E0,9.023192525E-2,6.670284271E-2,-1.427268982E-2
2.692120829E0,4.645282030E-2,-1.511478424E-2,2.050590515E-2
2.697095194E0,7.737010717E-3,2.173423767E-2,3.013610840E-3
2.702069559E0,3.063106537E-2,7.005786896E-2,1.397323608E-2
2.707135477E0,-2.688193321E-2,4.959487915E-2,-2.464962006E-2
2.712048807E0,3.192672133E-2,6.237602234E-2,-2.280235291E-2
2.717023173E0,-4.185751081E-2,3.026390076E-2,2.394866943E-2
2.721997538E0,-3.483051062E-2,7.155513763E-2,1.833248138E-2
2.727002421E0,2.731829882E-3,7.469749451E-2,-2.032184601E-2
2.731946268E0,-4.494991899E-2,7.543659210E-2,7.418632507E-3
2.736951151E0,-1.110633314E-1,7.852363586E-2,1.870155334E-3
2.741925516E0,-4.679310322E-2,5.086803436E-2,-6.976318359E-2
2.746899882E0,-3.025868535E-2,8.718204498E-2,-5.817699432E-2
2.751904764E0,-1.130085588E-1,6.652641296E-2,-1.852035522E-3
2.756879130E0,-7.706809044E-2,6.487369537E-2,-3.575897217E-2
2.761853495E0,-1.004411280E-1,5.136680603E-2,-1.001472473E-1
2.766827860E0,-8.581075072E-2,9.689903259E-2,1.135826111E-3
2.771802225E0,-6.887623668E-2,7.591247559E-2,-1.274538040E-1
2.776776590E0,-7.809272408E-2,3.147315979E-2,-7.559299469E-2
2.781781473E0,-1.061599553E-1,6.528854370E-2,-1.020765305E-1
2.786755839E0,-1.104294956E-1,4.688453674E-2,-1.000175476E-1
2.791730204E0,-7.215845585E-2,1.041479111E-1,-1.286926270E-1
2.796704569E0,-8.600771427E-2,8.773517609E-2,-7.454204559E-2
2.801678934E0,-9.969151020E-2,4.783439636E-2,-1.011266708E-1
2.806683817E0,-1.038105786E-1,6.962871552E-2,-1.086196899E-1
2.811658182E0,-1.267099679E-1,7.235240936E-2,-1.467475891E-1
2.816632548E0,-1.304942667E-1,6.324958801E-2,-1.609563828E-1
2.821606913E0,-1.531790197E-1,4.008007050E-2,-1.891841888E-1
2.826581278E0,-1.213821471E-1,5.959415436E-2,-1.723260880E-1
2.831555643E0,-9.221389890E-2,4.115390778E-2,-2.028465271E-1
2.836560526E0,-1.128835976E-1,1.007499695E-1,-9.621715546E-2
2.841534891E0,-1.310887933E-1,7.248020172E-2,-1.651859283E-1
2.846509257E0,-8.078366518E-2,5.154609680E-2,-1.957855225E-1
2.851483622E0,-1.253016591E-1,5.911159515E-2,-1.671190262E-1
2.856457987E0,-1.221943796E-1,9.964084625E-2,-1.505212784E-1
2.861432352E0,-1.237871647E-1,8.079814911E-2,-1.954631805E-1
2.866437235E0,-1.300675869E-1,6.207370758E-2,-1.787023544E-1
2.871411600E0,-1.174384952E-1,5.997848511E-2,-1.928253174E-1
2.876385965E0,-1.025792956E-1,1.074495316E-1,-1.620054245E-1
2.881360331E0,-7.840150595E-2,7.660484314E-2,-1.173038483E-1
2.886365214E0,-9.217047691E-2,8.136558533E-2,-1.367797852E-1
2.891339579E0,-8.460354805E-2,6.243133545E-2,-1.868371964E-1
2.896313944E0,-1.455882192E-1,9.084033966E-2,-1.798515320E-1
2.901288309E0,-1.304802895E-1,8.360576630E-2,-1.918106079E-1
2.906262674E0,-1.957358122E-1,3.158092499E-2,-1.942291260E-1
2.911237040E0,-9.280729294E-2,6.966781616E-2,-1.895742416E-1
2.916241923E0,-1.158057451E-1,1.310901642E-1,-1.565809250E-1
2.921216288E0,-6.786715984E-2,1.164789200E-1,-1.804933548E-1
2.926190653E0,-1.289325356E-1,8.773899078E-2,-1.500120163E-1
2.931195536E0,-1.045331359E-1,9.698867798E-2,-2.142267227E-1
2.936169901E0,-9.688758850E-2,7.312965393E-2,-1.268110275E-1
2.941144266E0,-8.452183008E-2,6.356525421E-2,-1.464290619E-1
2.946118632E0,-9.345692396E-2,7.056236267E-2,-1.234455109E-1
2.951092997E0,-1.164812446E-1,7.509708405E-2,-2.187318802E-1
2.956097880E0,-1.133744717E-1,7.719039917E-2,-2.495384216E-1
2.961072245E0,-9.612560272E-2,9.810638428E-2,-5.116462708E-2
2.966046610E0,-1.049392819E-1,7.863140106E-2,-1.354513168E-1
2.971020975E0,-9.956991673E-2,7.102966309E-2,-1.270761490E-1
2.976025858E0,-1.392244697E-1,8.940696716E-2,-1.872768402E-1
2.981000223E0,-9.361690283E-2,9.112644196E-2,-1.407270432E-1
2.985974589E0,-7.433295250E-2,1.140766144E-1,-1.512193680E-1
2.990948954E0,-6.231635809E-2,1.297311783E-1,-6.014442444E-2
2.995923319E0,-8.585566282E-2,8.855628967E-2,-8.554458618E-2
3.000897684E0,-9.973490238E-2,3.823661804E-2,-1.367511749E-1
3.005902567E0,-5.916059017E-2,6.859683990E-2,-1.119956970E-1
3.010937967E0,-1.039323807E-1,8.215713501E-2,-1.394033432E-1
3.015851298E0,-9.400689602E-2,7.672023773E-2,-4.383468628E-2
3.020825663E0,-7.467907667E-2,7.371234894E-2,-9.067153931E-2
3.025830546E0,-6.729483604E-2,8.487033844E-2,-7.577037811E-2
3.030804911E0,-7.413351536E-2,8.876609802E-2,-1.201086044E-1
3.035779276E0,-5.025309324E-2,9.020137787E-2,-6.264877319E-2
3.040753641E0,-8.320945501E-2,7.511997223E-2,-3.869438171E-2
3.045758524E0,-5.681282282E-2,9.318923950E-2,-8.814716339E-2
3.050732889E0,-8.249425888E-2,7.563686371E-2,-1.278219223E-1
3.055707255E0,-7.021498680E-2,5.816459656E-2,-8.698177338E-2
3.060681620E0,-1.029108167E-1,6.909847260E-2,-1.173734665E-1
3.065655985E0,-4.794937372E-2,5.159187317E-2,-8.144378662E-2
3.070630350E0,-2.879065275E-2,5.307006836E-2,-1.001625061E-1
3.075635233E0,-4.746931791E-2,8.045673370E-2,-4.088497162E-2
3.080609598E0,-5.175638199E-2,6.032180786E-2,-6.481933594E-2
3.085583964E0,-8.202469349E-2,3.315925598E-2,-1.075658798E-1
3.090558329E0,-4.366040230E-2,5.810737610E-2,-1.452865601E-1
3.095563212E0,-1.978242397E-2,4.030704498E-2,-1.072120667E-1
3.100537577E0,-5.748063326E-2,4.149913788E-2,-7.186126709E-2
3.105511942E0,8.977890015E-3,2.139186859E-2,-1.478013992E-1
3.110516825E0,-2.187514305E-2,3.211307526E-2,-1.499633789E-1
3.115491190E0,-9.961903095E-3,1.680469513E-2,-4.821300507E-2
3.120465555E0,1.365512609E-2,5.357837677E-2,-1.054430008E-1
3.125439921E0,2.291226387E-2,2.631092072E-2,-9.610080719E-2
3.130414286E0,1.799833775E-2,6.770610809E-2,-1.435184479E-1
3.135388651E0,3.210455179E-2,7.575607300E-2,-1.338396072E-1
3.140393534E0,2.725702524E-2,4.367160797E-2,-5.571556091E-2
3.145367899E0,6.022143364E-2,4.488658905E-2,-3.255367279E-2
3.150342264E0,3.623253107E-2,5.551052094E-2,-5.446052551E-2
3.155316630E0,4.782968760E-2,4.477882385E-2,-6.440639496E-2
3.160290995E0,1.920384169E-2,3.411579132E-2,-8.373546600E-2
3.165295878E0,7.362842560E-3,6.843090057E-2,-6.745243073E-2
3.170270243E0,6.174099445E-2,1.986885071E-2,-4.183101654E-2
3.175244608E0,6.373423338E-2,4.958820343E-2,-3.769397736E-2
3.180218973E0,8.223491907E-2,3.890895844E-2,1.359558105E-2
3.185193339E0,1.077075005E-1,4.718112946E-2,-2.999305725E-2
3.190198221E0,7.874268293E-2,2.464675903E-2,-4.967498779E-2
3.195172587E0,6.892710924E-2,3.533267975E-2,-3.380298615E-2
3.200146952E0,7.800829411E-2,5.799293518E-3,7.905960083E-3
3.205121317E0,1.247577667E-1,1.423549652E-2,3.033256531E-2
3.210095682E0,8.615970612E-2,1.311492920E-2,7.140541077E-2
3.215100565E0,1.092621684E-1,2.850151062E-2,-1.300525665E-2
3.220074930E0,8.977890015E-2,1.310443878E-2,7.091808319E-2
3.225049296E0,1.035970449E-1,2.618598938E-2,-8.715629578E-3
3.230023661E0,1.078512073E-1,8.402824402E-3,4.296302795E-3
3.235028544E0,8.610600233E-2,1.668357849E-2,6.907463074E-2
3.240002909E0,1.140925884E-1,3.672885895E-2,5.309009552E-2
3.244977274E0,1.206011772E-1,1.177787781E-2,8.936882019E-3
3.249951639E0,9.870666265E-2,4.607105255E-2,5.487918854E-2
3.254956522E0,1.477949023E-1,3.522396088E-2,2.489662170E-2
3.259930887E0,1.281074882E-1,-6.191253662E-3,5.420589447E-2
3.264905253E0,5.201780796E-2,2.332687378E-3,1.068973541E-1
3.269879618E0,9.695357084E-2,-8.075714111E-3,6.711483002E-2
3.274853983E0,1.272861958E-1,-3.015613556E-2,7.964992523E-2
3.279828348E0,1.242964864E-1,2.820682526E-2,1.345729828E-1
3.284833231E0,8.361607790E-2,3.414916992E-2,1.323785782E-1
3.289807596E0,9.289038181E-2,-3.782749176E-2,2.293767929E-1
3.294781962E0,8.792400360E-2,-2.979278564E-3,1.438045502E-1
3.299756327E0,8.299881220E-2,4.099941254E-2,2.005529404E-1
3.304761210E0,7.818740606E-2,3.031539917E-2,1.860027313E-1
3.309735575E0,8.054131269E-2,-2.980136871E-2,1.763505936E-1
3.314770975E0,4.270923138E-2,2.956390381E-4,1.856794357E-1
3.319684305E0,5.947363377E-2,2.072238922E-2,1.383018494E-1
3.324689188E0,8.797866106E-2,2.439594269E-2,2.517642975E-1
3.329663553E0,3.370988369E-2,-1.448917389E-2,2.532863617E-1
3.334637919E0,8.623814583E-2,-1.527786255E-2,1.768941879E-1
3.339612284E0,5.335223675E-2,1.229095459E-2,2.121105194E-1
3.344586649E0,5.841779709E-2,-2.176761627E-2,1.832771301E-1
3.349591532E0,5.875396729E-2,-5.995750427E-3,2.207479477E-1
3.354565897E0,1.673012972E-2,2.386093140E-2,2.036666870E-1
3.359540262E0,6.720906496E-2,-5.542755127E-3,2.221317291E-1
3.364514628E0,6.349980831E-3,-1.111507416E-2,2.238950729E-1
3.369488993E0,5.222636461E-2,4.627227783E-3,1.760978699E-1
3.374463358E0,3.637158871E-2,-3.343582153E-3,2.609157562E-1
3.379437723E0,8.679187298E-2,-4.899311066E-2,1.609277725E-1
3.384412089E0,6.130152941E-2,-1.631927490E-2,1.892919540E-1
3.389386454E0,6.205844879E-2,-9.838104248E-3,1.726169586E-1
3.394391337E0,2.506941557E-2,-2.229976654E-2,2.434148788E-1
3.399365702E0,7.572120428E-2,-2.044582367E-2,1.932916641E-1
3.404340067E0,4.802715778E-2,-2.326393127E-2,1.932334900E-1
3.409314432E0,2.290201187E-2,-7.057189941E-5,2.333316803E-1
3.414319315E0,5.122482777E-3,-3.370380402E-2,9.135150909E-2
3.419293680E0,6.068611145E-2,-1.984119415E-2,1.748113632E-1
3.424268046E0,3.556072712E-2,-2.261352539E-2,2.103681564E-1
3.429242411E0,6.973117590E-2,-4.070281982E-3,1.984672546E-1
3.434216776E0,6.823045015E-2,2.422332764E-4,1.796836853E-1
3.439221659E0,6.677281857E-2,-4.741668701E-2,1.681327820E-1
3.444226542E0,2.991473675E-2,1.626682281E-2,1.732006073E-1
3.449200907E0,3.813242912E-2,8.646965027E-3,1.759214401E-1
3.454175272E0,9.580653906E-2,-3.429698944E-2,1.361560822E-1
3.459149637E0,5.860334635E-2,2.702617645E-2,2.596521378E-1
3.464154520E0,8.077955246E-2,-1.366615295E-2,1.602230072E-1
3.469128885E0,6.268370152E-2,-3.277015686E-2,1.560468674E-1
3.474103251E0,2.590447664E-2,1.908397675E-2,1.447973251E-1
3.479077616E0,1.539361477E-2,-9.732246399E-3,1.572713852E-1
3.484051981E0,4.748207331E-2,-2.835273743E-3,1.508321762E-1
3.489056864E0,7.931673527E-2,-3.099441528E-3,2.152366638E-1
3.494031229E0,6.833958626E-2,3.913021088E-2,1.162300110E-1
3.499005594E0,3.145807981E-2,-1.571273804E-2,1.762800217E-1
3.503979960E0,3.732258081E-2,2.200317383E-2,1.650638580E-1
3.508954325E0,1.002126932E-2,-6.568431854E-2,1.350851059E-1
3.513959208E0,4.902940989E-2,-5.109500885E-2,1.384544373E-1
3.518933573E0,-6.692647934E-3,-4.370689392E-2,1.276340485E-1
3.523907938E0,2.069801092E-2,2.497577667E-2,1.310424805E-1
3.528882303E0,-1.117146015E-2,1.757240295E-2,7.307624817E-2
3.533856669E0,-2.736628056E-3,-3.929901123E-2,1.100702286E-1
3.538831034E0,8.634924889E-4,-2.955818176E-2,9.959888458E-2
3.543835917E0,-1.206117868E-2,-7.183170319E-2,1.765537262E-1
3.548810282E0,-2.019417286E-2,1.934051514E-3,1.372241974E-1
3.553784647E0,-2.826344967E-2,-2.165508270E-2,1.218776703E-1
3.558759012E0,-5.578219891E-3,-2.612018585E-2,1.846084595E-1
3.563763895E0,-2.095627785E-2,4.946708679E-3,1.501417160E-1
3.568738260E0,-1.269787550E-2,-1.377582550E-2,9.241104126E-2
3.573712626E0,-4.230284691E-2,7.257461548E-4,1.130847931E-1
3.578686991E0,-5.509436131E-2,-1.791954041E-2,1.194448471E-1
3.583661356E0,-3.699409962E-2,-2.222061157E-2,9.272861481E-2
3.588666239E0,-7.098811865E-2,-3.116035461E-2,8.753490448E-2
3.593640604E0,-6.228846312E-2,-4.236984253E-2,1.272602081E-1
3.598614969E0,-5.607652664E-2,-2.044200897E-2,6.514930725E-2
3.603589335E0,-7.116907835E-2,-1.281929016E-2,7.441997528E-2
3.608563700E0,-6.255203485E-2,-3.826522827E-2,7.894420624E-2
3.613568583E0,-1.060462594E-1,-1.864719391E-2,5.275249481E-2
3.618603983E0,-9.969693422E-2,-3.696155548E-2,7.871627808E-2
3.623517313E0,-9.819370508E-2,2.044296265E-2,7.381439209E-2
3.628491678E0,-7.548248768E-2,1.875877380E-3,7.136821747E-2
3.633496561E0,-5.531674623E-2,-7.091522217E-3,5.714225769E-2
3.638470926E0,-1.014404893E-1,5.257606506E-3,1.350955963E-1
3.643445292E0,-1.117504239E-1,3.340721130E-3,1.014518738E-1
3.648419657E0,-1.077819467E-1,-3.256797791E-3,8.699893951E-2
3.653424540E0,-1.274877787E-1,-1.923656464E-2,6.795310974E-2
3.658368387E0,-1.493514180E-1,-1.858615875E-2,5.611419678E-2
3.663373270E0,-1.260830164E-1,3.312110901E-3,3.965377808E-2
3.668347635E0,-8.897280693E-2,-1.511096954E-2,7.526111603E-2
3.673322001E0,-1.090132594E-1,-3.336524963E-2,4.922962189E-2
3.678326883E0,-1.312665939E-1,2.850532532E-3,4.232883453E-2
3.683301249E0,-1.037438512E-1,-1.553153992E-2,3.312015533E-2
3.688275614E0,-1.449105144E-1,2.523040771E-2,8.769607544E-2
3.693249979E0,-1.361881495E-1,-7.504463196E-3,7.810878754E-2
3.698224344E0,-1.040483117E-1,7.306098938E-3,2.147006989E-2
3.703229227E0,-1.737476587E-1,1.489257812E-2,-4.415798187E-2
3.708203592E0,-1.271752715E-1,8.250236511E-3,4.419326782E-2
3.713177958E0,-1.140852571E-1,1.591205597E-2,3.512859344E-2
3.718152323E0,-8.462715149E-2,2.822971344E-2,-2.185821533E-3
3.723157206E0,-6.015962362E-2,1.679801941E-2,2.449893951E-2
3.728131571E0,-1.067175865E-1,-1.812744141E-2,3.681755066E-2
3.733105936E0,-8.209270239E-2,-1.967144012E-2,-2.173042297E-2
3.738080301E0,-1.309624314E-1,9.526252747E-3,-4.432582855E-2
3.743085184E0,-1.251797080E-1,4.082298279E-2,3.003120422E-2
3.748029032E0,-6.744754314E-2,-6.069183350E-3,4.585266113E-3
3.753033915E0,-1.257722974E-1,2.068138123E-2,-8.764266968E-3
3.758008280E0,-5.845898390E-2,2.359962463E-2,2.047920227E-2
3.762982645E0,-1.074460745E-1,9.901046753E-3,2.192497253E-3
3.767987528E0,-9.001243114E-2,-3.721237183E-3,-1.816749573E-3
3.772961893E0,-1.034255624E-1,1.610755920E-3,-1.292514801E-2
3.777936258E0,-5.772018433E-2,-9.650230408E-3,-3.341197968E-2
3.782910624E0,-8.794826269E-2,-4.279136658E-3,-6.497383118E-3
3.787884989E0,-1.062020063E-1,2.228641510E-2,-3.414154053E-3
3.792889872E0,-6.068545580E-2,-3.877544403E-2,-5.943870544E-2
3.797864237E0,-4.627692699E-2,4.225921631E-2,-4.187107086E-2
3.802838602E0,-4.851222038E-2,-2.607536316E-2,-6.691455841E-2
3.807812967E0,-2.953451872E-2,1.002120972E-2,-8.466815948E-2
3.812817850E0,-4.381191730E-2,1.747035980E-2,-7.871627808E-3
3.817792215E0,-2.971023321E-2,2.483081818E-2,-8.989715576E-2
3.822766581E0,-3.475159407E-2,1.798439026E-2,-5.554294586E-2
3.827740946E0,-4.682910442E-2,5.136966705E-2,-1.252870560E-1
3.832745829E0,7.359385490E-3,-4.978179932E-4,-6.697750092E-2
3.837720194E0,-4.517638683E-2,3.540134430E-2,-8.469581604E-2
3.842694559E0,-9.959399700E-3,3.561401367E-2,-2.198123932E-2
3.847668924E0,6.062150002E-3,3.114891052E-2,-2.819156647E-2
3.852643290E0,-1.826983690E-2,3.113746643E-3,-4.142665863E-2
3.857648173E0,4.829704762E-3,4.138946533E-2,-5.221462250E-2
3.862622538E0,4.229605198E-3,2.035427094E-2,-8.177947998E-2
3.867596903E0,4.140371084E-2,3.728485107E-2,-1.323175430E-1
3.872571268E0,-2.041697502E-3,2.810478210E-2,-8.801269531E-2
3.877576151E0,6.708323956E-3,2.604007721E-2,-7.008647919E-2
3.882550516E0,1.534646749E-2,3.395080566E-4,-1.066541672E-1
3.887524882E0,6.407153606E-2,1.260375977E-2,-1.075325012E-1
3.892499247E0,2.746140957E-2,2.474784851E-2,-1.391162872E-1
3.897473612E0,1.242262125E-2,1.786327362E-2,-1.256389618E-1
3.902478495E0,6.595796347E-2,4.399681091E-2,-8.876895905E-2
3.907452860E0,5.054461956E-2,4.628086090E-2,-5.931472778E-2
3.912427225E0,8.238029480E-2,3.916740417E-2,-1.055631638E-1
3.917401590E0,9.743076563E-2,2.269458771E-2,-1.136312485E-1
3.922467508E0,1.053004265E-1,3.958702087E-3,-6.738662720E-2
3.927350321E0,7.062047720E-2,-1.465415955E-2,-1.018257141E-1
3.932355204E0,4.091656208E-2,5.898284912E-2,-1.005287170E-1
3.937329569E0,8.468937874E-2,-2.374744415E-2,-8.503341675E-2
3.942303934E0,1.116430163E-1,1.226234436E-2,-7.200527191E-2
3.947308817E0,1.525318623E-1,4.559326172E-2,-4.022312164E-2
3.952283182E0,1.292585135E-1,3.379154205E-2,-5.827522278E-2
3.957257548E0,1.674411893E-1,4.101467133E-2,-7.139968872E-2
3.962231913E0,1.155137420E-1,3.405666351E-2,-5.367183685E-2
3.967206278E0,1.254147887E-1,3.895950317E-2,-7.150173187E-2
3.972211161E0,1.257598400E-1,1.311302185E-3,-2.546977997E-2
3.977185526E0,1.543912888E-1,1.699447632E-3,1.068496704E-2
3.982159891E0,1.308773160E-1,1.624870300E-2,-1.955699921E-2
3.987134257E0,1.925178170E-1,4.958343506E-2,2.601814270E-2
3.992108622E0,1.426950693E-1,1.888275146E-2,9.812355042E-3
3.997082987E0,1.571164727E-1,2.384948730E-2,8.816051483E-2
4.002087870E0,1.903260946E-1,2.639770508E-2,-2.536964417E-2
4.007062235E0,1.240518093E-1,5.958652496E-2,1.292228699E-3
4.012036600E0,1.645581126E-1,1.694107056E-2,-1.714229584E-2
4.017010965E0,1.623314619E-1,1.712131500E-2,1.412010193E-2
4.022015848E0,1.767114997E-1,1.251697540E-2,9.636878967E-3
4.026990214E0,1.673963666E-1,3.385162354E-2,-2.793598175E-2
4.031964579E0,1.959568262E-1,5.267333984E-2,-6.044864655E-2
4.036938944E0,1.746675968E-1,4.065227509E-2,1.826095581E-2
4.041913309E0,1.558724046E-1,7.117843628E-2,3.489303589E-2
4.046887674E0,1.820844412E-1,4.007530212E-2,6.318950653E-2
4.051892557E0,1.491101384E-1,4.513740540E-3,1.335239410E-2
4.056866923E0,1.731664538E-1,-1.188564301E-2,-3.609848022E-2
4.061841288E0,1.735112667E-1,5.213546753E-2,-6.623077393E-2
4.066815653E0,1.431874633E-1,4.482841492E-2,2.194023132E-2
4.071820536E0,1.531947255E-1,1.867580414E-2,2.673530579E-2
4.076794901E0,1.488971710E-1,9.243011475E-3,-1.579284668E-3
4.081769266E0,1.752792597E-1,6.126403809E-2,-1.785278320E-2
4.086743632E0,1.660986543E-1,1.840782166E-2,8.469581604E-3
4.091717997E0,1.806727052E-1,-5.161285400E-3,4.170417786E-2
4.096722880E0,1.502563357E-1,9.260177612E-3,1.515388489E-3
4.101697245E0,1.790236831E-1,3.298091888E-2,-4.308223724E-2
4.106671610E0,1.555683017E-1,1.877689362E-2,1.660728455E-2
4.111645975E0,1.630319357E-1,9.452819824E-3,6.404209137E-2
4.116620340E0,1.586778164E-1,4.950523376E-3,2.376556396E-2
4.121625223E0,1.354601979E-1,2.879619598E-2,4.754161835E-2
4.126599589E0,1.265630126E-1,1.939582825E-2,-1.622009277E-2
4.131573954E0,1.319686770E-1,2.897930145E-2,7.910728455E-3
4.136548319E0,1.609969735E-1,6.208801270E-2,6.488418579E-2
4.141522684E0,1.496576667E-1,6.185245514E-2,-2.971744537E-2
4.146497049E0,1.030364633E-1,3.563499451E-2,-8.049011230E-4
4.151501932E0,1.418569684E-1,2.146625519E-2,9.009361267E-3
4.156476298E0,1.166979671E-1,8.061695099E-2,7.541942596E-2
4.161450663E0,1.130187511E-1,5.429649353E-2,2.002716064E-3
4.166425028E0,7.870441675E-2,4.467487335E-2,-1.892280579E-2
4.171429911E0,1.037827432E-1,4.219722748E-2,7.360744476E-2
4.176404276E0,1.098672748E-1,-9.807586670E-3,6.152439117E-2
4.181378641E0,8.047074080E-2,4.720687866E-2,5.898571014E-2
4.186353007E0,8.672377467E-2,2.825069427E-2,6.359958649E-2
4.191327372E0,9.056425095E-2,5.666351318E-2,4.692935944E-2
4.196301737E0,1.156215370E-1,2.342319489E-2,4.382133484E-3
4.201306620E0,1.145980656E-1,6.987571716E-3,-3.073024750E-2
4.206280985E0,8.292129636E-2,4.026031494E-2,1.162118912E-1
4.211255350E0,6.562784314E-2,5.201053619E-2,8.961200714E-2
4.216229715E0,4.140004516E-2,2.117443085E-2,4.671096802E-2
4.221234598E0,7.640960813E-2,9.480476379E-3,5.373954773E-2
4.226269999E0,5.449235439E-2,2.144622803E-2,8.426284790E-2
4.231183329E0,4.224365950E-2,3.324222565E-2,-1.066207886E-2
4.236157694E0,1.357999444E-2,2.606010437E-2,-1.745128632E-2
4.241162577E0,6.539955735E-2,1.422023773E-2,1.787185669E-3
4.246136942E0,4.362857342E-2,1.191806793E-2,4.446792603E-2
4.251111307E0,1.497161388E-2,2.145767212E-2,7.737255096E-2
4.256085673E0,-1.339626312E-2,4.746627808E-2,-3.278732300E-3
4.261090555E0,3.404337168E-2,-4.590988159E-3,-1.238727570E-2
4.266064921E0,3.394520283E-2,4.056739807E-2,-4.502964020E-2
4.271039286E0,1.977515221E-2,3.101444244E-2,1.043090820E-1
4.276013651E0,5.795508623E-3,9.696960449E-3,4.698371887E-2
4.280988016E0,-2.220240235E-2,4.285335541E-2,2.318477631E-2
4.285962382E0,2.784073353E-2,1.671791077E-2,-3.110027313E-2
4.290967264E0,-1.695358753E-2,3.565216064E-2,5.670166016E-2
4.295941630E0,1.658374071E-2,4.504966736E-2,-1.667594910E-2
4.300915995E0,-6.746232510E-3,-1.880931854E-2,-2.571105957E-2
4.305890360E0,-5.341190100E-2,1.460647583E-2,-6.395339966E-3
4.310895243E0,-1.947438717E-2,-1.362991333E-2,-3.761291504E-3
4.315869608E0,-7.070600986E-3,4.566383362E-2,-6.493854523E-2
4.320843973E0,-2.300250530E-2,-8.884429932E-3,-2.887630463E-2
4.325818339E0,-4.824426770E-2,-1.338481903E-2,3.287792206E-2
4.330792704E0,-7.558953762E-2,5.301380157E-2,-4.982757568E-2
4.335797587E0,-6.960830092E-2,1.029872894E-2,-1.988410950E-3
4.340771952E0,-4.715663195E-2,4.345417023E-2,-2.303028107E-2
4.345746317E0,-1.301980019E-2,7.534027100E-4,-5.575275421E-2
4.350751200E0,-4.518929124E-2,2.448463440E-2,-5.282211304E-2
4.355695048E0,-7.244458795E-2,6.924057007E-2,-8.062553406E-2
4.360699930E0,-5.234801769E-2,1.917743683E-2,-4.448413849E-2
4.365674296E0,-2.529692650E-2,6.397533417E-2,-8.621215820E-3
4.370648661E0,-1.488214731E-2,3.050327301E-2,-6.512451172E-2
4.375623026E0,-4.931759834E-2,-9.794235229E-3,-8.814048767E-2
4.380627909E0,-7.404112816E-2,1.870059967E-2,-4.250621796E-2
4.385602274E0,-4.204487801E-2,2.809429169E-2,-1.940727234E-3
4.390576639E0,-8.587491512E-2,3.034973145E-2,-5.138778687E-2
4.395551005E0,-7.257747650E-2,-9.925842285E-3,-5.324459076E-2
4.400525370E0,-8.296334743E-2,-1.207923889E-2,-1.021575928E-2
4.405499735E0,-2.013224363E-2,1.415538788E-2,-8.316135406E-2
4.410504618E0,-6.174308062E-2,2.129077911E-2,-5.870914459E-2
4.415478983E0,-1.006516814E-1,3.540420532E-2,-1.562690735E-2
4.420453348E0,-7.076519728E-2,5.405330658E-2,-8.156967163E-2
4.425427714E0,-1.355755925E-1,1.350975037E-2,-2.423954010E-2
4.430432596E0,-7.239717245E-2,6.536483765E-2,-5.155563354E-3
4.435406962E0,-6.635838747E-2,5.819320679E-3,-5.707550049E-2
4.440381327E0,-1.146158576E-1,4.587078094E-2,-9.917354584E-2
4.445355692E0,-1.200069785E-1,2.655220032E-2,-1.078987122E-1
4.450330057E0,-1.253786087E-1,5.010604858E-3,7.226943970E-2
4.455334940E0,-1.235975027E-1,9.592056274E-3,-3.235721588E-2
4.460309305E0,-5.097472668E-2,4.477977753E-2,-5.590724945E-2
4.465283671E0,-8.750218153E-2,4.091262817E-3,-4.154682159E-2
4.470258036E0,-9.304541349E-2,-1.027297974E-2,-1.317024231E-3
4.475232401E0,-1.080539227E-1,2.736949921E-2,-3.700828552E-2
4.480237284E0,-1.418580413E-1,2.218723297E-2,-7.242584229E-2
4.485211649E0,-1.305343509E-1,2.181434631E-2,1.525402069E-2
4.490186014E0,-1.004054546E-1,9.616851807E-3,-1.244401932E-1
4.495160380E0,-6.579113007E-2,2.816200256E-2,-5.057621002E-2
4.500165262E0,-1.235225797E-1,6.422042847E-3,-8.119392395E-2
4.505139628E0,-1.194182634E-1,1.323795319E-2,-2.888011932E-2
4.510113993E0,-1.507749557E-1,2.471923828E-2,-2.184963226E-2
4.515088358E0,-8.742952347E-2,6.513595581E-4,-5.488395691E-3
4.520062723E0,-1.001126766E-1,-1.995086670E-3,-6.719398499E-2
4.525037089E0,-8.673107624E-2,1.896095276E-2,-4.107284546E-2
4.530103007E0,-1.113346815E-1,4.681587219E-2,-4.822063446E-2
4.535016337E0,-1.287610531E-1,-1.763629913E-2,-5.295658112E-2
4.539960184E0,-1.483780742E-1,1.750278473E-2,-2.707099915E-2
4.544934549E0,-1.111091375E-1,2.635860443E-2,-1.052989960E-1
4.549939432E0,-1.166146398E-1,-2.479553223E-4,-1.002349854E-1
4.554883280E0,-1.197181344E-1,8.760452271E-3,-4.801940918E-2
4.559888163E0,-1.015426517E-1,1.762199402E-2,-2.228832245E-2
4.564862528E0,-1.048182845E-1,-9.019851685E-3,-4.636478424E-2
4.569836893E0,-6.084036827E-2,-1.239776611E-5,-1.079893112E-1
4.574811258E0,-1.092286110E-1,1.363945007E-2,-9.828948975E-2
4.579816141E0,-1.359871030E-1,-2.950096130E-2,-1.316070557E-2
4.584790507E0,-7.286888361E-2,-1.094818115E-2,-5.625438690E-2
4.589764872E0,-1.093796492E-1,-6.736755371E-3,-4.708671570E-2
4.594739237E0,-7.945054770E-2,3.990745544E-2,-1.135644913E-1
4.599713602E0,-8.050501347E-2,-1.772499084E-2,-5.204200745E-2
4.604718485E0,-9.571021795E-2,-1.822853088E-2,-2.880573273E-2
4.609692850E0,-6.825888157E-2,-3.052711487E-2,-5.760192871E-3
4.614697733E0,-1.071533561E-1,-1.676177979E-2,-3.956508636E-2
4.619672098E0,-5.137807131E-2,-7.831573486E-3,3.314304352E-2
4.624646464E0,-9.283202887E-2,-8.397102356E-3,-2.456283569E-2
4.629651346E0,-9.607326984E-2,-3.018188477E-2,-6.052589417E-2
4.634625712E0,-8.281147480E-2,1.287460327E-4,-3.955364227E-2
4.639600077E0,-5.790078640E-2,2.070140839E-2,-1.644325256E-2
4.644574442E0,-7.089740038E-2,3.314018250E-3,-1.351881027E-1
4.649579325E0,-1.528108120E-2,-2.575778961E-2,-6.885528564E-2
4.654553690E0,-1.914972067E-2,-1.919841766E-2,-4.086494446E-2
4.659528055E0,-1.826870441E-2,-4.574298859E-2,-2.963256836E-2
4.664502421E0,-5.287271738E-2,-8.311271667E-3,-2.790737152E-2
4.669476786E0,-1.169782877E-2,-6.579399109E-3,-8.990573883E-2
4.674451151E0,-2.983611822E-2,-9.582519531E-3,-7.585334778E-2
4.679456034E0,-2.968668938E-3,-2.202892303E-2,-4.306411743E-2
4.684430399E0,9.504318237E-3,-8.446693420E-3,-3.892135620E-2
4.689404764E0,-3.244876862E-2,4.976272583E-3,-7.263469696E-2
4.694379130E0,-1.034647226E-2,-1.476383209E-2,-4.469490051E-2
4.699353495E0,-4.886627197E-3,-2.491950989E-2,-2.645969391E-2
4.704327860E0,1.235967875E-2,-2.554512024E-2,6.480312347E-2
4.709332743E0,1.070261002E-3,6.897926331E-3,2.549743652E-2
4.714307108E0,-1.018005610E-2,-1.760196686E-2,-2.530384064E-2
4.719281473E0,-2.452254295E-3,-3.719902039E-2,1.635456085E-2
4.724255839E0,-4.205644131E-3,-9.441375732E-3,-2.970027924E-2
4.729260721E0,2.474653721E-2,-1.732921600E-2,-4.561424255E-3
4.734235087E0,-2.919131517E-2,-4.641437531E-2,8.172416687E-2
4.739209452E0,1.643800735E-2,1.446533203E-2,-3.333091736E-2
4.744183817E0,1.444715261E-2,-6.599426270E-4,3.696441650E-3
4.749188700E0,5.970931053E-2,-2.744483948E-2,-5.634975433E-2
4.754163065E0,4.794162512E-2,2.387619019E-2,7.057094574E-2
4.759137430E0,5.506545305E-2,-2.911758423E-2,2.409362793E-2
4.764111796E0,3.142070770E-2,3.354072571E-3,1.149682999E-1
4.769116678E0,-6.140887737E-3,-3.288269043E-2,1.106815338E-1
4.774091044E0,3.214532137E-2,-7.459640503E-3,7.100296021E-2
4.779065409E0,4.042327404E-3,1.062870026E-2,-3.449344635E-2
4.784039774E0,9.420180321E-2,-3.044795990E-2,2.522468567E-3
4.789014139E0,3.486967087E-2,-7.449150085E-3,8.644199371E-2
4.793988505E0,6.811875105E-2,-2.247428894E-2,7.280349731E-2
4.798993387E0,4.923093319E-2,-1.141166687E-2,2.858066559E-2
4.803967753E0,3.051465750E-2,-4.286193848E-2,6.978607178E-2
4.808942118E0,9.454858303E-2,-4.336452484E-2,4.455280304E-2
4.813916483E0,5.657058954E-2,-3.680133820E-2,5.019092560E-2
4.818921366E0,7.554382086E-2,-2.557754517E-2,6.049823761E-2
4.823895731E0,4.709702730E-2,-2.862834930E-2,8.014488220E-2
4.828870096E0,7.790100574E-2,-1.276874542E-2,1.373977661E-1
4.833905497E0,6.832891703E-2,-4.109382629E-3,1.210107803E-1
4.838818827E0,4.230344296E-2,-1.202297211E-2,9.534549713E-2
4.843823710E0,5.903780460E-2,-1.516532898E-2,1.477689743E-1
4.848798075E0,4.026412964E-2,-6.076622009E-2,7.937049866E-2
4.853772440E0,8.063918352E-2,-3.750991821E-2,1.626453400E-1
4.858746805E0,8.999079466E-2,-3.800868988E-2,1.414127350E-1
4.863721171E0,8.274042606E-2,-5.264472961E-2,1.298246384E-1
4.868726053E0,9.677714109E-2,-3.175544739E-2,7.819843292E-2
4.873700419E0,1.060157418E-1,-4.406166077E-2,1.521406174E-1
4.878674784E0,7.981204987E-2,-2.793788910E-2,5.786418915E-2
4.883649149E0,9.159922600E-2,-3.085327148E-2,1.201457977E-1
4.888623514E0,8.438962698E-2,-4.554367065E-2,1.087360382E-1
4.893597880E0,7.957875729E-2,8.344650269E-3,1.328315735E-1
4.898602762E0,8.894538879E-2,-6.803226471E-2,1.260566711E-1
4.903577128E0,1.194068193E-1,-1.391792297E-2,1.547813416E-1
4.908551493E0,1.212484837E-1,-4.754924774E-2,1.054239273E-1
4.913525858E0,6.880307198E-2,-4.780960083E-2,1.674737930E-1
4.918530741E0,9.705239534E-2,-5.043411255E-2,1.015300751E-1
4.923505106E0,9.909343719E-2,-4.359149933E-2,8.334922791E-2
4.928479471E0,5.392360687E-2,-2.262210846E-2,1.456012726E-1
4.933453837E0,8.708322048E-2,-2.070713043E-2,9.875106812E-2
4.938428202E0,1.058368087E-1,-4.240894318E-2,1.278324127E-1
4.943402567E0,1.197170615E-1,-5.212593079E-2,1.590337753E-1
4.948407450E0,3.670579195E-2,-4.110336304E-4,1.002445221E-1
4.953381815E0,9.599399567E-2,-7.182884216E-2,1.340646744E-1
4.958356180E0,1.099420190E-1,-7.412910461E-2,1.086673737E-1
4.963361063E0,8.131289482E-2,-2.211856842E-2,1.424913406E-1
4.968335428E0,1.190533638E-1,-8.308410645E-3,1.618700027E-1
4.973309794E0,4.789334536E-2,-4.650211334E-2,1.457300186E-1
4.978284159E0,9.763199091E-2,-3.952598572E-2,1.132078171E-1
4.983258524E0,4.537957907E-2,-6.570148468E-2,1.163148880E-1
4.988263407E0,6.675624847E-2,-6.097793579E-2,1.193876266E-1
4.993237772E0,4.784369469E-2,-5.622577667E-2,1.838884354E-1
4.998212137E0,7.153558731E-2,-2.076148987E-2,1.369857788E-1
5.003186503E0,8.793103695E-2,-4.222202301E-2,1.802034378E-1
5.008160868E0,5.226933956E-2,-6.113910675E-2,1.286439896E-1
5.013135233E0,8.529621363E-2,-6.809616089E-2,1.270895004E-1
5.018140116E0,5.426001549E-2,-1.832675934E-2,8.780002594E-2
5.023114481E0,9.664952755E-2,-3.978919983E-2,1.456203461E-1
5.028088846E0,2.301824093E-2,-5.163097382E-2,1.722726822E-1
5.033063212E0,1.010840535E-1,-4.680347443E-2,1.208591461E-1
5.038068094E0,6.286430359E-2,-3.019046783E-2,8.642101288E-2
5.043042460E0,9.580278397E-2,-3.023624420E-2,1.703004837E-1
5.048016825E0,5.292886496E-2,-3.970241547E-2,1.095132828E-1
5.052991190E0,1.985776424E-2,-1.835823059E-2,8.233261108E-2
5.057965555E0,7.206791639E-2,-4.674053192E-2,1.120567322E-1
5.062939921E0,5.068749189E-2,-5.598068237E-2,1.651639938E-1
5.067944803E0,6.253975630E-2,-6.040000916E-2,1.730041504E-1
5.072919169E0,8.609741926E-2,-2.462863922E-2,1.548414230E-1
5.077893534E0,8.349686861E-2,-4.578590393E-2,6.839942932E-2
5.082867899E0,5.255204439E-2,-1.721477509E-2,1.006841660E-1
5.087872782E0,6.197130680E-2,-3.141784668E-2,1.232061386E-1
5.092816630E0,8.312338591E-2,-4.550361633E-2,1.478996277E-1
5.097821512E0,6.630581617E-2,-1.694393158E-2,1.323041916E-1
5.102795878E0,5.668592453E-2,-1.456546783E-2,3.896808624E-2
5.107770243E0,7.548099756E-2,-1.220321655E-2,1.447000504E-1
5.112744608E0,6.346178055E-2,-5.468750000E-2,6.309413910E-2
5.117749491E0,6.098735332E-2,-4.012203217E-2,5.067443848E-2
5.122723856E0,7.975065708E-2,-5.158042908E-2,7.384300232E-2
5.127698221E0,4.874283075E-2,-5.345821381E-2,1.275606155E-1
5.132672587E0,4.625535011E-2,-8.109092712E-3,7.933139801E-2
5.137738505E0,7.440739870E-2,-4.103851318E-2,7.871723175E-2
5.142651835E0,5.033594370E-2,-4.062938690E-2,8.285331726E-2
5.147626200E0,5.247986317E-2,-2.127265930E-2,5.162239075E-2
5.152600565E0,4.755377769E-2,-7.284736633E-2,4.903030396E-2
5.157574930E0,5.681061745E-2,-5.079460144E-2,1.220254898E-1
5.162549296E0,5.416208506E-2,-3.360462189E-2,1.236476898E-1
5.167554178E0,5.387973785E-2,-1.887226105E-2,4.741287231E-2
5.172528544E0,5.827695131E-2,-3.254795074E-2,6.628704071E-2
5.177502909E0,1.545155048E-2,-2.720260620E-2,4.017925262E-2
5.182477274E0,2.737349272E-2,-2.191829681E-2,5.911254883E-2
5.187451639E0,4.155278206E-2,-2.537727356E-3,8.966350555E-2
5.192426005E0,3.630518913E-3,-5.652046204E-2,3.731536865E-2
5.197430887E0,2.971714735E-2,-2.509307861E-2,8.216571808E-2
5.202405253E0,1.541322470E-2,-5.764293671E-2,9.362125397E-2
5.207379618E0,1.067054272E-2,-5.449199677E-2,1.073675156E-1
5.212353983E0,-2.231669426E-2,-2.776145935E-2,9.975147247E-2
5.217358866E0,2.053534985E-2,-1.773071289E-2,7.271766663E-3
5.222333231E0,-5.422711372E-3,-5.027484894E-2,-8.901596069E-3
5.227307596E0,1.602107286E-2,-7.076835632E-2,6.945705414E-2
5.232281962E0,2.311903238E-2,-2.023220062E-2,4.570865631E-2
5.237286844E0,1.831948757E-3,-2.200412750E-2,5.289936066E-2
5.242261210E0,4.679560661E-2,-1.792907715E-4,4.347896576E-2
5.247235575E0,4.176634550E-2,-4.231643677E-2,6.241416931E-2
5.252209940E0,5.559110641E-2,-4.631519318E-2,6.941604614E-2
5.257214823E0,7.878720760E-3,-2.424907684E-2,-1.562118530E-2
5.262189188E0,1.721715927E-2,-6.372261047E-2,7.475376129E-2
5.267163553E0,-2.075904608E-2,-2.969169617E-2,1.124439240E-1
5.272137919E0,5.226254463E-3,-7.726669312E-3,3.495216370E-3
5.277112284E0,3.095656633E-2,1.405715942E-2,4.653358459E-2
5.282086649E0,3.522771597E-2,-4.223918915E-2,8.449363708E-2
5.287091532E0,6.341218948E-3,3.480911255E-3,-5.559921265E-4
5.292065897E0,-1.288259029E-2,-1.249313354E-2,-1.636791229E-2
5.297040262E0,-1.537960768E-2,9.499549866E-3,5.300617218E-2
5.302014628E0,8.110404015E-3,-2.058029175E-2,9.588718414E-2
5.307019510E0,-1.108276844E-2,-7.914543152E-3,3.219223022E-2
5.311993876E0,2.648800611E-2,4.476833344E-2,1.623344421E-2
5.316968241E0,-4.727309942E-2,-3.043937683E-2,-1.926422119E-3
5.321942606E0,2.121371031E-2,-2.244377136E-2,1.216487885E-1
5.326916971E0,-7.609665394E-3,-3.108215332E-2,-6.078720093E-3
5.331891337E0,-2.913713455E-2,-1.816749573E-3,6.606101990E-3
5.336896219E0,-2.926415205E-2,3.646850586E-3,-2.560806274E-2
5.341870585E0,-4.118281603E-2,-3.342628479E-2,-5.283546448E-2
5.346844950E0,-1.996791363E-2,1.711082458E-2,4.286766052E-2
5.351819315E0,5.540668964E-2,1.997280121E-2,4.565811157E-2
5.356793680E0,-3.504681587E-2,-1.970195770E-2,4.839515686E-2
5.361768046E0,-3.745377064E-2,-3.433227539E-5,1.570224762E-2
5.366772928E0,-2.333641052E-2,1.477527618E-2,-1.668548584E-2
5.371747294E0,-1.636517048E-2,-1.774978638E-2,4.797458649E-2
5.376721659E0,-2.829355001E-2,4.288673401E-3,4.363727570E-2
5.381726542E0,-2.380788326E-3,7.261276245E-3,2.281665802E-2
5.386700907E0,-2.874726057E-2,7.400512695E-4,-6.630992889E-2
5.391644755E0,-1.012647152E-2,-1.753330231E-2,-5.554962158E-2
5.396649637E0,3.629684448E-3,9.223937988E-3,-7.078170776E-3
5.401624003E0,-1.600503922E-3,-9.100914001E-3,5.570411682E-3
5.406598368E0,-5.161672831E-2,8.113861084E-3,-2.676391602E-2
5.411572733E0,-2.805286646E-2,8.643150330E-3,-4.704761505E-2
5.416577616E0,4.250198603E-2,-2.387619019E-2,-3.646850586E-2
5.421551981E0,-1.967620850E-2,1.709175110E-2,1.183509827E-2
5.426526346E0,-3.410822153E-2,1.999187469E-2,3.130912781E-3
5.431500712E0,-4.136395454E-2,3.981590271E-3,-2.202510834E-2
5.436505594E0,-3.675538301E-2,2.351856232E-2,-4.696559906E-2
5.441540995E0,9.075403214E-4,-1.851940155E-2,-5.522251129E-2
5.446454325E0,-6.516158581E-3,-1.069164276E-2,-1.155090332E-2
5.451428690E0,-3.746265173E-2,2.540683746E-2,-5.321407318E-2
5.456403055E0,-2.567911148E-2,-4.911422729E-3,-1.039953232E-1
5.461377421E0,2.461910248E-3,3.109550476E-2,-9.300136566E-2
5.466382303E0,-2.732813358E-3,3.847694397E-2,-5.376815796E-2
5.471356669E0,1.106756926E-2,2.216625214E-2,8.709907532E-3
5.476331034E0,-3.190839291E-2,1.304817200E-2,-6.863403320E-2
5.481305399E0,-1.345276833E-3,-7.133483887E-4,-6.743431091E-2
5.486310282E0,-1.113915443E-2,-4.912376404E-3,-1.110897064E-1
5.491254130E0,-4.373669624E-3,-1.144599915E-2,-5.760669708E-2
5.496259012E0,7.026076317E-3,-6.117820740E-3,-7.065677643E-2
5.501233378E0,4.198634624E-2,1.566696167E-2,-6.474399567E-2
5.506207743E0,6.957411766E-2,5.381679535E-2,-1.414756775E-1
5.511182108E0,7.158160210E-3,1.851177216E-2,-6.880092621E-2
5.516186991E0,6.534993649E-3,2.832794189E-2,-8.881282806E-2
5.521161356E0,1.524716616E-2,1.209068298E-2,-1.062965393E-1
5.526135721E0,3.094696999E-2,2.669715881E-2,-4.334926605E-2
5.531110087E0,5.128425360E-2,1.755619049E-2,-5.885124207E-2
5.536084452E0,2.433860302E-2,-4.109764099E-2,-5.536651611E-2
5.541058817E0,7.080852985E-3,1.638317108E-2,-8.498573303E-2
5.546063700E0,6.461799145E-3,-2.341747284E-2,-6.716918945E-2
5.551038065E0,6.961214542E-2,3.207206726E-3,-9.199428558E-2
5.556012430E0,4.489219189E-2,2.486610413E-2,-1.308040619E-1
5.560986796E0,1.097863913E-2,-8.012771606E-3,-3.481674194E-2
5.565991678E0,4.105788469E-2,-7.589340210E-3,-1.025285721E-1
5.570966044E0,2.956390381E-5,1.409530640E-2,-9.411334991E-2
5.575940409E0,5.148100853E-2,4.738521576E-2,-1.117601395E-1
5.580914774E0,6.010806561E-2,2.136516571E-2,-1.127643585E-1
5.585889139E0,2.852600813E-2,1.444339752E-2,-1.090421677E-1
5.590894022E0,4.200017452E-2,2.646160126E-2,7.957458496E-3
5.595868387E0,1.990944147E-2,-3.244113922E-2,-5.542087555E-2
5.600842753E0,6.880176067E-2,2.245521545E-2,-9.702396393E-2
5.605817118E0,3.471052647E-2,3.695487976E-3,-7.221317291E-2
5.610791483E0,5.759984255E-2,2.515697479E-2,-6.893348694E-2
5.615796366E0,7.791382074E-2,1.101112366E-2,-1.034717560E-1
5.620770731E0,3.666496277E-2,3.949356079E-2,-7.160186768E-2
5.625745096E0,3.124010563E-2,-7.839202881E-3,-5.657291412E-2
5.630719462E0,3.530263901E-2,4.904365540E-2,-2.283573151E-2
5.635693827E0,2.509558201E-2,3.945350647E-3,-3.658866882E-2
5.640698710E0,3.621566296E-2,1.587677002E-2,-9.979820251E-2
5.645673075E0,-1.174294949E-2,-1.947975159E-2,-3.498744965E-2
5.650647440E0,1.625359058E-2,-2.937316895E-4,-3.686523438E-2
5.655621805E0,3.692811728E-2,3.518867493E-2,-7.657527924E-2
5.660596171E0,1.730090380E-2,2.082538605E-2,-1.536989212E-1
5.665601053E0,4.743182659E-2,-2.858161926E-3,-2.481079102E-2
5.670575419E0,4.190975428E-2,-9.863853455E-3,-8.116912842E-2
5.675549784E0,6.240361929E-2,2.093791962E-2,-4.502105713E-2
5.680524149E0,2.612024546E-2,1.845836639E-2,-9.885120392E-2
5.685529032E0,1.616811752E-2,1.363945007E-2,-6.725692749E-2
5.690503397E0,8.700668812E-3,3.482532501E-2,-5.242347717E-3
5.695477762E0,1.309448481E-2,8.413887024E-2,-1.694869995E-2
5.700452128E0,-5.098330975E-2,6.924152374E-2,-4.043769836E-2
5.705457010E0,-3.633677959E-3,-3.997993469E-2,-4.015159607E-2
5.710431376E0,-4.175084829E-2,-3.734874725E-2,-1.012392044E-1
5.715405741E0,1.961851120E-2,-4.420185089E-2,-1.500415802E-1
5.720380106E0,-1.623743773E-2,-3.683280945E-2,-1.016569138E-1
5.725354471E0,1.205980778E-2,5.071735382E-2,1.003265381E-2
5.730328837E0,3.780817986E-2,8.322620392E-2,-8.460426331E-2
5.735303202E0,-5.088448524E-4,4.464435577E-2,-4.153633118E-2
5.740277567E0,3.914415836E-3,1.105976105E-2,-1.546726227E-1
5.745343485E0,-2.000957727E-2,3.202247620E-2,-1.134605408E-1
5.750226298E0,-3.657877445E-2,-2.038097382E-2,-5.136775970E-2
5.755231180E0,-3.409099579E-2,1.022052765E-2,-4.886722565E-2
5.760205546E0,-5.994969606E-2,9.860038757E-3,-4.641056061E-2
5.765179911E0,-3.127473593E-2,3.313159943E-2,-5.575180054E-2
5.770184794E0,-5.243360996E-3,1.137924194E-2,-9.095573425E-2
5.775159159E0,2.527588606E-2,-1.019001007E-2,-8.101081848E-2
5.780133524E0,-1.522517204E-2,1.329612732E-2,-7.348442078E-2
5.785107889E0,-6.714522839E-2,2.006435394E-2,-4.949760437E-2
5.790082255E0,2.065843344E-2,4.795455933E-2,-5.175590515E-2
5.795117655E0,8.656084538E-3,9.470939636E-3,-1.156330109E-2
5.800092020E0,2.045750618E-2,-5.228996277E-2,-1.891326904E-2
5.805066385E0,-7.969021797E-3,9.191513062E-3,-4.039096832E-2
5.810040751E0,-3.093123436E-3,5.833530426E-2,-9.712696075E-2
5.815045633E0,-3.836518526E-2,-2.042484283E-2,-7.080078125E-2
5.820019999E0,1.869988441E-2,1.239967346E-2,-6.123733521E-2
5.824994364E0,-9.686589241E-3,-6.958961487E-3,-4.514694214E-3
5.829999247E0,1.177924871E-2,-4.913330078E-3,-2.144718170E-2
5.834973612E0,4.023790359E-2,5.136871338E-2,-6.897926331E-2
5.839917460E0,-3.068572283E-2,2.924346924E-2,-7.367324829E-2
5.844922342E0,2.826809883E-3,4.914283752E-3,-1.019649506E-1
5.849896708E0,5.263048410E-2,-1.450920105E-2,-7.102966309E-2
5.854871073E0,3.832781315E-2,2.756023407E-2,4.445075989E-3
5.859875956E0,5.013781786E-2,2.440547943E-2,1.316642761E-2
5.864850321E0,4.532730579E-2,1.525878906E-5,-3.013706207E-2
5.869824686E0,3.817456961E-2,8.897781372E-3,1.239776611E-4
5.874799051E0,9.836137295E-3,5.947113037E-3,8.938789368E-3
5.879773417E0,1.474851370E-2,-2.764987946E-2,-6.491661072E-2
5.884778299E0,2.433907986E-2,-4.339218140E-3,-8.357048035E-3
5.889752665E0,5.528807640E-3,-2.505302429E-3,-5.617713928E-2
5.894727030E0,7.185572386E-2,-3.843402863E-2,-2.331447601E-2
5.899701395E0,7.846474648E-3,-1.030540466E-2,3.054332733E-2
5.904706278E0,2.463108301E-2,-3.434658051E-2,2.493476868E-2
5.909680643E0,-1.066237688E-2,-6.253242493E-3,-3.963851929E-2
5.914655008E0,7.942652702E-2,2.721786499E-3,1.671600342E-2
5.919629374E0,5.311971903E-2,-2.562522888E-3,3.952693939E-2
5.924634257E0,5.781203508E-2,2.052211761E-2,3.145217896E-2
5.929578104E0,5.299645662E-2,-8.489608765E-3,-3.317451477E-2
5.934582987E0,1.749461889E-2,-1.132202148E-2,2.073478699E-2
5.939557352E0,1.050142050E-1,4.722595215E-2,-6.084442139E-3
5.944531717E0,1.021257043E-1,-2.216243744E-2,3.816127777E-2
5.949536600E0,9.933245182E-2,3.887748718E-2,6.519317627E-3
5.954510965E0,5.407333374E-2,-1.863574982E-2,8.168220520E-3
5.959485331E0,7.295155525E-2,-2.512931824E-3,6.879234314E-2
5.964459696E0,6.095981598E-2,-4.084014893E-2,6.136894226E-3
5.969434061E0,1.009750366E-1,-2.693939209E-2,7.712364197E-3
5.974438944E0,6.512147188E-2,4.115676880E-2,-4.499721527E-2
5.979413309E0,2.014297247E-2,2.371025085E-2,2.548408508E-2
5.984387674E0,4.406386614E-2,-5.414962769E-3,1.745223999E-2
5.989362040E0,2.296417952E-2,-2.483081818E-2,6.380653381E-2
5.994366923E0,1.154018641E-1,-1.814079285E-2,4.364967346E-2
5.999341288E0,4.418379068E-2,-6.804466248E-3,9.445571899E-2
6.004315653E0,7.033771276E-2,-2.851486206E-4,1.259527206E-1
6.009290018E0,6.796878576E-2,-1.978588104E-2,3.443622589E-2
6.014294901E0,8.682477474E-2,-4.382801056E-2,1.452159882E-2
6.019269266E0,8.661442995E-2,-4.172134399E-2,5.140686035E-2
6.024243632E0,8.408844471E-2,-1.604843140E-2,9.267902374E-2
6.029217997E0,5.096840858E-2,-4.483604431E-2,7.700347900E-2
6.034192362E0,3.703767061E-2,2.222061157E-3,6.625652313E-2
6.039197245E0,6.566983461E-2,-1.010894775E-2,9.103107452E-2
6.044171610E0,2.786219120E-2,-1.525783539E-2,1.226854324E-1
6.049207010E0,3.989958763E-2,-5.341911316E-2,1.715660095E-2
6.054120340E0,6.978452206E-3,-4.163455963E-2,1.226634979E-1
6.059094706E0,1.325384974E-1,-4.881668091E-2,1.328859329E-1
6.064099589E0,6.358093023E-2,2.193737030E-2,6.509017944E-2
6.069073954E0,3.303480148E-2,2.428054810E-3,1.041116714E-1
6.074048319E0,5.064010620E-3,-1.219654083E-2,1.074047089E-1
6.079022684E0,1.975536346E-2,1.105022430E-2,5.399703979E-2
6.083997049E0,8.866477013E-2,-3.909492493E-2,9.070777893E-2
6.089001932E0,4.141944647E-2,3.235816956E-3,1.058578491E-1
6.093976298E0,3.475713730E-2,-1.137161255E-2,1.658086777E-1
6.098950663E0,4.935222864E-2,-3.759574890E-2,1.852102280E-1
6.103925028E0,4.487663507E-2,-2.347183228E-2,9.586811066E-2
6.108899393E0,3.102135658E-2,-2.130985260E-2,1.228857040E-1
6.113904276E0,2.676713467E-2,-1.210975647E-2,1.284008026E-1
6.118878641E0,7.215893269E-2,-2.186870575E-2,1.362314224E-1
6.123853007E0,4.631680250E-2,-2.686595917E-2,1.179838181E-1
6.128827372E0,4.126369953E-3,-3.894519806E-2,1.022014618E-1
6.133832255E0,3.317719698E-2,-1.077461243E-2,1.219778061E-1
6.138806620E0,7.623124123E-2,-6.419181824E-3,6.607437134E-2
6.143780985E0,1.748692989E-2,-2.336597443E-2,5.309677124E-2
6.148755350E0,2.532726526E-2,-1.656627655E-2,4.730892181E-2
6.153760233E0,4.012471437E-2,-5.233764648E-2,6.987094879E-2
6.158734598E0,-1.363337040E-2,-2.645206451E-2,8.986473083E-2
6.163708964E0,2.280437946E-2,-6.213378906E-2,9.319210052E-2
6.168683329E0,3.056514263E-2,-1.251792908E-2,1.484508514E-1
6.173657694E0,2.169030905E-2,1.078224182E-2,1.041841507E-1
6.178632059E0,1.756346226E-2,-4.628658295E-2,1.076002121E-1
6.183636942E0,2.520966530E-2,-3.696441650E-3,1.039581299E-1
6.188611307E0,-2.865552902E-2,-2.049636841E-2,1.380949020E-1
6.193585673E0,-2.544444799E-2,-2.297306061E-2,1.153192520E-1
6.198560038E0,-1.753896475E-2,-4.420661926E-2,1.070241928E-1
6.203564921E0,-7.266104221E-3,-3.215026855E-2,1.012306213E-1
6.208539286E0,-3.237617016E-2,-3.435420990E-2,6.715488434E-2
6.213513651E0,-3.600680828E-2,-3.183841705E-2,1.230392456E-1
6.218488016E0,-5.381774902E-2,-3.644752502E-2,8.165073395E-2
6.223462382E0,2.525609732E-2,-2.209281921E-2,1.256399155E-1
6.228436747E0,4.477143288E-3,-3.850460052E-2,5.836677551E-2
6.233441630E0,-3.503918648E-2,1.805305481E-3,1.048822403E-1
6.238415995E0,-3.407967091E-2,-5.506706238E-2,7.539558411E-2
6.243390360E0,-3.553164005E-2,-1.232147217E-2,6.740188599E-2
6.248364725E0,-2.049040794E-2,-7.679939270E-3,6.894588470E-2
6.253369608E0,-2.679431438E-2,4.047393799E-3,7.996749878E-2
6.258343973E0,-1.651215553E-2,-1.501274109E-2,5.784606934E-2
6.263318339E0,-8.421856165E-2,-3.627586365E-2,4.770946503E-2
6.268292704E0,-4.040277004E-2,-5.263710022E-2,3.294086456E-2
6.273297587E0,-7.476562262E-2,-3.819084167E-2,5.367851257E-2
6.278271952E0,4.503428936E-3,-4.508781433E-2,1.002330780E-1
6.283246317E0,-2.786332369E-2,-2.356052399E-2,-1.170825958E-2
6.288220682E0,-4.350525141E-2,-2.818012238E-2,2.836132050E-2
6.293195048E0,-5.903851986E-2,2.647399902E-3,3.741168976E-2
6.298169413E0,-3.436380625E-2,-2.337360382E-2,3.229999542E-2
6.303174296E0,-7.367753983E-2,-5.855941772E-2,2.730655670E-2
6.308148661E0,-4.418540001E-2,-1.317024231E-2,2.946186066E-2
6.313123026E0,-4.090082645E-2,-6.260108948E-2,1.033020020E-2
6.318127909E0,-6.598865986E-2,-3.133964539E-2,5.548477173E-3
6.323102274E0,-3.424280882E-2,-1.918125153E-2,6.695270538E-2
6.328076639E0,-5.467623472E-2,-9.486198425E-3,4.050254822E-2
6.333051005E0,-4.422682524E-2,-3.523635864E-2,8.041954041E-2
6.338055887E0,-4.332482815E-2,7.706642151E-3,4.213333130E-2
6.342999735E0,-5.430757999E-2,7.777214050E-3,8.203983307E-2
6.347974100E0,-6.531137228E-2,-3.934478760E-2,6.499195099E-2
6.353040018E0,-4.319518805E-2,-4.115772247E-2,8.829593658E-2
6.357953348E0,-6.844198704E-2,-3.109550476E-2,4.537582397E-2
6.362927714E0,-4.628831148E-2,4.894256592E-3,8.312606812E-2
6.367902079E0,-4.794204235E-2,9.899139404E-3,7.571506500E-2
6.372906962E0,-4.957598448E-2,-3.474998474E-2,6.359672546E-2
6.377881327E0,-1.581513882E-2,3.567695618E-3,5.627346039E-2
6.382855692E0,-4.607868195E-2,-8.008003235E-3,9.857940674E-2
6.387830057E0,-1.705884933E-2,2.066230774E-2,6.737804413E-2
6.392804423E0,-3.556013107E-2,-5.179405212E-3,1.072826385E-1
6.397809305E0,-4.216784239E-2,-4.734992981E-2,8.073997498E-2
6.402783671E0,-4.397106171E-2,-5.142116547E-2,3.786849976E-2
6.407758036E0,-1.502490044E-2,-2.951145172E-2,8.502769470E-2
6.412732401E0,-2.876704931E-2,1.679420471E-3,7.044219971E-2
6.417706766E0,2.434611320E-3,4.326820374E-3,8.199691772E-2
6.422681132E0,5.003035069E-3,-1.306533813E-4,7.929325104E-2
6.427686014E0,4.400610924E-4,-6.891250610E-3,1.002445221E-1
6.432660380E0,-3.250676394E-2,2.965927124E-3,1.092700958E-1
6.437634745E0,-3.898382187E-3,-1.084709167E-2,4.271125793E-2
6.442609110E0,2.204328775E-2,-1.033973694E-2,1.514425278E-1
6.447583475E0,1.706439257E-2,1.381301880E-2,4.923248291E-2
6.452588358E0,1.450854540E-2,9.441375732E-3,9.659004211E-2
6.457562723E0,3.085482121E-2,-3.030776978E-2,8.217334747E-2
6.462537089E0,3.528374434E-2,5.790710449E-3,4.660511017E-2
6.467511454E0,3.962898254E-2,-1.034450531E-2,1.175594330E-1
6.472516337E0,-1.003563404E-3,-2.630138397E-2,1.100845337E-1
6.477490702E0,-3.596186638E-3,2.400875092E-2,1.168851852E-1
6.482465067E0,1.505255699E-2,7.209777832E-4,5.753326416E-2
6.487439432E0,4.296308756E-2,-4.598045349E-2,6.477069855E-2
6.492413798E0,1.396226883E-2,-4.504108429E-2,1.168498993E-1
6.497388163E0,1.829755306E-2,-3.464412689E-2,6.701469421E-2
6.502393046E0,6.506395340E-2,-3.613281250E-2,-8.366584778E-3
6.507336893E0,2.765476704E-3,-6.358528137E-2,4.906558990E-2
6.512341776E0,-5.245208740E-6,3.642082214E-3,1.013336182E-1
6.517316141E0,1.615548134E-2,8.931159973E-3,1.508007050E-1
6.522290507E0,6.215512753E-3,7.094383240E-3,8.182716370E-2
6.527264872E0,-4.620039463E-2,1.473522186E-2,5.594635010E-2
6.532269755E0,-6.185173988E-3,3.884029388E-2,7.986164093E-2
6.537244120E0,-1.370716095E-2,3.728866577E-3,9.177207947E-2
6.542218485E0,1.893377304E-2,-4.281997681E-4,3.982067108E-2
6.547192850E0,3.715723753E-2,9.590148926E-3,6.853294373E-2
6.552167215E0,1.035678387E-2,-1.114082336E-2,-4.471778870E-3
6.557141581E0,2.578198910E-3,1.319408417E-2,7.426452637E-2
6.562146464E0,-4.765534401E-2,4.677200317E-2,3.432178497E-2
6.567120829E0,2.768212557E-2,2.165794373E-3,6.787967682E-2
6.572095194E0,3.164803982E-2,4.243850708E-4,6.102752686E-2
6.577069559E0,4.028469324E-2,-1.078605652E-2,4.474163055E-2
6.582043924E0,-8.121728897E-4,1.114273071E-2,2.689361572E-4
6.587018290E0,1.978623867E-2,-9.579658508E-3,3.404617310E-3
6.592023173E0,1.186090708E-2,3.122806549E-2,-5.724048615E-2
6.596997538E0,1.819443703E-2,-1.483917236E-3,1.480579376E-2
6.601971903E0,5.048447847E-2,2.039146423E-2,-4.119586945E-2
6.606946268E0,1.881325245E-2,3.734207153E-2,3.543186188E-2
6.611951151E0,4.877692461E-2,1.872539520E-2,2.642059326E-2
6.616925516E0,2.176886797E-2,2.622318268E-2,-1.084518433E-2
6.621899882E0,-9.663581848E-3,1.005649567E-2,1.357269287E-2
6.626874247E0,1.823449135E-2,1.059532166E-2,1.187324524E-2
6.631848612E0,3.169822693E-2,-1.951313019E-2,-3.932952881E-2
6.636822977E0,4.977506399E-2,1.198387146E-2,-5.944252014E-2
6.641827860E0,3.936731815E-2,1.725482941E-2,-4.161548615E-2
6.646802225E0,6.917530298E-2,-1.529216766E-2,-3.574657440E-2
6.651776590E0,7.510817051E-2,5.865764618E-2,-4.172801971E-2
6.656811991E0,7.619434595E-2,8.010959625E-2,-4.759502411E-2
6.661725321E0,7.726210356E-2,-9.560585022E-3,-3.216457367E-2
6.666699686E0,2.642691135E-2,2.187156677E-2,-6.411552429E-2
6.671704569E0,5.624860525E-2,1.763725281E-2,-9.815406799E-2
6.676678934E0,6.215608120E-2,1.105308533E-2,-1.626777649E-2
6.681653299E0,9.400999546E-2,2.098560333E-2,-3.664207458E-2
6.686627665E0,9.965801239E-2,2.375602722E-2,-3.088092804E-2
6.691632548E0,1.524448991E-1,2.965927124E-3,-5.813312531E-2
6.696606913E0,4.427772760E-2,5.560874939E-2,-9.214401245E-2
6.701581278E0,1.116926074E-1,-7.724761963E-4,-7.629966736E-2
6.706555643E0,8.646285534E-2,1.883220673E-2,-1.196260452E-1
6.711530008E0,6.379950047E-2,-1.370334625E-2,-5.641841888E-2
6.716504374E0,9.802520275E-2,3.894996643E-2,-4.102611542E-2
6.721509257E0,1.319661140E-1,1.567554474E-2,-7.763671875E-2
6.726483622E0,9.960478544E-2,4.417419434E-3,-5.490970612E-2
6.731457987E0,1.290104389E-1,6.875419617E-2,-2.298164368E-2
6.736432352E0,1.393122673E-1,2.163219452E-2,-8.335685730E-2
6.741406717E0,1.140943170E-1,5.588531494E-3,-3.464317322E-2
6.746381083E0,1.504179835E-1,2.504348755E-2,-2.415180206E-2
6.751385965E0,1.226831675E-1,4.190444946E-3,-7.514095306E-2
6.756360331E0,1.046497226E-1,-4.666328430E-3,-1.020793915E-1
6.761334696E0,1.128046513E-1,-1.600265503E-3,-2.015876770E-2
6.766309061E0,1.374157667E-1,5.101203918E-2,-1.681804657E-2
6.771283426E0,1.216163039E-1,1.815891266E-2,-8.201313019E-2
6.776257792E0,1.484131813E-1,4.929161072E-2,-3.338336945E-2
6.781262674E0,1.466608644E-1,5.894660950E-2,-3.705978394E-2
6.786237040E0,1.212520599E-1,1.029968262E-4,-6.662273407E-2
6.791211405E0,9.839731455E-2,2.909183502E-2,-9.357643127E-2
6.796185770E0,8.524703979E-2,3.419303894E-2,-9.411811829E-3
6.801190653E0,6.039994955E-2,3.689575195E-2,-2.744674683E-2
6.806165018E0,1.183574200E-1,3.253173828E-2,3.025245667E-2
6.811139383E0,1.428101659E-1,4.003047943E-2,-1.164722443E-2
6.816113749E0,1.033961773E-1,3.802680969E-2,-1.543045044E-2
6.821088114E0,7.853800058E-2,5.724239349E-2,4.367828369E-3
6.826062479E0,9.163039923E-2,2.429962158E-2,-2.040863037E-3
6.831067362E0,5.497032404E-2,2.463722229E-2,2.460765839E-2
6.836041727E0,6.819015741E-2,2.971172333E-2,-3.236770630E-3
6.841016092E0,1.073385477E-1,1.588344574E-2,2.222061157E-3
6.845990458E0,5.889981985E-2,2.571678162E-2,-6.089591980E-2
6.850995340E0,8.166497946E-2,2.365016937E-2,-5.504989624E-2
6.855969706E0,9.475362301E-2,2.867794037E-2,2.864360809E-2
6.860944071E0,7.711064816E-2,3.838443756E-2,-6.391525269E-3
6.865918436E0,7.624995708E-2,1.258182526E-2,-5.532932281E-2
6.870892801E0,7.310801744E-2,1.528072357E-2,-1.893138885E-2
6.875897684E0,3.453922272E-2,3.207969666E-2,-3.717517853E-2
6.880872049E0,3.396767378E-2,4.160881042E-2,-8.836555481E-2
6.885846415E0,4.994642735E-2,2.745246887E-2,7.224082947E-3
6.890820780E0,-4.934966564E-3,2.049732208E-2,-4.211425781E-3
6.895795145E0,3.980576992E-2,3.248500824E-2,-1.241397858E-1
6.900769510E0,3.925120831E-2,4.203128815E-2,-9.668827057E-2
6.905743876E0,1.743441820E-2,1.611137390E-2,-1.750564575E-2
6.910718241E0,4.778230190E-2,2.577495575E-2,-3.817653656E-2
6.915692606E0,4.750609398E-3,1.171207428E-2,5.009651184E-3
6.920666971E0,4.472595453E-2,6.388568878E-2,-4.892063141E-2
6.925641337E0,-5.315184593E-3,5.663204193E-2,-3.628349304E-2
6.930646219E0,1.752674580E-3,-1.429653168E-2,-4.499816895E-2
6.935620585E0,-1.014411449E-2,2.397060394E-2,-1.348686218E-2
6.940594950E0,-1.730728149E-2,2.653312683E-2,-2.233695984E-2
6.945569315E0,-2.204293013E-2,3.379821777E-2,-2.638912201E-2
6.950574198E0,-4.560309649E-2,3.156280518E-2,-3.984832764E-2
6.955548563E0,-2.827167511E-3,5.526638031E-2,-7.685756683E-2
6.960583964E0,-2.875173092E-2,5.279064178E-2,-6.873416901E-2
6.965497294E0,-1.190680265E-2,3.618526459E-2,-2.289772034E-2
6.970471659E0,-5.895811319E-2,2.678203583E-2,-5.772113800E-2
6.975476542E0,-6.557506323E-2,9.355545044E-4,9.258270264E-3
6.980481424E0,-6.507700682E-2,6.498432159E-2,-4.945468903E-2
6.985455790E0,-8.339887857E-2,1.517009735E-2,5.598068237E-3
6.990430155E0,-5.427044630E-2,1.302528381E-2,2.482986450E-2
6.995404520E0,-5.839645863E-2,2.272033691E-2,1.431465149E-3
7.000378885E0,-8.611553907E-2,-5.434989929E-3,-3.357410431E-2
7.005353251E0,-3.335881233E-2,5.868816376E-2,3.555583954E-2
7.010358133E0,-8.490550518E-2,3.255653381E-2,-1.630115509E-2
7.015332499E0,-8.875149488E-2,3.494358063E-2,-2.526950836E-2
7.020306864E0,-4.061120749E-2,4.911422729E-2,-2.000141144E-2
7.025281229E0,-7.324272394E-2,5.612754822E-2,1.124477386E-2
7.030255594E0,-1.127374172E-2,3.711318970E-2,-2.565383911E-4
7.035229960E0,-6.785261631E-2,4.179668427E-2,-1.882076263E-2
7.040234842E0,-7.436722517E-2,5.111980438E-2,-2.547836304E-2
7.045209208E0,-6.427836418E-2,7.455062866E-2,9.918212891E-4
7.050183573E0,-8.733940125E-2,1.516819000E-2,-6.245803833E-2
7.055157938E0,-1.125909090E-1,8.606815338E-2,5.869579315E-2
7.060162821E0,-6.911045313E-2,5.013179779E-2,-5.016231537E-2
7.065106669E0,-8.499246836E-2,3.103542328E-2,-1.174068451E-2
7.070111551E0,-1.408931613E-1,3.334522247E-2,-1.612472534E-2
7.075085917E0,-4.050594568E-2,2.855396271E-2,1.493549347E-2
7.080060282E0,-5.185735226E-2,3.562736511E-2,6.228351593E-2
7.085065165E0,-1.032178998E-1,2.609920502E-2,1.479148865E-2
7.090039530E0,-1.282112002E-1,5.203437805E-2,2.432155609E-2
7.095013895E0,-1.365016699E-1,2.581882477E-2,7.390022278E-2
7.099988260E0,-9.989386797E-2,2.814769745E-2,2.678871155E-3
7.104962626E0,-8.714556694E-2,2.807807922E-2,1.700496674E-2
7.109936991E0,-4.377621412E-2,4.453182220E-2,-6.561279297E-3
7.114941874E0,-5.985373259E-2,-9.948730469E-3,2.675056458E-2
7.119916239E0,-9.706485271E-2,1.153945923E-2,-3.230285645E-2
7.124890604E0,-8.675503731E-2,-1.676654816E-2,-2.481937408E-2
7.129864969E0,-7.893854380E-2,3.067874908E-2,-1.506137848E-2
7.134839335E0,-5.233144760E-2,1.637268066E-2,-1.952457428E-2
7.139844217E0,-9.910547733E-2,3.287315369E-2,1.617717743E-2
7.144818583E0,-1.029785872E-1,1.618766785E-2,2.325344086E-2
7.149792948E0,-8.559960127E-2,2.090549469E-2,9.051322937E-3
7.154767313E0,-4.480636120E-2,3.264331818E-2,1.618862152E-2
7.159741678E0,-8.933305740E-2,3.009796143E-2,-2.725601196E-3
7.164716044E0,-2.957719564E-2,6.300544739E-2,-2.573966980E-3
7.169720926E0,-7.654416561E-2,3.898620605E-2,3.534603119E-2
7.174695292E0,-8.304142952E-2,4.580783844E-2,3.513050079E-2
7.179669657E0,-6.590789557E-2,-1.701354980E-3,-4.531860352E-2
7.184644022E0,-1.339012980E-1,4.326725006E-2,3.308391571E-2
7.189618387E0,-3.372836113E-2,7.129383087E-2,-4.737567902E-2
7.194592753E0,-7.366245985E-2,3.764820099E-2,2.147483826E-2
7.199597635E0,-8.727318048E-2,6.797504425E-2,3.068733215E-2
7.204572001E0,-4.170894623E-2,1.071071625E-2,-1.211071014E-2
7.209546366E0,-7.912212610E-2,5.311012268E-2,-3.089809418E-2
7.214520731E0,-5.723881721E-2,4.326438904E-2,-4.629135132E-3
7.219495096E0,-8.041375875E-2,8.538818359E-2,4.846572876E-3
7.224469462E0,-2.075052261E-2,2.561569214E-2,-2.330780029E-3
7.229474344E0,-5.128914118E-2,3.481674194E-2,1.890182495E-2
7.234448710E0,-1.784181595E-2,1.797389984E-2,4.548072815E-3
7.239423075E0,-2.478450537E-2,-5.833625793E-3,3.749752045E-2
7.244397440E0,-4.588359594E-2,6.967639923E-2,-2.191543579E-2
7.249371805E0,-2.903431654E-2,3.595161438E-2,-7.849693298E-2
7.254346171E0,-1.227074862E-2,5.208396912E-2,-4.962635040E-2
7.259351053E0,-1.214516163E-2,6.707191467E-3,-1.391506195E-2
7.264386454E0,-3.799426556E-2,-5.247116089E-3,-2.807617188E-2
7.269299784E0,-2.352774143E-2,4.142761230E-3,3.342056274E-2
7.274274149E0,-2.808421850E-2,1.345443726E-2,-4.736900330E-3
7.279248514E0,-3.259909153E-2,5.335617065E-2,4.610061646E-3
7.284222880E0,-3.465461731E-2,7.404041290E-2,3.747940063E-2
7.289227762E0,-3.665304184E-2,2.137184143E-2,-7.828712463E-3
7.294202128E0,-3.627103567E-2,9.251594543E-3,-7.874870300E-2
7.299176493E0,-9.922146797E-3,3.972434998E-2,-3.813076019E-2
7.304150858E0,6.761610508E-3,2.981281281E-2,-5.450630188E-2
7.309155741E0,1.388281584E-2,-1.285552979E-3,-3.772640228E-2
7.314130106E0,-1.682865620E-2,2.216720581E-2,2.848529816E-2
7.319104471E0,-9.537220001E-3,5.014610291E-2,4.446029663E-3
7.324078837E0,-7.049202919E-3,-7.088661194E-3,-3.119468689E-2
7.329053202E0,4.968225956E-2,2.349090576E-2,3.024291992E-2
7.334027567E0,5.400925875E-2,1.366519928E-2,-6.229305267E-2
7.339032450E0,-2.903342247E-2,3.697109222E-2,-6.671619415E-2
7.344006815E0,1.372855902E-2,3.173637390E-2,-5.029678345E-3
7.348981180E0,2.320253849E-2,5.249309540E-2,-3.122711182E-2
7.353955546E0,4.364788532E-3,3.295040131E-2,-2.888202667E-2
7.358929911E0,-7.263660431E-3,3.011322021E-2,2.067852020E-2
7.363904276E0,3.079462051E-2,2.965831757E-2,-3.354072571E-3
7.368909159E0,-4.679858685E-3,1.263999939E-2,3.452301025E-3
7.373883524E0,5.680745840E-2,9.903907776E-3,-6.340980530E-3
7.378857889E0,2.571725845E-2,4.965782166E-2,-3.732490540E-2
7.383832255E0,2.566707134E-2,1.116371155E-2,9.819984436E-3
7.388806620E0,4.690951109E-2,-3.381729126E-3,-2.417564392E-3
7.393780985E0,7.979977131E-2,2.942657471E-2,-3.662109375E-4
7.398785868E0,-1.035755873E-2,7.644653320E-3,-5.737400055E-2
7.403760233E0,3.943896294E-2,3.323364258E-2,-5.255317688E-2
7.408734598E0,2.040791512E-2,-2.743721008E-3,4.667377472E-2
7.413708964E0,4.642933607E-2,3.003501892E-2,-6.004333496E-3
7.418683329E0,3.918999434E-2,3.655433655E-2,-8.696556091E-3
7.423657694E0,7.214063406E-2,2.885627747E-2,-3.261184692E-2
7.428632059E0,9.539657831E-2,2.362632751E-2,3.106307983E-2
7.433606424E0,7.360816002E-2,6.680488586E-3,9.278297424E-3
7.438611307E0,3.541314602E-2,4.015922546E-3,2.305984497E-2
7.443585673E0,8.485430479E-2,4.382133484E-2,3.631591797E-3
7.448560038E0,8.907657862E-2,3.134155273E-2,5.515384674E-2
7.453534403E0,7.208341360E-2,-1.882457733E-2,-1.653194427E-2
7.458508768E0,8.596605062E-2,4.583358765E-3,-2.667427063E-3
7.463483133E0,5.252546072E-2,-5.249977112E-3,-3.848934174E-2
7.468488016E0,1.090374589E-1,4.400825500E-2,-3.860855103E-2
7.473462382E0,8.954304457E-2,-2.042579651E-2,-6.230258942E-2
7.478436747E0,5.369424820E-2,-1.112174988E-2,2.989673615E-2
7.483411112E0,6.301611662E-2,-1.915931702E-3,-4.157733917E-2
7.488385477E0,6.043595076E-2,-4.632949829E-3,4.565238953E-2
7.493359842E0,6.019079685E-2,6.834030151E-3,2.357101440E-2
7.498364725E0,5.761039257E-2,2.764606476E-2,4.888057709E-2
7.503339090E0,6.919157505E-2,-1.072692871E-2,6.218147278E-2
7.508313456E0,6.648755074E-2,1.973915100E-2,4.239940643E-2
7.513287821E0,5.207175016E-2,5.146026611E-3,3.699302673E-2
7.518262186E0,4.731208086E-2,1.411437988E-4,4.817867279E-2
7.523236551E0,4.023140669E-2,-1.428604126E-2,1.040964127E-1
7.528241434E0,-2.348911762E-2,4.217720032E-2,6.035327911E-2
7.533215799E0,6.678855419E-2,3.920555115E-2,2.866744995E-3
7.538190165E0,1.091369390E-1,4.336643219E-2,6.863594055E-2
7.543164530E0,4.726397991E-2,-6.801605225E-3,7.012176514E-2
7.548169413E0,6.618553400E-2,2.136516571E-2,1.023035049E-1
7.553113260E0,5.662131310E-2,-3.097915649E-2,4.685592651E-2
7.558118143E0,8.494055271E-2,1.855087280E-2,2.956008911E-2
7.563092508E0,5.171120167E-2,-1.260948181E-2,1.091642380E-1
7.568127909E0,3.766715527E-2,-5.724906921E-3,1.580142975E-2
7.573041239E0,2.373415232E-2,1.997566223E-2,1.026067734E-1
7.578015604E0,5.480390787E-2,-1.591396332E-2,8.954238892E-2
7.583020487E0,6.677758694E-2,4.059886932E-2,6.719017029E-2
7.587994852E0,3.614979982E-2,9.321212769E-3,5.449008942E-2
7.592969217E0,6.008768082E-2,-5.195617676E-3,4.894924164E-2
7.597943583E0,2.248072624E-2,1.343822479E-2,5.995464325E-2
7.602917948E0,5.598604679E-2,-3.512382507E-3,6.376457214E-2
7.607922831E0,6.327587366E-2,3.156757355E-2,6.748867035E-2
7.612897196E0,5.402392149E-2,-3.278541565E-2,1.136732101E-1
7.617871561E0,4.253524542E-2,-4.495620728E-3,7.690334320E-2
7.622845926E0,5.713379383E-2,-9.466171265E-3,8.767604828E-2
7.627820292E0,7.630664110E-2,2.101135254E-2,1.573944092E-2
7.632794657E0,3.864079714E-2,-1.250076294E-2,9.547710419E-2
7.637799540E0,4.614359140E-2,1.518249512E-3,4.948997498E-2
7.642773905E0,3.703773022E-2,1.546669006E-2,3.698921204E-2
7.647748270E0,3.277957439E-2,-2.501201630E-2,6.469726562E-2
7.652722635E0,4.276335239E-2,-2.264213562E-2,6.859111786E-2
7.657697001E0,9.512901306E-2,1.747512817E-2,3.704452515E-2
7.662671366E0,1.484149694E-2,1.238536835E-2,6.710910797E-2
7.667676249E0,5.323338509E-2,-2.096843719E-2,2.849197388E-2
7.672650614E0,4.407227039E-2,-2.095127106E-2,1.035594940E-1
7.677624979E0,3.262674809E-2,-9.066581726E-3,3.644466400E-2
7.682599344E0,3.784346581E-2,-1.380538940E-2,1.709651947E-2
7.687573710E0,6.431281567E-2,-4.359245300E-3,9.702777863E-2
7.692548075E0,4.576581717E-2,-4.408836365E-3,1.291093826E-1
7.697552958E0,4.383742809E-2,-2.334308624E-2,4.289913177E-2
7.702527323E0,3.238779306E-2,-9.094238281E-3,1.297073364E-1
7.707501688E0,3.047174215E-2,-2.046585083E-3,2.222537994E-2
7.712476053E0,2.856767178E-2,4.962921143E-3,1.092281342E-1
7.717450419E0,5.502784252E-2,-2.345180511E-2,8.933067322E-2
7.722424784E0,4.824531078E-2,1.925277710E-2,5.315113068E-2
7.727429667E0,-1.512604952E-2,3.325557709E-2,1.305561066E-1
7.732404032E0,-2.487540245E-3,-4.837036133E-3,6.563186646E-2
7.737378397E0,3.830426931E-2,1.410484314E-2,7.686519623E-2
7.742352762E0,1.733887196E-2,4.583358765E-3,5.262470245E-2
7.747327128E0,3.667366505E-2,2.200126648E-3,8.993434906E-2
7.752301493E0,2.754223347E-2,-1.904773712E-2,1.835861206E-1
7.757306376E0,2.555060387E-2,-2.359485626E-2,1.348257065E-1
7.762280741E0,-2.838623524E-2,-1.392078400E-2,7.941436768E-2
7.767255106E0,-2.517384291E-2,2.734184265E-3,1.401052475E-1
7.772229471E0,-5.438745022E-3,3.811550140E-2,4.682826996E-2
7.777234354E0,-2.139246464E-2,1.892662048E-2,1.502828598E-1
7.782208719E0,-4.437083006E-2,-1.193046570E-2,5.456542969E-2
7.787183085E0,-3.406310081E-2,3.305244446E-2,1.178522110E-1
7.792157450E0,-1.671248674E-2,1.399135590E-2,9.334564209E-2
7.797131815E0,4.469156265E-4,-7.251739502E-3,1.233634949E-1
7.802136698E0,-1.328569651E-2,-2.593517303E-2,1.106719971E-1
7.807111063E0,-4.111319780E-2,-6.673812866E-3,7.450771332E-2
7.812085428E0,-3.570812941E-2,-4.097938538E-3,8.113574982E-2
7.817059794E0,-2.319788933E-2,-2.986907959E-2,5.937862396E-2
7.822034159E0,-3.198999166E-2,2.959918976E-2,1.181116104E-1
7.827008524E0,4.141926765E-3,-5.827903748E-3,8.195877075E-2
7.832013407E0,-1.668161154E-2,4.399871826E-2,5.552291870E-2
7.836987772E0,-4.446339607E-2,-8.075714111E-3,9.778976440E-2
7.841962137E0,-2.017527819E-2,-1.012611389E-2,1.373720169E-1
7.846936503E0,-5.281132460E-2,-3.366470337E-4,7.987022400E-2
7.851910868E0,-6.864798069E-2,-3.781700134E-2,5.356121063E-2
7.856915751E0,-5.597341061E-2,2.874374390E-3,9.823894501E-2
7.861890116E0,-5.990862846E-2,2.434158325E-2,8.588790894E-2
7.866864481E0,-6.384050846E-2,-1.334381104E-2,7.132816315E-2
7.871899882E0,-6.298923492E-2,-1.138687134E-3,4.745197296E-2
7.876813212E0,-6.687009335E-2,4.636764526E-2,1.904678345E-2
7.881818094E0,-7.548105717E-2,8.523941040E-3,1.042175293E-1
7.886792460E0,-5.336004496E-2,-1.954460144E-2,6.359291077E-2
7.891766825E0,-6.449252367E-2,-1.667118073E-2,4.693889618E-2
7.896741190E0,-3.778862953E-2,1.214313507E-2,8.471679688E-2
7.901715555E0,-4.201972485E-2,5.251884460E-2,7.260799408E-2
7.906689921E0,-6.280797720E-2,7.576942444E-3,9.837245941E-2
7.911694803E0,-1.029205322E-2,-2.990913391E-2,-1.183509827E-3
7.916669169E0,-4.553306103E-2,4.152297974E-2,8.187389374E-2
7.921643534E0,-2.146661282E-2,-1.744937897E-2,7.220363617E-2
7.926617899E0,-7.060110569E-3,1.613235474E-2,6.733798981E-2
7.931592264E0,-2.348232269E-2,2.582931519E-2,7.431697845E-2
7.936597147E0,-4.410207272E-3,2.130317688E-2,5.766105652E-2
7.941571512E0,-5.631393194E-2,3.101825714E-2,3.174877167E-2
7.946545878E0,-2.044475079E-2,-1.364040375E-2,6.506633759E-2
7.951550760E0,5.615055561E-3,-5.993843079E-3,6.506538391E-2
7.956494608E0,-1.104867458E-2,-7.836341858E-3,3.675842285E-2
7.961468973E0,5.473613739E-3,2.104854584E-2,6.300926208E-2
7.966473856E0,1.002949476E-2,2.375030518E-2,8.811950684E-3
7.971448221E0,-4.210168123E-2,-1.898765564E-3,-1.188945770E-2
7.976422587E0,1.948684454E-2,2.223777771E-2,6.200599670E-2
7.981396952E0,-4.446864128E-3,6.061553955E-3,-1.340579987E-2
7.986401835E0,1.662117243E-2,1.839160919E-2,4.641914368E-2
7.991376200E0,-1.682084799E-2,2.310752869E-3,5.855941772E-2
7.996350565E0,1.846802235E-2,2.413082123E-2,5.879402161E-2
8.001324930E0,3.691005707E-2,-6.187438965E-3,9.428024292E-3
8.006329813E0,-4.635500908E-2,3.856658936E-3,5.487537384E-2
8.011304178E0,5.515640974E-2,2.325630188E-2,3.620815277E-2
8.016278544E0,-1.728534698E-5,3.781604767E-2,6.968212128E-2
8.021252909E0,2.078086138E-2,2.871227264E-2,4.630088806E-2
8.026227274E0,2.015697956E-2,7.880210876E-3,2.311229706E-2
8.031201639E0,5.025112629E-2,5.567932129E-2,-6.965637207E-3
8.036206522E0,2.110743523E-2,-3.380393982E-2,2.225303650E-2
8.041180887E0,1.345372200E-2,4.902839661E-3,1.815032959E-2
8.046155253E0,-5.990028381E-3,5.036640167E-2,2.588462830E-2
8.051129618E0,3.374618292E-2,1.072883606E-3,5.279541016E-3
8.056103983E0,4.485040903E-2,1.122665405E-2,7.221221924E-2
8.061078348E0,8.607804775E-3,3.073883057E-2,-4.553318024E-2
8.066083231E0,3.639924526E-2,2.414798737E-2,6.113052368E-4
8.071057596E0,7.279276848E-3,3.410720825E-2,1.488685608E-3
8.076031962E0,-2.164155245E-2,2.269554138E-2,5.188274384E-2
8.080975809E0,2.045595646E-2,6.610870361E-3,1.446342468E-2
8.085980692E0,-6.238818169E-3,-1.169300079E-2,6.706523895E-2
8.090955057E0,2.402770519E-2,2.448654175E-2,1.068210602E-2
8.095929423E0,5.169570446E-2,6.048202515E-3,2.319431305E-2
8.100903788E0,3.602921963E-3,5.145835876E-2,8.984756470E-2
8.105878153E0,2.199631929E-2,7.758903503E-2,-4.591941833E-3
8.110852518E0,1.188832521E-2,1.382255554E-2,5.645751953E-3
8.115857401E0,8.939206600E-3,2.376651764E-2,-3.140926361E-2
8.120831766E0,-4.350763559E-2,5.012798309E-2,7.349967957E-3
8.125806132E0,1.070755720E-2,1.961612701E-2,1.037883759E-2
8.130780497E0,7.147789001E-4,1.766395569E-2,-5.509853363E-2
8.135785380E0,-2.810400724E-2,-8.144378662E-4,-4.687309265E-2
8.140759745E0,6.837958097E-2,2.098464966E-2,-2.691745758E-2
8.145764628E0,4.368591309E-2,-4.564285278E-3,-4.012393951E-2
8.150738993E0,1.445418596E-2,4.095458984E-2,-1.540470123E-2
8.155713358E0,-1.932406425E-2,1.527690887E-2,-9.003257751E-2
8.160687723E0,3.213775158E-2,1.105785370E-2,-5.781269073E-2
8.165692606E0,3.364276886E-2,3.284549713E-2,-6.362628937E-2
8.170666971E0,4.462796450E-2,7.238388062E-3,-1.274394989E-2
8.175702372E0,1.533794403E-2,2.200222015E-2,-7.319545746E-2
8.180615702E0,3.583532572E-2,3.664875031E-2,-6.940078735E-2
8.185590067E0,2.784907818E-2,-2.199649811E-2,-4.202365875E-2
8.190594950E0,6.009864807E-2,3.315830231E-2,-9.985256195E-2
8.195569315E0,4.485034943E-2,2.171134949E-2,-3.922557831E-2
8.200543680E0,5.805951357E-2,1.978111267E-2,-2.733230591E-3
8.205518046E0,-1.615720987E-2,3.705024719E-3,-6.804943085E-2
8.210492411E0,3.300714493E-2,2.784729004E-2,-6.914138794E-2
8.215466776E0,7.470244169E-2,6.118774414E-2,5.011272430E-2
8.220471659E0,4.759490490E-2,-4.888534546E-3,-3.698921204E-2
8.225446024E0,7.739132643E-2,3.587245941E-2,-5.011844635E-2
8.230420389E0,3.378736973E-2,3.380489349E-2,-4.897499084E-2
8.235394755E0,6.844878197E-2,1.514625549E-2,-4.558086395E-2
8.240369120E0,4.616427422E-2,-1.282310486E-2,-1.106987000E-1
8.245374003E0,2.172333002E-2,2.084064484E-2,-2.924919128E-3
8.250348368E0,6.115913391E-2,5.426406860E-2,-5.887603760E-2
8.255322733E0,3.648447990E-2,4.260063171E-2,-1.002311707E-3
8.260297098E0,4.033815861E-2,1.212692261E-2,-5.930519104E-2
8.265271464E0,6.064057350E-2,4.092121124E-2,-6.754779816E-2
8.270245829E0,1.701694727E-2,4.589176178E-2,1.164531708E-2
8.275250712E0,5.637234449E-2,3.899955750E-2,-1.175718307E-1
8.280225077E0,5.766040087E-2,3.686237335E-2,-2.620983124E-2
8.285199442E0,3.068304062E-2,6.309413910E-2,-7.957935333E-2
8.290173807E0,8.744955063E-3,5.844497681E-2,-6.166553497E-2
8.295178690E0,2.475577593E-2,4.205703735E-2,-5.803394318E-2
8.300153055E0,5.945211649E-2,3.052139282E-2,-1.430416107E-2
8.305127421E0,3.488874435E-2,7.569313049E-2,-8.902072906E-2
8.310101786E0,2.714747190E-2,5.201339722E-2,-2.859115601E-2
8.315076151E0,2.187806368E-2,2.853202820E-2,-3.476142883E-2
8.320050516E0,3.551173210E-2,1.470851898E-2,-1.488876343E-2
8.325055399E0,6.309878826E-2,4.113101959E-2,-8.959770203E-2
8.330029764E0,3.383058310E-2,4.604244232E-2,-8.611679077E-4
8.335004130E0,3.082275391E-2,8.425712585E-3,1.632022858E-2
8.339978495E0,2.071493864E-2,2.777576447E-2,3.808307648E-2
8.344983378E0,2.244424820E-2,3.512001038E-2,1.004695892E-2
8.349927225E0,1.471883059E-2,6.364154816E-2,-1.540374756E-2
8.354932108E0,1.181662083E-2,1.403331757E-2,-2.175426483E-2
8.359906473E0,5.381733179E-2,4.921913147E-3,2.212524414E-4
8.364880839E0,1.516222954E-2,4.307460785E-2,-2.758216858E-2
8.369885721E0,-3.264194727E-2,3.606033325E-2,-1.266098022E-2
8.374860087E0,1.681381464E-2,5.981540680E-2,1.632118225E-2
8.379834452E0,4.938119650E-2,6.685066223E-2,-2.811622620E-2
8.384808817E0,2.733385563E-2,-1.823806763E-2,-1.080989838E-2
8.389783182E0,1.021629572E-2,3.197860718E-2,4.653358459E-2
8.394757548E0,3.575676680E-2,4.634857178E-2,-1.701450348E-2
8.399762430E0,2.564859390E-2,2.512645721E-2,-4.569053650E-3
8.404736796E0,8.588254452E-3,5.841541290E-2,1.726055145E-2
8.409711161E0,2.474319935E-2,2.067661285E-2,5.935668945E-3
8.414685526E0,1.010155678E-2,4.932689667E-2,3.008842468E-2
8.419659891E0,2.872371674E-2,6.117439270E-2,-1.919078827E-2
8.424664774E0,2.363139391E-2,3.751945496E-2,-2.084636688E-2
8.429639139E0,2.036511898E-3,1.641845703E-2,-2.485084534E-2
8.434613505E0,1.367288828E-2,5.684757233E-2,6.562232971E-3
8.439587870E0,6.061744690E-2,8.513641357E-2,-9.498596191E-3
8.444562235E0,-2.972376347E-2,2.112674713E-2,5.247020721E-2
8.449536600E0,2.233886719E-2,6.621265411E-2,-4.133224487E-3
8.454541483E0,-2.279037237E-2,1.412200928E-2,-6.028842926E-2
8.459515848E0,-1.560378075E-2,6.396961212E-2,-3.571701050E-2
8.464490214E0,-5.563789606E-2,3.548431396E-2,-1.845645905E-2
8.469464579E0,3.873765469E-3,4.855155945E-3,1.279544830E-2
8.474438944E0,1.331114769E-2,3.583145142E-2,-1.761531830E-2
8.479504862E0,6.142795086E-3,5.236911774E-2,-3.363037109E-2
8.484418192E0,-3.298699856E-3,1.210880280E-2,7.132530212E-3
8.489392557E0,-1.732790470E-2,4.534721375E-2,7.407188416E-3
8.494366923E0,1.598912477E-2,7.120513916E-2,-2.775764465E-2
8.499341288E0,-7.657349110E-3,2.600479126E-2,5.799293518E-3
8.504346171E0,9.023189545E-3,2.841472626E-2,-5.746841431E-3
8.509320536E0,1.614379883E-2,6.389522552E-2,8.816719055E-3
8.514294901E0,-2.169638872E-2,6.838989258E-2,-1.214981079E-2
8.519269266E0,9.238481522E-3,4.922103882E-2,6.381797791E-2
8.524243632E0,-1.194065809E-2,4.671859741E-2,-2.847194672E-2
8.529217997E0,2.373182774E-2,5.370044708E-2,-6.095600128E-2
8.534222880E0,4.965907335E-2,4.648208618E-2,-9.550571442E-2
8.539197245E0,3.757882118E-2,6.524467468E-2,-6.844520569E-2
8.544171610E0,2.322041988E-2,5.909919739E-3,-2.985477448E-2
8.549145975E0,-4.355907440E-4,4.859638214E-2,3.719329834E-3
8.554120340E0,-5.013883114E-3,6.968212128E-2,-2.436161041E-2
8.559094706E0,-2.450704575E-3,2.919578552E-2,1.858139038E-2
8.564099589E0,-1.161611080E-2,3.862190247E-2,4.511833191E-3
8.569073954E0,2.920567989E-3,5.741024017E-2,-7.553958893E-2
8.574048319E0,4.335337877E-2,9.731197357E-2,-3.687095642E-2
8.579022684E0,2.679616213E-2,4.009914398E-2,8.557319641E-3
8.584027567E0,5.635619164E-3,2.108860016E-2,-3.142070770E-2
8.589001932E0,3.188604116E-2,5.414772034E-2,-4.984760284E-2
8.593976298E0,-1.146852970E-3,2.555370331E-2,-7.520294189E-2
8.598950663E0,-1.032465696E-2,5.148983002E-2,1.768112183E-2
8.603925028E0,-9.987413883E-3,1.819419861E-2,-2.003955841E-2
8.608929911E0,3.991699219E-2,3.004837036E-2,-2.201271057E-2
8.613904276E0,-2.970099449E-4,5.598735809E-2,-3.810882568E-2
8.618878641E0,3.533655405E-2,3.681564331E-2,-4.467964172E-2
8.623853007E0,6.938219070E-3,4.140853882E-2,-2.286911011E-2
8.628827372E0,-1.180332899E-2,5.306720734E-2,-1.003570557E-1
8.633832255E0,-1.388561726E-2,4.574489594E-2,-7.097244263E-2
8.638806620E0,-1.831227541E-2,1.253795624E-2,-1.112079620E-2
8.643780985E0,3.238916397E-3,3.151702881E-2,-1.552772522E-2
8.648755350E0,-4.854524136E-2,3.377056122E-2,-1.994991302E-2
8.653729715E0,-6.690138578E-2,1.947879791E-2,3.991127014E-3
8.658704081E0,-1.903408766E-2,1.946735382E-2,-2.953529358E-3
8.663708964E0,-1.875025034E-2,1.707649231E-2,-4.055309296E-2
8.668683329E0,-2.786117792E-2,4.773330688E-2,-1.885128021E-2
8.673657694E0,-7.228326797E-2,2.851963043E-2,-2.570915222E-2
8.678632059E0,-5.267637968E-2,-1.652622223E-2,-5.142021179E-2
8.683636942E0,-4.507839680E-2,-2.204895020E-3,5.680084229E-3
8.688611307E0,-5.881094933E-2,1.197624207E-2,1.743125916E-2
8.693585673E0,-1.577907801E-2,2.842044830E-2,-2.282428741E-2
8.698560038E0,-4.860007763E-2,3.294658661E-2,2.697944641E-2
8.703564921E0,-4.099953175E-2,4.687595367E-2,-6.253242493E-3
8.708539286E0,-3.587049246E-2,5.122375488E-2,-3.687381744E-2
8.713513651E0,-8.741259575E-2,4.845523834E-2,1.538085938E-2
8.718488016E0,-8.180350065E-2,1.028060913E-2,-1.544761658E-2
8.723462382E0,-6.684941053E-2,5.974006653E-2,-2.480030060E-2
8.728436747E0,-4.493796825E-2,2.616786957E-2,2.021884918E-2
8.733441630E0,-4.199796915E-2,3.300762177E-2,4.597568512E-2
8.738415995E0,-7.921344042E-2,-1.212024689E-2,-2.051830292E-2
8.743390360E0,-5.243092775E-2,-1.440525055E-2,4.570865631E-2
8.748364725E0,-8.726787567E-2,2.105426788E-2,3.343677521E-2
8.753339090E0,-1.052874327E-1,2.079010010E-2,-6.609821320E-2
8.758343973E0,-9.249430895E-2,2.996826172E-2,5.154609680E-3
8.763318339E0,-1.034647226E-1,6.501293182E-2,-1.391124725E-2
8.768292704E0,-9.076344967E-2,5.961322784E-2,-3.992557526E-2
8.773267069E0,-5.215442181E-2,3.771400452E-2,-4.375457764E-3
8.778241434E0,-1.224312782E-1,3.960227966E-2,-7.298755646E-2
8.783307352E0,-6.229370832E-2,8.399963379E-3,-1.594924927E-2
8.788220682E0,-7.111614943E-2,4.115581512E-2,-2.788543701E-2
8.793195048E0,-5.864048004E-2,4.056644440E-2,-3.030776978E-2
8.798169413E0,-7.693433762E-2,4.706382751E-2,2.158164978E-2
8.803143778E0,-8.091259003E-2,9.599781036E-2,-1.299695969E-1
8.808148661E0,-8.251839876E-2,1.067104340E-1,-1.592731476E-2
8.813123026E0,-6.522315741E-2,3.231239319E-2,-2.326965332E-2
8.818097391E0,-9.058380127E-2,2.698993683E-2,-4.235267639E-2
8.823071757E0,-7.327216864E-2,3.117275238E-2,-1.640224457E-2
8.828046122E0,-5.839997530E-2,-3.081798553E-2,-9.607315063E-3
8.833020487E0,-8.199393749E-3,-5.017280579E-3,-2.947807312E-3
8.838025370E0,-3.636175394E-2,1.822566986E-2,-2.936840057E-2
8.842999735E0,-1.707535982E-2,1.299571991E-2,-4.843235016E-2
8.847974100E0,-7.340908051E-3,2.901458740E-2,-1.240425110E-1
8.852948465E0,-3.548198938E-2,7.556438446E-2,-9.754371643E-2
8.857953348E0,-1.389276981E-2,4.148197174E-2,-4.055595398E-2
8.862927714E0,-1.138973236E-2,1.951026917E-2,-1.020412445E-1
8.867902079E0,-2.063792944E-2,1.660919189E-2,-6.859302521E-2
8.872876444E0,-2.742689848E-2,3.257274628E-2,4.006290436E-2
8.877850809E0,-1.154839993E-3,1.170158386E-3,1.087951660E-2
8.882825174E0,-4.355430603E-2,4.556941986E-2,-6.763172150E-2
8.887799540E0,8.796513081E-3,1.878070831E-2,-2.746200562E-2
8.892804423E0,-3.369259834E-2,6.395339966E-3,7.672309875E-3
8.897778788E0,2.569764853E-2,-1.162528992E-3,-2.334594727E-3
8.902753153E0,-1.464438438E-2,-8.704185486E-3,-7.132148743E-2
8.907758036E0,5.858379602E-2,1.215934753E-2,-1.696109772E-2
8.912732401E0,8.496880531E-3,-9.593963623E-3,8.671760559E-3
8.917706766E0,2.022320032E-2,-5.222320557E-3,1.045894623E-2
8.922681132E0,1.996225119E-2,2.739715576E-2,-6.335258484E-2
8.927655497E0,1.723068953E-2,2.435684204E-2,-2.557182312E-2
8.932629862E0,5.233442783E-2,2.478599548E-3,-7.070255280E-2
8.937634745E0,6.365239620E-2,1.850700378E-2,2.511024475E-3
8.942609110E0,6.068766117E-2,-2.933216095E-2,3.498840332E-2
8.947583475E0,7.419914007E-2,2.000713348E-2,1.526451111E-2
8.952557840E0,4.274356365E-2,2.640151978E-2,-3.031349182E-2
8.957532206E0,-4.905700684E-3,1.853656769E-2,-3.543663025E-2
8.962537089E0,4.937106371E-2,2.962017059E-2,1.141166687E-2
8.967511454E0,6.540590525E-2,3.117275238E-2,-5.071067810E-2
8.972485819E0,6.945735216E-2,-1.922130585E-2,-1.367568970E-3
8.977460184E0,6.403279305E-2,-5.439758301E-3,1.690292358E-2
8.982434549E0,6.342154741E-2,1.125335693E-3,4.306793213E-3
8.987408915E0,5.099081993E-2,-1.849174500E-3,2.009296417E-2
8.992413798E0,1.024201512E-1,-1.662731171E-2,7.584667206E-2
8.997388163E0,6.374579668E-2,-5.683898926E-4,-2.463150024E-2
9.002362528E0,7.258659601E-2,8.298873901E-3,4.807567596E-2
9.007336893E0,6.008327007E-2,-4.176139832E-3,-9.678840637E-3
9.012341776E0,5.948615074E-2,4.672050476E-3,-7.967948914E-3
9.017316141E0,8.963286877E-2,6.328582764E-3,1.020622253E-2
9.022290507E0,1.099324226E-2,-1.801395416E-2,1.876068115E-2
9.027264872E0,5.101466179E-2,1.218223572E-2,2.965736389E-2
9.032239237E0,3.402400017E-2,3.504467010E-2,-2.799320221E-2
9.037213602E0,5.733358860E-2,-2.490043640E-2,8.479785919E-2
9.042218485E0,7.339686155E-2,-4.421806335E-2,2.668666840E-2
9.047192850E0,6.811708212E-2,7.443428040E-3,5.167770386E-2
9.052167215E0,7.472360134E-2,-3.334522247E-2,9.303188324E-2
9.057141581E0,6.947225332E-2,-3.128242493E-2,6.088924408E-2
9.062146464E0,7.833760977E-2,1.794815063E-2,4.315185547E-2
9.067090311E0,7.051908970E-2,1.246166229E-2,1.374816895E-2
9.072095194E0,8.403152227E-2,4.652976990E-3,6.483840942E-2
9.077069559E0,2.667957544E-2,-2.199363708E-2,9.187221527E-2
9.082043924E0,5.242848396E-2,-3.587722778E-3,1.044940948E-1
9.087109842E0,8.739137650E-2,1.467800140E-2,3.440666199E-2
9.092023173E0,6.779563427E-2,-1.911926270E-2,5.934810638E-2
9.096997538E0,8.856153488E-2,-2.195453644E-2,1.005945206E-1
9.101971903E0,8.319222927E-2,2.008628845E-2,-9.577751160E-3
9.106946268E0,5.421471596E-2,2.761840820E-3,4.640769958E-2
9.111920633E0,1.151762605E-1,-2.346038818E-4,1.019515991E-1
9.116925516E0,6.716483831E-2,-2.447319031E-2,6.021690369E-2
9.121899882E0,2.670592070E-2,-2.253723145E-2,1.486644745E-1
9.126874247E0,1.093079448E-1,-3.714179993E-2,2.864551544E-2
9.131848612E0,4.491436481E-2,1.445102692E-2,9.608364105E-2
9.136853495E0,7.317149639E-2,-2.406692505E-2,6.619739532E-2
9.141827860E0,4.930615425E-2,1.094055176E-2,2.006435394E-2
9.146802225E0,4.919409752E-2,-1.572132111E-2,1.348342896E-1
9.151776590E0,5.378252268E-2,1.449298859E-2,6.924724579E-2
9.156750956E0,6.782984734E-2,4.351615906E-3,9.157371521E-2
9.161725321E0,6.757533550E-2,2.264308929E-2,1.137418747E-1
9.166699686E0,8.616048098E-2,2.990722656E-3,9.084987640E-2
9.171704569E0,5.263829231E-2,-5.427074432E-2,5.634307861E-2
9.176678934E0,6.903016567E-2,-2.602863312E-2,1.283998489E-1
9.181653299E0,6.644427776E-2,-3.576946259E-2,9.601497650E-2
9.186627665E0,4.965168238E-2,-5.779266357E-4,3.085517883E-2
9.191602030E0,5.420082808E-2,-1.052951813E-2,2.289390564E-2
9.196576395E0,2.332895994E-2,1.737213135E-2,9.053707123E-2
9.201581278E0,3.522747755E-2,2.307891846E-4,7.740402222E-2
9.206555643E0,4.942899942E-2,-5.451297760E-2,8.565235138E-2
9.211530008E0,8.005797863E-2,-2.851963043E-2,7.733154297E-2
9.216504374E0,9.629815817E-2,-2.866268158E-2,1.257867813E-1
9.221478739E0,8.641928434E-2,-5.002689362E-2,8.180427551E-2
9.226453104E0,6.245911121E-2,-7.456779480E-3,6.181907654E-2
9.231457987E0,7.652091980E-2,-2.661514282E-2,6.560325623E-2
9.236432352E0,4.561227560E-2,-4.086875916E-2,1.165952682E-1
9.241406717E0,5.279445648E-2,-2.431678772E-2,1.034240723E-1
9.246381083E0,2.458071709E-2,-2.682685852E-2,1.115550995E-1
9.251355448E0,7.684355974E-2,-4.111766815E-2,1.054573059E-1
9.256329813E0,3.896987438E-2,-5.696296692E-3,8.763313293E-2
9.261304178E0,6.047254801E-2,-4.378890991E-2,7.934665680E-2
9.266278544E0,6.758594513E-2,-2.963352203E-2,1.089000702E-1
9.271252909E0,8.637058735E-2,-2.263641357E-2,3.706932068E-3
9.276227274E0,5.542689562E-2,1.496791840E-2,6.460380554E-2
9.281232157E0,6.019932032E-2,-1.381587982E-2,6.128025055E-2
9.286206522E0,4.842638969E-2,-3.287220001E-2,8.636283875E-2
9.291180887E0,6.031405926E-2,-2.344322205E-2,6.874942780E-2
9.296155253E0,1.068490744E-2,-2.823448181E-2,1.174068451E-1
9.301129618E0,5.591303110E-2,-2.118301392E-2,6.651401520E-2
9.306103983E0,-1.727175713E-2,3.301811218E-2,1.081047058E-1
9.311108866E0,-2.576708794E-3,-1.941871643E-2,9.982776642E-2
9.316083231E0,2.613967657E-2,-2.188682556E-2,1.151790619E-1
9.321057596E0,5.471521616E-2,-4.087638855E-2,1.563415527E-1
9.326062479E0,7.616043091E-3,-6.670093536E-2,6.742954254E-2
9.331036844E0,-3.904801607E-2,-4.033184052E-2,4.776477814E-2
9.336011210E0,3.267925978E-2,-1.892662048E-2,9.197330475E-2
9.341016092E0,-1.428395510E-2,-4.257392883E-2,7.913589478E-2
9.345990458E0,1.942121983E-2,-3.529262543E-2,1.419954300E-1
9.350964823E0,-3.764808178E-3,-6.741523743E-3,7.695960999E-2
9.355969706E0,-4.091387987E-2,-2.089500427E-2,5.026054382E-2
9.360944071E0,-2.817749977E-2,-1.604366302E-2,9.224319458E-2
9.365887919E0,-2.730697393E-2,-3.949356079E-2,8.438014984E-2
9.370892801E0,1.934230328E-3,-3.711700439E-3,1.120138168E-1
9.375867167E0,-3.517204523E-2,-2.960491180E-2,4.499340057E-2
9.380841532E0,-2.711886168E-2,-2.457332611E-2,1.107473373E-1
9.385815897E0,-2.861785889E-2,-1.252365112E-2,1.027545929E-1
9.390881815E0,-2.072823048E-2,-1.946163177E-2,5.941963196E-2
9.395764628E0,-8.182644844E-3,-1.926136017E-2,1.250295639E-1
9.400769510E0,1.963496208E-3,-1.910209656E-2,1.145048141E-1
9.405743876E0,-2.813386917E-2,-2.130699158E-2,7.574081421E-2
9.410718241E0,-1.352608204E-3,-1.167011261E-2,9.397792816E-2
9.415692606E0,-1.258879900E-2,1.676940918E-2,6.249141693E-2
9.420697489E0,-1.430737972E-2,-9.298324585E-3,5.253887177E-2
9.425641337E0,-1.837885380E-2,9.700775146E-3,4.502964020E-2
9.430646219E0,-4.368478060E-2,-3.285694122E-2,6.868362427E-3
9.435620585E0,-5.936247110E-2,-2.548885345E-2,1.342658997E-1
9.440594950E0,-2.533370256E-2,-1.107692719E-2,1.277065277E-2
9.445599833E0,-7.189172506E-2,-3.455543518E-2,1.543111801E-1
9.450574198E0,-3.072798252E-2,-2.011394501E-2,4.676151276E-2
9.455548563E0,-2.052575350E-2,-1.757240295E-2,3.865242004E-3
9.460522928E0,-5.050867796E-2,1.539230347E-3,9.123516083E-2
9.465497294E0,-9.442389011E-3,-1.017284393E-2,1.165313721E-1
9.470471659E0,-1.352167130E-2,-1.936149597E-2,6.379318237E-2
9.475476542E0,-5.056446791E-2,-7.161140442E-3,6.350231171E-2
9.480450907E0,-8.262467384E-2,-1.633071899E-2,1.833915710E-2
9.485425272E0,-2.474182844E-2,-3.722763062E-2,1.199073792E-1
9.490399637E0,-4.050087929E-2,-3.196525574E-2,6.013393402E-2
9.495374003E0,-1.366400719E-2,-8.029937744E-4,5.748653412E-2
9.500378885E0,-3.664070368E-2,-5.855560303E-4,8.319091797E-2
9.505353251E0,-3.109848499E-2,-3.101444244E-2,2.847290039E-2
9.510327616E0,1.450192928E-2,-2.113342285E-3,3.802108765E-2
9.515301981E0,-1.584482193E-2,1.476287842E-2,4.515361786E-2
9.520306864E0,1.223921776E-3,-1.575660706E-2,1.277160645E-1
9.525250712E0,-3.167390823E-3,8.266448975E-3,1.151685715E-1
9.530255594E0,-3.588801622E-2,-2.690029144E-2,4.846382141E-2
9.535229960E0,-4.239749908E-2,-2.872943878E-2,5.076885223E-2
9.540204325E0,-1.585572958E-2,-1.636123657E-2,3.507614136E-3
9.545178690E0,-2.966850996E-2,-2.060031891E-2,2.039909363E-2
9.550153055E0,-5.514788628E-2,5.883216858E-3,3.242778778E-2
9.555127421E0,-4.262071848E-2,-1.032066345E-2,7.506942749E-2
9.560132303E0,-9.002149105E-3,-5.145072937E-3,5.834484100E-2
9.565106669E0,-1.348453760E-2,-5.905342102E-2,1.104354858E-2
9.570081034E0,-4.389196634E-2,-1.808929443E-2,6.564140320E-2
9.575055399E0,-3.861647844E-2,-5.792617798E-3,8.909606934E-2
9.580060282E0,-2.156335115E-2,-2.666759491E-2,2.026748657E-2
9.585034647E0,-2.122420073E-2,-3.318691254E-2,4.409790039E-2
9.590009012E0,-5.159276724E-2,-1.130199432E-2,3.943157196E-2
9.594983378E0,-2.741152048E-2,1.276302338E-2,3.716659546E-2
9.599957743E0,-6.717091799E-2,-2.234554291E-2,-4.386901855E-4
9.604932108E0,-4.756385088E-2,2.071571350E-2,2.833747864E-2
9.609936991E0,-4.702901840E-2,-2.160453796E-2,1.726150513E-4
9.614911356E0,-2.058404684E-2,1.434326172E-2,1.003360748E-2
9.619885721E0,-8.450150490E-3,-3.024387360E-2,5.288505554E-2
9.624860087E0,-3.469467163E-3,-1.257896423E-3,2.222919464E-2
9.629834452E0,-1.510107517E-2,-1.968288422E-2,4.145240784E-2
9.634808817E0,-7.151234150E-2,-3.087425232E-2,5.107307434E-2
9.639813700E0,-1.652824879E-2,5.207061768E-4,-1.019859314E-2
9.644788065E0,-9.260356426E-3,1.752948761E-2,2.265930176E-3
9.649762430E0,-9.185492992E-3,-1.043510437E-2,1.937389374E-2
9.654736796E0,2.841949463E-4,2.556610107E-2,-2.267360687E-2
9.659711161E0,-4.940754175E-2,-3.075313568E-2,-1.710605621E-2
9.664685526E0,-3.495049477E-2,3.378582001E-2,-4.503250122E-3
9.669690409E0,-1.584607363E-2,-1.083660126E-2,-7.703495026E-2
9.674664774E0,-1.344954967E-2,-7.902145386E-3,2.096939087E-2
9.679639139E0,-4.016637802E-3,-4.984474182E-2,2.490043640E-3
9.684613505E0,-4.185223579E-2,1.719093323E-2,1.726245880E-2
9.689587870E0,-1.327705383E-2,2.937602997E-2,1.774787903E-2
9.694653788E0,-1.326423883E-2,-1.754379272E-2,9.850215912E-2
9.699567118E0,8.000552654E-3,6.750106812E-3,1.099109650E-2
9.704541483E0,5.503058434E-3,-1.638412476E-2,1.625156403E-2
9.709546366E0,1.485031843E-2,7.845878601E-3,-3.287410736E-2
9.714490214E0,-2.781218290E-2,-2.006435394E-2,1.022338867E-3
9.719495096E0,-1.820939779E-2,-2.646923065E-2,6.343841553E-3
9.724469462E0,-6.372332573E-3,-1.398372650E-2,4.461574554E-2
9.729443827E0,-2.064687014E-2,1.487731934E-2,2.114486694E-2
9.734414241E0,1.479476690E-2,1.517295837E-2,2.298355103E-4
9.739388606E0,3.341764212E-2,2.254772186E-2,3.378200531E-2
9.744393489E0,-3.550761938E-2,1.807975769E-2,6.236267090E-2
9.749367854E0,9.402275085E-3,-5.218505859E-3,4.587841034E-2
9.754342220E0,-7.406949997E-3,1.653099060E-2,-4.600524902E-2
9.759316585E0,1.852911711E-2,2.391815186E-2,4.479408264E-3
9.764290950E0,2.774298191E-2,2.177810669E-2,2.231597900E-4
9.769295833E0,2.970379591E-2,1.965522766E-2,3.089904785E-3
9.774270198E0,3.865879774E-2,2.932643890E-2,-1.297855377E-2
9.779244563E0,4.045760632E-2,1.767158508E-2,-5.251979828E-2
9.784218929E0,5.638343096E-2,-3.163337708E-2,-1.616668701E-2
9.789193294E0,-1.051783562E-3,3.048038483E-2,-9.098720551E-2
9.794167659E0,3.162020445E-2,5.531311035E-5,-7.071018219E-2
9.799172542E0,3.569126129E-2,7.590293884E-3,-4.595279694E-2
9.804146907E0,-2.870053053E-2,-6.204605103E-3,-1.434898376E-2
9.809121272E0,2.545052767E-2,3.742218018E-3,-4.225730896E-3
9.814095638E0,1.277625561E-3,4.191303253E-2,-4.378414154E-2
9.819070003E0,3.395956755E-2,-2.882003784E-2,-9.717750549E-2
9.824044368E0,4.508155584E-2,2.614593506E-2,3.313064575E-3
9.829049251E0,2.306449413E-2,-3.975200653E-2,-2.216339111E-2
9.834023616E0,3.194189072E-2,1.292419434E-2,-3.090858459E-2
9.838997981E0,6.434732676E-2,1.320648193E-2,-6.559371948E-3
9.843972347E0,5.158156157E-2,-2.907085419E-2,-8.635425568E-2
9.848977229E0,1.294910908E-2,-1.198196411E-2,-2.857112885E-2
9.853951595E0,4.789066315E-2,-6.814956665E-3,-3.498268127E-2
9.858925960E0,6.369405985E-2,4.314422607E-2,-8.621311188E-2
9.863900325E0,-9.111762047E-4,-4.094123840E-3,-3.314876556E-2
9.868874690E0,5.302035809E-2,4.584121704E-2,-2.537822723E-2
9.873849056E0,1.089284420E-1,3.160381317E-2,-3.658676147E-2
9.878853938E0,2.986794710E-2,2.454948425E-2,-5.008602142E-2
9.883828304E0,8.366644382E-2,-1.785373688E-2,-6.819343567E-2
9.888802669E0,8.740246296E-2,2.035522461E-2,-3.421497345E-2
9.893777034E0,4.139465094E-2,1.588821411E-3,-6.897163391E-2
9.898751399E0,7.602900267E-2,1.838684082E-2,-3.734302521E-2
9.903725764E0,6.087160110E-2,-9.803771973E-3,-5.083084106E-2
9.908730647E0,7.890772820E-2,2.831649780E-2,1.130676270E-2
9.913705013E0,4.014211893E-2,6.611728668E-2,-7.343006134E-2
9.918679378E0,4.652827978E-2,4.463291168E-2,-2.993869781E-2
9.923653743E0,5.992537737E-2,4.422187805E-3,-1.024999619E-1
9.928628108E0,7.318562269E-2,1.409530640E-2,-7.297897339E-2
9.933602473E0,5.566579103E-2,-2.258300781E-3,-9.797382355E-2
9.938607356E0,8.080512285E-2,1.929664612E-2,-6.138324738E-2
9.943581722E0,4.195898771E-2,1.940441132E-2,-2.276134491E-2
9.948556087E0,3.167283535E-2,5.487537384E-2,6.050109863E-3
9.953560970E0,5.451720953E-2,3.101634979E-2,-4.330062866E-2
9.958504817E0,9.140914679E-2,4.040241241E-2,-4.905700684E-3
9.963509700E0,6.191456318E-2,3.555011749E-2,-5.180931091E-2
9.968484065E0,3.977102041E-2,3.309726715E-2,7.900238037E-3
9.973458431E0,4.377794266E-2,4.698753357E-3,-5.799770355E-2
9.978432796E0,6.899666786E-2,2.502441406E-3,-2.656364441E-2
9.983407161E0,4.448819160E-2,1.921272278E-2,-3.551959991E-2
9.988412044E0,4.381662607E-2,-1.144504547E-2,-4.914474487E-2
9.993386409E0,1.014745235E-2,-4.100799561E-3,3.410339355E-3
9.998421809E0,6.888687611E-2,-6.299972534E-3,-4.130744934E-2
1.000333514E1,4.693299532E-2,1.036071777E-2,-7.626438141E-2
1.000834002E1,8.653026819E-2,2.688312531E-2,2.598285675E-2
1.001331439E1,4.076761007E-2,7.834434509E-3,9.325027466E-3
1.001828875E1,5.201780796E-2,2.907371521E-2,-4.260158539E-2
1.002326312E1,2.307003736E-2,5.265235901E-3,3.807067871E-2
1.002823748E1,3.220063448E-2,-8.922576904E-3,-2.831172943E-2
1.003321185E1,2.473127842E-2,2.657985687E-2,-4.440307617E-3
1.003821673E1,4.796743393E-2,2.729415894E-3,1.446342468E-2
1.004319110E1,5.684411526E-2,-1.622486115E-2,1.665878296E-2
1.004816546E1,1.132833958E-2,1.924896240E-2,-4.795074463E-3
1.005313983E1,9.363681078E-2,3.082084656E-2,-3.551292419E-2
1.005811419E1,4.776430130E-2,6.886482239E-3,-1.640319824E-2
1.006308856E1,6.129151583E-2,2.557849884E-2,-9.431076050E-2
1.006809344E1,6.769961119E-2,2.282905579E-2,-3.470897675E-2
1.007306781E1,9.296154976E-2,3.903198242E-2,-1.568222046E-2
1.007804217E1,5.660927296E-2,1.975345612E-2,-1.090240479E-2
1.008301654E1,6.071442366E-2,-8.784294128E-3,2.691173553E-2
1.008799090E1,2.945297956E-2,3.137588501E-2,-2.293014526E-2
1.009296527E1,5.985563993E-2,1.450729370E-2,-2.519512177E-2
1.009797015E1,3.570812941E-2,1.895809174E-2,-3.932285309E-2
1.010294451E1,4.246693850E-2,-2.346038818E-4,-1.320552826E-2
1.010791888E1,2.556377649E-2,-3.614425659E-4,-7.462120056E-2
1.011289324E1,3.479671478E-2,4.193305969E-3,-5.295562744E-2
1.011789813E1,1.799041033E-2,-7.753372192E-4,1.805114746E-2
1.012287249E1,4.381036758E-2,1.379013062E-3,-4.372406006E-2
1.012784686E1,4.821354151E-2,-3.565788269E-3,-1.215124130E-1
1.013282122E1,3.135645390E-2,1.987838745E-2,-5.227470398E-2
1.013782611E1,4.766637087E-2,5.335807800E-3,-4.501342773E-2
1.014280047E1,3.312748671E-2,7.394790649E-3,-4.730415344E-2
1.014777484E1,6.906628609E-3,2.360057831E-2,4.717826843E-3
1.015277972E1,5.644625425E-2,2.786827087E-2,-5.936145782E-2
1.015775408E1,6.548708677E-2,3.444099426E-2,-4.739570618E-2
1.016272845E1,3.440529108E-2,5.505561829E-3,-4.266834259E-2
1.016770282E1,6.032645702E-3,5.139350891E-3,-1.673984528E-2
1.017267718E1,4.631334543E-2,-1.408576965E-2,-6.653594971E-2
1.017765155E1,5.314636230E-2,3.528404236E-2,-3.804016113E-2
1.018262591E1,3.166800737E-2,1.104736328E-2,-4.285621643E-2
1.018763079E1,-1.796120405E-2,4.366207123E-2,-2.639102936E-2
1.019260516E1,5.973517895E-3,-1.603412628E-2,-1.068181992E-1
1.019757952E1,1.559650898E-2,5.027770996E-3,-8.271121979E-2
1.020255389E1,-8.230209351E-4,-2.432823181E-3,-1.633834839E-2
1.020755877E1,-1.240509748E-2,1.379489899E-2,-5.199813843E-2
1.021250262E1,-3.129243851E-4,1.100540161E-2,-4.735946655E-3
1.021750750E1,1.167714596E-2,-1.071643829E-2,-4.529094696E-2
1.022248187E1,2.364337444E-3,-1.339149475E-2,-2.415943146E-2
1.022745623E1,1.437026262E-2,-2.776241302E-2,-2.198791504E-2
1.023243060E1,2.391964197E-2,-4.179000854E-3,-1.975631714E-2
1.023743548E1,-6.662130356E-3,2.627086639E-2,-4.589843750E-2
1.024240985E1,1.255911589E-2,-7.287979126E-3,1.333236694E-3
1.024738421E1,7.928550243E-3,-1.462268829E-2,3.398799896E-2
1.025235858E1,-4.862153530E-2,6.407737732E-3,-9.653377533E-2
1.025733294E1,2.281284332E-2,3.668403625E-2,1.714134216E-2
1.026230731E1,2.755707502E-2,-2.299308777E-2,2.364540100E-2
1.026731219E1,6.292939186E-3,2.802848816E-3,-5.016803741E-2
1.027228656E1,2.541041374E-2,4.491424561E-2,4.895687103E-2
1.027726092E1,-9.941995144E-3,-1.716613770E-2,3.633785248E-2
1.028223529E1,-4.037702084E-2,-1.738166809E-2,1.300258636E-1
