"Time (s)";"Linear Acceleration x (m/s^2)";"Linear Acceleration y (m/s^2)";"Linear Acceleration z (m/s^2)"
1.366008390E-1;6.594729424E-2;4.816545546E-2;-2.964019775E-3
1.546388020E-1;9.390199184E-2;1.456306875E-2;-4.926872253E-2
1.726779870E-1;1.173936129E-1;-5.484312773E-3;-4.762458801E-2
1.907158290E-1;1.366910934E-1;6.547036767E-2;-7.587432861E-3
2.087559290E-1;9.968972206E-2;5.703987181E-2;-2.476692200E-2
2.267935270E-1;1.448322535E-1;5.321134627E-2;-5.135631561E-2
2.448329560E-1;2.104680538E-1;7.393512130E-2;-5.795192719E-2
2.628709190E-1;1.902722120E-1;1.937498152E-2;1.988220215E-2
2.809110190E-1;1.943137646E-1;7.874672115E-2;-6.310844421E-2
2.989488000E-1;2.719881535E-1;1.297227740E-1;-6.438350677E-2
3.169880460E-1;2.988014221E-1;1.143693924E-1;-2.758026123E-2
3.350259490E-1;5.902220011E-1;2.376158535E-1;-3.640842438E-2
3.530657440E-1;6.889911890E-1;2.680726051E-1;-7.032871246E-2
3.711040740E-1;8.185596466E-1;2.996489704E-1;8.766269684E-2
3.891430140E-1;9.361904860E-1;4.508870542E-1;-4.389953613E-2
4.071646820E-1;1.126438260E0;5.111969709E-1;-7.429981232E-2
4.252202850E-1;1.283675671E0;5.682548881E-1;-8.487415314E-2
4.432596530E-1;-5.612933636E-1;5.164994001E-1;-1.025156021E0
4.612855930E-1;1.226698399E0;1.044810534E0;1.093544006E0
4.793337490E-1;1.262152195E0;1.256963968E0;6.572427750E-1
4.973787320E-1;-5.779988766E-1;8.064735532E-1;-1.798434734E0
5.154134000E-1;8.730095625E-1;3.901506960E-1;1.253598213E0
5.334528900E-1;-2.200982571E-1;7.883189321E-1;-2.429189682E-1
6.056074920E-1;-1.134098768E0;4.477190971E-2;-1.246633530E0
6.236413060E-1;9.977459908E-2;2.644405365E-1;4.315586090E-1
6.416898290E-1;-6.021809578E-2;2.002596617E0;-1.090901375E0
6.597234580E-1;1.923594832E0;1.330599785E0;1.420475960E0
6.777629480E-1;2.060087204E0;2.222114563E0;1.156072617E-1
6.957974330E-1;1.128388762E0;1.975239038E0;-4.622621536E-1
7.138404020E-1;8.476154804E-1;1.536747813E0;4.173402786E-1
7.318784880E-1;7.679483891E-1;1.514911413E0;-2.101030350E-1
7.499060150E-1;1.240086913E0;1.438323975E0;1.061258316E-1
7.679510590E-1;1.702350616E0;1.051382661E0;-1.473312378E-1
7.859985440E-1;6.027202606E-1;8.504726887E-1;4.407377243E-1
8.040330290E-1;-1.847668171E0;7.738254666E-1;-6.740283966E-2
8.220727020E-1;-1.825148106E0;-1.159765720E-1;-9.407901764E-2
8.400985190E-1;-1.563532352E-1;3.890850544E-1;3.052186966E-1
8.581509490E-1;-1.005492210E0;5.877847672E-1;1.818046570E-1
8.761875090E-1;-1.460541487E0;9.140318632E-1;-1.816492081E-1
8.942276090E-1;-2.116037130E0;1.904327869E-1;2.253046036E-1
9.122653900E-1;-2.253235340E0;-1.033048391E0;-1.122188568E-1
9.303052460E-1;-1.774592161E0;-9.669723511E-1;-8.637142181E-2
9.483430870E-1;-1.297543764E0;-2.995380163E-1;-1.081037521E-1
9.663825770E-1;-1.282730341E0;1.561473608E-1;-2.738733292E-1
9.844202360E-1;-1.154579878E0;1.289800644E0;-1.021471024E-1
1.002458444E0;-2.255053997E0;-8.749398589E-1;1.519527435E-1
1.020500131E0;-1.951119661E0;-1.230364799E0;-3.379421234E-1
1.038537484E0;-1.288459063E0;8.824592233E-1;-1.388934135E0
1.056575448E0;-3.164179325E-1;-3.090973496E-1;-2.562713623E-1
1.074614999E0;-1.390230656E-1;-2.192784548E0;3.250083923E-1
1.092653207E0;-1.938998699E-1;2.172596753E-1;-2.401609421E-1
1.110689157E0;6.741816998E-1;5.637056828E-1;-5.458278656E-1
1.128733224E0;7.323012352E-1;-1.300022602E0;-7.477769852E-1
1.146767465E0;1.513824940E0;-1.271053076E0;-5.138874054E-1
1.164810556E0;1.720852971E0;-5.309461951E-1;8.705024719E-1
1.182847482E0;1.034670115E0;-1.390254021E0;-1.275119781E-1
1.200873788E0;7.051577568E-1;-1.959928274E0;1.963138580E-2
1.218916879E0;7.900111675E-1;-1.453746915E0;7.059288025E-2
1.236963143E0;1.468322277E-1;-1.771158457E0;2.300815582E-1
1.255002450E0;-6.397294998E-2;-2.325856686E0;-5.800390244E-1
1.273040109E0;-1.481299400E-1;-2.028128386E0;2.099752426E-1
1.291080148E0;-2.178966999E-1;-1.834993720E0;5.432128906E-2
1.309117929E0;-5.856864452E-1;-2.189100266E0;-3.492040634E-1
1.327157296E0;-2.433490753E-1;-1.879122496E0;-2.846450806E-1
1.345195138E0;-8.795738220E-3;-1.467006087E0;2.296638489E-2
1.363227548E0;-2.748808861E-1;-1.494323492E0;-1.557474136E-1
1.381272653E0;-2.703351974E-1;-1.330924034E0;-1.613225937E-1
1.399315622E0;-1.650643349E-1;-8.790161610E-1;-1.174526215E-1
1.417350412E0;-5.668544769E-2;-8.696360588E-1;-1.000061035E-1
1.435390145E0;-6.878066063E-2;-7.838745713E-1;-1.690177917E-1
1.453428048E0;1.626832485E-1;-5.055046082E-1;-6.976127625E-3
1.471467355E0;4.205489159E-2;-3.213497698E-1;-5.616283417E-2
1.489505197E0;9.304809570E-2;-2.848745584E-1;-9.671306610E-2
1.507544686E0;1.210439205E-1;-2.440066338E-1;-7.890796661E-2
1.525582101E0;1.596450806E-1;-1.691849232E-1;-8.041381836E-3
1.543623361E0;2.941181660E-1;-2.240616977E-1;-1.667976379E-1
1.561659250E0;4.000749588E-1;-1.580666304E-1;8.554840088E-2
1.579701364E0;3.399419785E-1;-1.872575581E-1;-2.050018311E-2
1.597729197E0;2.245876789E-1;-1.356597394E-1;-3.977775574E-2
1.615774179E0;1.896460056E-1;-1.129045188E-1;-4.958152771E-2
1.633815499E0;2.939870358E-1;-6.168732047E-2;-2.505970001E-2
1.651855050E0;4.228281975E-2;-1.716040075E-1;-5.408000946E-2
1.669893075E0;-2.959840298E-1;-2.489608973E-1;-2.698802948E-1
1.687929330E0;-4.392411709E-1;-1.504702568E-1;-8.769226074E-2
1.705970224E0;-7.752733231E-1;-4.385088682E-1;4.757118225E-2
1.724010324E0;-7.487161160E-1;-1.020809114E-1;-5.139636993E-2
1.742050302E0;-6.490328312E-1;-9.602767229E-2;-2.576837540E-1
1.760084725E0;-8.526010513E-1;-2.396383882E-2;9.744930267E-2
1.778128549E0;-7.713408470E-1;1.751125753E-1;-1.369285583E-2
1.796165353E0;-6.187160015E-1;4.847830832E-1;-1.674060822E-1
1.814203500E0;-5.194637775E-1;4.857109189E-1;-2.038412094E-1
1.832242746E0;-3.438091278E-2;6.643149853E-1;-3.312969208E-2
1.850280770E0;2.654204369E-1;9.143410921E-1;3.917694092E-3
1.868320565E0;1.594955921E-1;6.497440934E-1;1.086454391E-1
1.886346566E0;1.614496708E-1;8.525608182E-1;-1.356639862E-1
1.904397165E0;2.009956837E-1;6.976850033E-1;-7.681751251E-2
1.922436411E0;2.664098740E-1;7.122632265E-1;6.533527374E-2
1.940475839E0;3.697276115E-1;6.460572481E-1;-8.480930328E-2
1.958514047E0;3.577902317E-1;7.589827776E-1;-3.352260590E-2
1.976541147E0;4.201662540E-1;7.345393896E-1;-5.839157104E-2
1.994590768E0;3.311119080E-1;5.717136264E-1;1.194572449E-2
2.012630990E0;5.783534050E-2;6.316437125E-1;-1.550712585E-1
2.030668771E0;-9.764432907E-2;5.581173897E-1;3.935241699E-2
2.048708322E0;-2.277791500E-1;6.163765788E-1;-6.558513641E-2
2.066746408E0;-4.674549103E-1;5.480172038E-1;-8.055019379E-2
2.084786142E0;-6.637518406E-1;7.832950354E-1;-2.511453629E-1
2.102824044E0;-5.480983257E-1;5.988492966E-1;9.633445740E-2
2.120863412E0;-8.279020786E-1;6.919381618E-1;-2.386503220E-1
2.138900888E0;-6.154403687E-1;7.359562516E-1;-6.757164001E-2
2.156941721E0;-5.415401459E-1;8.902187347E-1;1.033611298E-1
2.174979380E0;-4.855294228E-1;1.005324483E0;-8.314228058E-2
2.193018564E0;-3.640480042E-1;1.164886475E0;-1.557455063E-1
2.211056771E0;-3.183941841E-1;1.263321519E0;7.265377045E-2
2.229096688E0;-3.927652836E-1;1.424712062E0;-1.052541733E-1
2.247134652E0;-4.873087406E-1;1.676898360E0;7.959938049E-2
2.265173898E0;-6.256740093E-1;1.808592916E0;7.658004761E-4
2.283209299E0;-7.031214237E-1;1.954089761E0;8.866405487E-2
2.301253732E0;-8.105976582E-1;1.882924199E0;1.371612549E-1
2.319290842E0;-9.104995728E-1;1.674023628E0;2.615833282E-2
2.337329355E0;-1.108917952E0;1.605487704E0;-9.436130524E-2
2.355355355E0;-9.640765190E-1;1.587155104E0;1.322202682E-1
2.373407235E0;-6.603002548E-1;1.524080038E0;-9.546184540E-2
2.391443979E0;-7.111337185E-1;5.532177687E-1;-9.514942169E-1
2.409485910E0;4.925643921E0;4.374777317E0;1.975108147E0
2.427522470E0;-4.497768402E0;-5.517543554E-1;-3.244078636E0
2.445562631E0;1.944407105E0;1.133067846E0;6.627063751E-1
2.463600472E0;-3.458621502E-1;2.290466070E0;8.685359955E-1
2.481639901E0;-2.358639479E0;-3.370180726E-2;4.059743881E-1
2.499674569E0;-3.884193897E-1;2.188059807E0;-8.981418610E-2
2.517715463E0;-1.007537603E0;2.014478207E0;-4.548482895E-1
2.535755258E0;-8.920269012E-1;2.478333950E0;-1.789159775E-1
2.553795480E0;-1.814503908E0;1.456481576E0;1.229142189E0
2.571833566E0;-1.890949488E0;2.793085098E0;5.540466309E-2
2.589873361E0;-2.690658808E0;2.481643438E0;1.599302292E-1
2.607897286E0;-2.275593281E0;3.505332232E0;-1.556685925E0
2.625950509E0;-1.438386440E0;3.395077229E0;1.206724167E0
2.643987863E0;-2.296515703E0;2.133563042E0;-9.202384949E-1
2.662028573E0;-2.512578726E0;2.453087807E0;-1.015143394E0
2.680066842E0;-3.113199949E0;7.161015868E-1;-7.840309143E-1
2.698106271E0;-3.083756685E0;8.206580281E-1;-1.142556190E0
2.716139474E0;-1.746963501E0;-2.723559141E0;8.618707657E-1
2.734177560E0;-1.029491186E0;-1.625138044E0;-2.226382732E0
2.752222054E0;2.728739023E0;-2.102201462E0;9.323749542E-1
2.770261789E0;3.673716068E0;-3.365068734E-1;8.280258179E-1
2.788299569E0;4.364880085E0;3.545458555E0;-2.807538986E0
2.806339669E0;5.787038326E0;4.638285160E0;-1.026688576E0
2.824377328E0;6.009538651E0;4.027075768E0;5.743762970E0
2.842417123E0;3.559194803E0;4.353803635E0;-2.348311424E0
2.860455026E0;3.416745186E0;-8.203865290E-1;1.811344147E0
2.878482064E0;4.688958168E0;-1.000649810E0;4.698698997E0
2.896529611E0;8.949567080E-1;6.467415094E-1;-4.104657173E0
2.914576059E0;8.764272928E-1;-1.268090129E0;2.285140038E0
2.932610665E0;3.895044327E-2;-2.775100231E0;1.878115654E0
2.950650705E0;-2.212581635E0;2.057585001E0;-4.402295113E0
2.968677621E0;1.148906708E0;-2.756949186E0;7.016811371E-1
2.986727853E0;-2.299606562E0;-1.158016205E0;3.499608040E0
3.004766183E0;-1.249171495E0;6.663922220E-2;-3.759618759E0
3.022805978E0;-4.809799194E-1;-2.701611519E0;2.634049416E0
3.040844064E0;3.756904602E-2;5.225183964E-1;-3.168401718E-1
3.058883676E0;5.215808153E-1;-9.867497087E-1;6.069784164E-1
3.076921701E0;9.871066809E-1;3.329297543E0;-1.440273285E0
3.094961740E0;8.853517175E-1;-1.776131868E0;-4.145622253E-2
3.112988229E0;5.714071989E-1;2.398904562E0;3.770895004E-1
3.131039071E0;2.145671844E0;2.969034433E0;-5.510249138E0
3.149076974E0;2.346242905E0;-4.495438337E-1;5.448008537E0
3.167117013E0;2.260400295E0;2.204720020E0;-2.257299900E0
3.185154916E0;8.949120045E-1;-2.047411680E0;1.536567688E0
3.203191842E0;1.487162709E0;1.362447262E0;1.938257217E-1
3.221234384E0;-7.367135286E-1;-1.232277751E0;-2.331212997E0
3.239273752E0;-8.017766476E-2;-3.228694797E-1;2.544210434E0
3.257294077E0;-1.957130432E-1;-1.436746001E0;-1.659436226E0
3.275345773E0;-3.891932964E-2;5.392420292E-2;1.015094757E0
3.293392831E0;-1.052019358E0;2.007565498E-1;-3.100442886E0
3.311428598E0;2.880735397E-1;-1.442324638E0;3.529614449E0
3.329466134E0;-3.306903839E-1;-7.658690214E-2;-1.380882263E0
3.347505990E0;-7.166302204E-2;-2.434327602E0;-1.875991821E-1
3.365543771E0;4.728181958E-1;2.967374921E-1;1.464269638E0
3.383583749E0;-1.385056734E0;-8.563828468E-2;-9.348840714E-1
3.401621775E0;-2.619568110E-1;8.983396888E-1;-1.272325516E-1
3.419661020E0;-2.422723293E0;3.762295723E0;-1.598228455E0
3.437699716E0;2.687124610E-1;-1.854231238E0;1.355393410E0
3.455735665E0;3.551902294E0;1.945530176E0;1.292963028E-1
3.473777474E0;2.588438392E-1;1.629122734E0;2.716876984E0
3.491812875E0;2.807930470E0;-4.615635395E0;-1.629887581E0
3.509854989E0;1.200450063E0;-1.423518658E0;3.163681984E0
3.527899789E0;-7.814989090E-1;-4.509242475E-1;-2.767949104E0
3.545928109E0;3.514510393E-1;-7.598621249E-1;3.454208374E-1
3.563972421E0;3.010927200E0;-1.837021232E0;1.329479218E-1
3.582010812E0;1.940812349E0;-5.784317255E-1;8.625030518E-1
3.600050729E0;2.616049528E0;1.295496464E0;-1.619066238E0
3.618088693E0;2.353355408E0;-3.492148399E0;2.705967903E0
3.636120431E0;9.751763344E-1;1.767978668E0;-1.956200600E0
3.654164682E0;3.180319786E0;-2.301953077E0;1.663567543E0
3.672208078E0;1.950396299E-1;2.613046885E0;-4.505405426E-1
3.690244210E0;4.915399551E0;-1.158064723E0;-3.206128120E0
3.708283761E0;-1.800968289E0;-6.910703778E-1;3.245943069E0
3.726321847E0;-3.978917599E-1;-1.476698279E0;-2.939003944E0
3.744361703E0;2.257367373E0;-1.970236301E-1;2.333798409E0
3.762400033E0;2.263329029E0;-9.857367873E-1;-1.700456142E0
3.780439218E0;1.414810777E0;7.366584539E-1;1.090517044E0
3.798474680E0;4.145429134E-1;2.694793701E0;-1.013442039E0
3.816520395E0;8.829796314E-1;-9.164548516E-1;1.562016487E0
3.834555551E0;2.410422802E0;1.607223749E0;-1.171543121E0
3.852595041E0;1.897043228E0;-5.948469043E-2;5.225286484E-1
3.870622933E0;1.986496091E0;-3.200377226E-1;4.107666016E-2
3.888670235E0;2.098530054E0;9.310678244E-1;1.091530800E0
3.906714242E0;1.012057066E0;5.413590372E-2;-3.733768463E-1
3.924745919E0;1.280231476E0;-6.305754781E-1;8.994932175E-1
3.942793466E0;2.089897394E0;-1.422418952E-1;-1.178236008E-1
3.960828988E0;1.023015976E0;-3.321188688E-1;1.106803894E0
3.978867074E0;7.447481155E-3;-4.773591757E-1;-6.882658005E-1
3.996906625E0;7.957202196E-1;-1.693247080E0;1.364183426E0
4.014944162E0;5.617104769E-1;3.561985493E-1;-6.305646896E-1
4.032984384E0;1.390101433E0;-1.854848623E0;1.552116394E0
4.051022897E0;1.156544685E-2;1.324628234E0;7.986164093E-2
4.069062082E0;1.873610020E-1;-1.285611153E0;2.950658798E-1
4.087100412E0;5.988219976E-1;-1.192173600E0;8.654518127E-1
4.105128549E0;5.609210730E-1;8.907790184E-1;-6.572694778E-1
4.123178353E0;8.563601971E-1;-1.193484068E-1;6.477184296E-1
4.141216867E0;8.661959171E-1;-8.803181648E-1;6.709289551E-1
4.159257150E0;1.531153798E0;1.430903554E0;-5.494184494E-1
4.177296274E0;1.349043608E0;4.684153497E-1;1.131932259E0
4.195333383E0;1.396217465E0;1.000050783E0;-1.205160141E0
4.213373300E0;1.715433717E0;8.677728176E-1;1.771357536E0
4.231411508E0;1.598208904E0;5.556903481E-1;-7.226724625E-1
4.249450510E0;8.240225315E-1;3.728671968E-1;1.355678558E0
4.267490365E0;8.601289988E-1;1.202693701E0;-1.321039200E-1
4.285532541E0;7.418329716E-1;-9.941515923E-1;8.169116974E-1
4.303555490E0;-1.809597015E-3;1.151292682E0;1.538219452E-1
4.321607308E0;4.949681759E-1;-4.302546978E-1;5.477333069E-1
4.339651681E0;4.820797443E-1;-6.831648946E-1;1.148973465E0
4.357684945E0;9.919550419E-1;1.881947994E0;-8.309602737E-1
4.375711801E0;1.133515835E-1;8.937326670E-1;9.072437286E-1
4.393750985E0;-4.057173729E-1;1.279616952E0;1.287260056E-1
4.411796274E0;-1.408282042E0;3.262000561E0;-2.939329147E-1
4.429845102E0;-3.910305500E-1;3.043390751E0;-2.067213058E-1
4.447861398E0;-1.554895878E0;3.760598183E0;-5.890254974E-1
4.465918527E0;2.007906437E-1;3.151113987E0;3.842821121E-1
4.483944955E0;3.216047287E-1;4.191895485E0;1.855030060E-1
4.501996164E0;5.803222656E-1;1.984252214E0;3.951845169E-1
4.520034555E0;8.713853359E-1;3.554455519E0;6.744632721E-1
4.538074288E0;1.569574118E0;4.529537678E0;-8.351316452E-1
4.556109445E0;1.770372629E0;2.641205311E0;1.448731422E0
4.574154916E0;1.482756615E0;4.689597130E0;-4.395380020E-1
4.592190011E0;1.574402332E0;4.153904438E0;1.421499252E0
4.610230111E0;3.325105429E0;4.073188305E0;-1.107462883E0
4.628267953E0;2.351926088E0;3.252723217E0;1.757203102E0
4.646304635E0;2.907349110E0;3.330350518E-1;8.097934723E-2
4.664348581E0;3.082501411E0;1.739791155E0;2.258356094E0
4.682385812E0;3.909463406E0;6.528154016E-1;7.139711380E-1
4.700423959E0;4.245981216E0;2.215632677E0;1.272995949E0
4.718463449E0;4.649333000E0;1.359513760E0;1.185226440E-1
4.736501596E0;3.563882351E0;1.255057573E0;2.041839600E0
4.754541391E0;4.660384178E0;1.103872776E0;1.222499847E0
4.772579476E0;5.367923737E0;1.642512679E0;3.437643051E0
4.790619150E0;3.988578320E0;1.570955396E0;1.167033195E0
4.808657052E0;4.159501553E0;1.928628683E0;1.694285393E0
4.826696908E0;3.548568249E0;1.802382946E0;1.475090981E0
4.844735238E0;4.326808453E0;3.400990367E-1;3.005871773E0
4.862764901E0;4.672509193E0;2.536399126E0;7.062044144E-1
4.880809152E0;5.276113510E0;2.229106903E0;3.711843491E-1
4.898856393E0;5.656964302E0;1.435343921E-1;3.367568970E0
4.916891000E0;7.307298183E0;2.842697501E-2;2.235157967E0
4.934930185E0;5.379913330E0;1.126211166E0;4.473600388E-1
4.952968392E0;7.087661266E0;-2.176091194E0;2.430622101E0
4.971005380E0;6.314846039E0;-2.805954814E-1;1.884075165E0
4.989049752E0;6.899618149E0;-1.790827274E0;1.644042015E0
5.007085763E0;5.620768070E0;-7.589225173E-1;1.300725937E0
5.025123849E0;5.810812473E0;-9.110951424E-1;1.646286964E0
5.043164193E0;2.909020662E0;-1.969502449E0;-4.438743591E-1
5.061201486E0;3.251889467E0;-1.204995275E0;1.735976219E0
5.079242807E0;3.078377962E0;-1.694876194E0;2.024162292E0
5.097267953E0;3.407362223E0;-1.909807920E0;1.924898148E0
5.115319833E0;2.997535706E0;-3.380714655E-1;5.176591873E-1
5.133358103E0;2.711116791E0;-1.958456635E0;4.567623138E-2
5.151397287E0;1.054502010E0;-2.271852732E0;1.109442711E0
5.169435617E0;6.208770275E-1;-2.091463566E0;-6.166315079E-1
5.187471628E0;-8.013632298E-1;-1.661218643E0;-1.365922928E0
5.205517587E0;-1.558690071E-1;-3.109154463E0;5.480327606E-1
5.223552987E0;4.154729843E-1;-1.258374333E0;1.839229584E0
5.241595407E0;2.128121376E0;-2.628238440E0;8.308420181E-1
5.259629403E0;1.446332574E0;-1.006986141E0;-5.128593445E-1
5.277671090E0;3.204825401E0;-5.431371927E-1;2.323074341E-1
5.295705636E0;2.782468319E0;-2.792126536E-1;1.400384903E-1
5.313746896E0;2.697076559E0;1.400832295E0;-1.688947678E-1
5.331786020E0;3.185424089E0;7.877366245E-2;1.397047043E0
5.349826059E0;2.222215652E0;3.102670908E0;-7.407894135E-1
5.367861581E0;3.226538658E0;2.531903386E-1;4.854860306E-1
5.385902474E0;8.206846714E-1;1.600557089E0;5.530805588E-1
5.403939462E0;2.458173513E0;1.359146476E0;-2.893438339E-1
5.421983773E0;2.191231251E0;1.449139595E0;1.142244339E0
5.440020150E0;2.900760651E0;2.083658218E0;-2.778759003E-1
5.458058480E0;2.289837360E0;1.808230877E0;1.217538834E0
5.476093392E0;2.626168728E0;1.646629333E0;7.889251709E-1
5.494133371E0;3.181439877E0;1.102103829E0;2.272595406E0
5.512178781E0;2.551046610E0;1.792601824E0;1.301584244E-1
5.530213937E0;2.559219599E0;2.126843452E0;9.310626984E-1
5.548253793E0;2.683134079E0;1.868073821E0;9.506759644E-1
5.566292062E0;1.688390136E0;1.374661088E0;3.786411285E-1
5.584331430E0;2.531261683E0;8.122501969E-1;1.855936050E0
5.602369455E0;1.831772327E0;1.701102138E0;-5.181598663E-2
5.620409433E0;1.349123597E0;1.432140231E0;1.987831116E0
5.638447702E0;7.892599106E-1;7.709543705E-1;-8.407812119E-1
5.656487374E0;1.566576600E0;1.767633200E0;2.453387260E0
5.674525216E0;4.585866928E-1;4.880793095E-1;-1.102527618E0
5.692565316E0;1.495258570E0;2.660687864E-1;2.394880295E0
5.710603341E0;1.038992405E0;1.375450015E0;-3.657932281E-1
5.728642709E0;4.863667488E-1;2.414348125E-1;1.420192719E0
5.746680734E0;1.038100243E0;-2.171687931E-1;-5.570697784E-2
5.764720773E0;2.125144005E-1;-1.466913342E0;1.946787834E0
5.782756235E0;2.104783058E-2;1.822253108E0;-2.239850044E0
5.800801340E0;9.021048546E-1;-5.491697788E-1;7.364139557E-1
5.818836557E0;4.905447960E-1;-1.798796654E-2;1.785090446E0
5.836876779E0;1.115772605E0;-5.445839167E-1;-1.201047897E0
5.854896188E0;-5.737490654E-1;-1.467549562E0;1.530105591E0
5.872954110E0;-2.707571983E-1;-8.889683485E-1;-2.426319122E-1
5.890991769E0;-4.852538109E-1;-2.317915678E0;1.270335197E0
5.909032357E0;5.684552193E-1;-6.574056149E-1;-5.700092316E-1
5.927070443E0;6.690890789E-1;-9.577652216E-1;-6.119737625E-1
5.945109872E0;9.993040562E-1;-1.631481409E0;1.052030563E0
5.963148019E0;1.751863122E0;-1.689869761E0;1.218867302E0
5.981186838E0;9.242320061E-1;-6.086851358E-1;-1.973797321E0
5.999226694E0;1.644468069E0;-1.680895090E0;3.003646851E0
6.017263742E0;1.549594998E0;-2.342591137E-1;-2.263900280E0
6.035305368E0;1.680586338E0;-6.949669123E-1;3.877382278E-1
6.053343515E0;2.279126406E0;-2.165917873E0;6.698436737E-1
6.071381722E0;2.822704315E0;9.266051650E-1;3.940334320E-1
6.089409005E0;2.537965298E0;-4.494308233E-1;-2.066996098E0
6.107445687E0;2.784261942E0;-1.516675115E0;4.720808983E0
6.125499093E0;1.772130966E0;1.971534967E0;-1.661877632E0
6.143537240E0;2.740328312E0;-4.604878724E-1;4.016790390E-1
6.161575265E0;1.485506773E0;2.259458303E0;-4.242000580E-1
6.179615976E0;1.552333832E-1;1.175905764E-1;1.506017685E0
6.197654916E0;9.728724360E-1;2.693629980E0;-1.088129997E0
6.215694773E0;-8.675992489E-2;1.287606120E0;1.253590584E0
6.233731027E0;-8.845943213E-1;3.424894810E0;-1.078119278E-1
6.251767893E0;-1.234782338E0;2.771990299E0;-1.756024837E0
6.269813119E0;-2.907114983E0;4.690351486E0;-3.524103165E-1
6.287839913E0;-1.897995949E0;8.542120457E-1;-1.980453014E0
6.305887765E0;-2.295950890E0;2.827152967E0;9.973430634E-2
6.323926095E0;-1.617286682E0;3.964443445E0;-2.272809029E0
6.341966195E0;-1.475936651E0;1.043723583E0;-8.273353577E-1
6.360004281E0;-3.024259806E-1;2.697509050E0;-1.056288719E0
6.378034005E0;-1.063455343E0;2.223477602E0;-1.725819588E0
6.396078927E0;4.753710032E-1;2.388400078E0;5.611219406E-1
6.414124643E0;-8.159726858E-2;4.138180733E0;-1.457553864E0
6.432159982E0;1.992687285E-1;1.968404531E0;-1.276449203E0
6.450199533E0;1.385385633E0;2.704213142E0;-5.423545837E-3
6.468225717E0;1.109729409E0;2.519469023E0;-1.283340454E-1
6.486272775E0;1.661228418E0;2.578187227E0;-1.055425644E0
6.504315316E0;2.142184019E0;2.690385818E0;1.455049515E-1
6.522355050E0;2.275836945E0;1.709133625E0;2.167928696E0
6.540390207E0;1.403513908E0;-3.301984072E-2;4.241800308E-1
6.558436166E0;1.160700798E0;3.415380478E0;7.944278717E-1
6.576471322E0;1.299327612E0;-6.558855772E-1;-8.624229431E-1
6.594510751E0;1.152112961E0;6.327177286E-1;-2.965393066E-1
6.612535836E0;-2.600533068E-1;-6.158533096E-1;-5.891323090E-2
6.630588327E0;-9.972705245E-1;3.076087236E-1;1.808279037E0
6.648627695E0;-8.158798814E-1;-1.661180258E-1;-3.096940041E0
6.666666086E0;-1.354333162E0;-2.081451416E0;1.334347725E0
6.684704660E0;-6.838032007E-1;-7.644957900E-1;-7.463560104E-1
6.702744455E0;-1.554417849E0;-1.283416986E0;2.678242683E0
6.720782662E0;-1.032824993E0;-2.926773429E-1;-2.720327854E0
6.738822030E0;-1.650791764E-1;-1.960455418E0;2.429004669E0
6.756860238E0;4.458715916E-1;-4.133160114E0;2.357294083E0
6.774899545E0;-1.567830563E0;-5.339018703E-1;-3.226757050E-1
6.792938791E0;1.050593853E0;-2.881245375E0;-2.311951637E0
6.810977853E0;-6.403562427E-1;-2.869441748E0;4.804453850E0
6.829016244E0;7.255291939E-2;-2.502935886E0;-1.184808731E0
6.847044015E0;-1.304846525E0;-2.750592947E0;-1.283988953E-1
6.865093881E0;4.771219492E-1;-1.186124086E0;2.969932556E-2
6.883133615E0;9.756146669E-1;2.047032118E0;3.325099945E-1
6.901171578E0;1.242990613E0;-1.332661390E0;1.159995079E0
6.919211679E0;1.931637526E-1;5.789875388E-1;-2.177294254E0
6.937250131E0;-4.833623171E-1;8.052480221E-2;1.472840309E0
6.955289377E0;-1.526077628E0;2.073731422E0;-1.984786987E-2
6.973327218E0;-9.475976229E-1;1.803076029E0;-2.195955276E0
6.991367623E0;-3.098273277E-1;9.792039394E-1;7.363014221E-1
7.009403695E0;5.793416500E-2;-1.036818862E0;2.558011055E0
7.027446481E0;-8.754813671E-2;3.842064142E-1;1.911945343E-1
7.045483285E0;-2.661600113E-1;-1.377038598E0;2.757492065E-1
7.063523202E0;-6.417344809E-1;2.616662979E0;-1.434670448E0
7.081561228E0;-1.257186174E0;-2.696836472E0;-2.266568661E0
7.099600595E0;-1.110988379E0;1.111386299E0;4.022789955E0
7.117638864E0;-9.215103984E-1;-1.861361980E0;-2.116689205E0
7.135667062E0;-1.889271140E-1;8.265823722E-1;1.935432434E0
7.153715341E0;-4.433274865E-1;3.505725861E-1;-1.602411270E0
7.171758005E0;-5.624689460E-1;4.812654853E-1;1.380800247E0
7.189794503E0;-9.199891090E-1;3.179568052E-2;-2.558290482E0
7.207821908E0;-7.613745332E-1;-3.674170375E-1;1.604951859E0
7.225855660E0;-1.049461603E0;-2.402526379E0;2.419735909E0
7.243911813E0;-9.563958049E-1;8.379569650E-1;-5.253162384E-1
7.261950753E0;-1.078690767E0;-1.968073487E0;-1.909253120E0
7.279990426E0;-7.911082506E-1;-3.451091647E-1;1.110089302E0
7.298028451E0;-6.964987516E-1;2.856745243E0;-4.108943939E-1
7.316067941E0;-3.578910828E-1;-1.513957977E-5;5.222978592E-1
7.334106027E0;-5.684307218E-1;-1.098566771E0;-4.063376427E0
7.352145883E0;-6.054866314E-1;-2.596353531E0;3.215151787E0
7.370172251E0;-6.521027684E-1;1.685831308E0;-1.231837273E0
7.388222665E0;-4.383080602E-1;-9.535602927E-1;-7.467079163E-1
7.406262338E0;-3.726832867E-1;1.574978113E0;-2.076616287E-1
7.424301583E0;9.493848085E-1;-3.067182302E-1;4.730215073E-1
7.442339791E0;-1.909441352E-1;3.730875731E0;-1.529468536E0
7.460379403E0;-3.173394203E-1;-6.769723892E-1;2.255958557E0
7.478417367E0;6.152499914E-1;-1.075470448E-2;5.150499344E-1
7.496457406E0;1.061284781E0;5.361572742E0;-2.797757626E0
7.514496957E0;1.962184310E-1;-1.741303444E0;4.539008141E0
7.532534555E0;6.158094406E-1;-3.888607979E0;-1.367582321E0
7.550561532E0;7.788063884E-1;-1.682859421E0;2.175124168E0
7.568613168E0;5.079604387E-1;-1.413942456E0;-1.944379807E-1
7.586650949E0;1.372739792E0;-1.333588362E0;4.376662254E0
7.604693918E0;6.392576694E-1;8.254393935E-1;-1.552323341E0
7.622728891E0;1.597081900E0;-3.973787785E0;-2.001374245E0
7.640768869E0;1.446180105E0;2.152765274E0;2.890355110E0
7.658807076E0;1.044664025E0;-2.179659843E0;-4.917764664E-1
7.676846444E0;4.560592175E-1;1.221436024E0;1.564190865E0
7.694884652E0;6.454226375E-1;1.714621902E0;-3.307534695E0
7.712924691E0;1.925475597E0;-3.408678770E0;2.302507401E0
7.730962777E0;7.629895806E-1;5.088584900E0;-1.202053070E0
7.748990671E0;4.778554142E-1;-3.360109329E0;1.777566910E0
7.767039132E0;-8.628922105E-1;-1.197892070E0;1.403324127E0
7.785081491E0;-3.133193254E-1;9.333068728E-1;-5.157935619E0
7.803118539E0;4.931464493E-1;-1.287778854E0;5.436169624E0
7.821158212E0;-8.007497787E-1;3.007502556E0;-1.889796734E0
7.839196176E0;1.256793261E0;-4.076617718E0;1.487476349E0
7.857236215E0;9.667858481E-2;-2.544861555E0;3.884038925E0
7.875274301E0;7.148022652E-1;4.510992050E0;-4.050302982E0
7.893313546E0;-3.161983788E-1;-3.119038582E0;1.735809326E0
7.911350656E0;-8.734027743E-1;3.079090357E0;2.586011887E-1
7.929393197E0;-6.846953630E-1;-2.839521170E0;-3.811889172E0
7.947429818E0;-1.218011856E0;-9.359123111E-1;5.024838448E0
7.965469552E0;-1.320153475E0;7.520199418E-1;-6.054506302E-1
7.983504769E0;-1.180976510E0;-2.755945921E0;-2.544784546E-2
8.001547677E0;-4.234825075E-1;-1.046433330E0;4.632243156E0
8.019585763E0;-2.647362709E0;3.180584311E-1;-5.275311470E0
8.037625375E0;-1.255940914E0;-2.612052917E0;1.719725609E0
8.055663400E0;-1.939810157E0;-1.265346766E0;3.589122772E0
8.073703500E0;-9.736219645E-1;-6.353076696E-1;-4.602054119E0
8.091741586E0;-1.323541880E0;3.218682766E0;3.039617538E0
8.109780832E0;8.437671065E-1;1.641807795E0;-1.996149540E0
8.127813058E0;3.665915132E-1;-1.770741701E0;1.097950935E0
8.145851327E0;5.785876513E-1;1.686150432E-1;1.466062546E0
8.163901070E0;-2.316994071E-1;7.891930342E-1;-1.161648750E0
8.181936898E0;5.648796558E-1;-1.870212555E-1;1.533367157E0
8.199975167E0;-4.755817056E-1;4.885867238E-1;-1.369572639E0
8.218015023E0;2.295248508E-1;2.676562071E-1;4.045391083E-1
8.236053109E0;-7.299963236E-1;-3.496707439E0;4.493875504E-1
8.254092599E0;-5.003461242E-1;4.934025407E-1;-9.632358551E-1
8.272121163E0;2.008923292E-1;-3.776358962E-1;4.571561813E-1
8.290169198E0;-9.110682011E-1;9.356041551E-1;9.388160706E-1
8.308210458E0;-1.236720085E0;-3.118674278E0;-1.412935257E-1
8.326248361E0;-1.950280428E0;2.888119221E0;-3.192562103E0
8.344286203E0;-8.010786176E-1;-2.133800983E-1;1.970823288E0
8.362315072E0;-3.052061081E0;8.205677271E-1;6.219816208E-1
8.380365488E0;-1.370170712E0;-4.598391354E-1;-3.285223961E0
8.398403269E0;-2.487949133E0;1.909336805E0;2.165123940E0
8.416442025E0;-1.688491583E0;-4.277647138E-1;-7.000999451E-1
8.434482247E0;-2.919699669E0;-6.140739918E-1;1.085223198E0
8.452515756E0;-1.786161542E0;-6.266492605E-1;1.127523422E0
8.470559884E0;-2.336980820E0;-1.254225850E0;-3.767709732E-1
8.488598214E0;-2.083316088E0;-1.760665417E0;2.406506538E0
8.506628793E0;-2.096291065E0;2.344711304E0;-3.035622120E0
8.524673166E0;-1.815464377E0;-1.463983893E0;2.295575142E0
8.542718576E0;-1.780483007E0;3.921608925E-1;2.244080544E0
8.560753854E0;-1.342342615E0;1.724249125E0;-2.948967457E0
8.578794015E0;-1.125953197E0;-1.154272556E0;3.023396492E0
8.596831918E0;-8.053984642E-1;1.856165051E0;-6.336278915E-1
8.614871652E0;-1.613461256E0;-1.664645433E0;6.740541458E-1
8.632909494E0;-1.035403013E0;8.424488902E-1;-9.672927856E-2
8.650949594E0;-1.987074018E0;1.238597155E0;-2.130182743E0
8.668984689E0;-1.359297752E0;3.632485867E-2;2.071358681E0
8.687030160E0;-9.842380285E-1;-1.065735936E0;7.156152725E-1
8.705065316E0;-1.766823769E0;1.479536057E0;-2.095003128E-1
8.723105233E0;-2.212759972E0;1.878429055E-1;-1.213966370E0
8.741136605E0;-1.663667202E0;5.048462391E0;4.843168259E-1
8.759184640E0;-6.497900486E-1;-1.493635893E0;1.441113472E0
8.777219369E0;-1.520791531E0;1.522374392E0;1.139567375E0
8.795259958E0;-1.684974074E0;9.558990002E-1;-3.409538269E-1
8.813300607E0;-1.953428984E0;-1.059877276E0;1.064240456E0
8.831337716E0;-2.224585056E0;-7.541613579E-1;9.674816132E-1
8.849378061E0;-2.077972412E0;-1.476850033E0;3.195125580E0
8.867416818E0;-1.878182411E0;1.557189941E0;4.779396057E-1
8.885454965E0;-2.649201870E0;2.475850105E0;-3.040847301E0
8.903494638E0;-2.990757704E0;-4.211937189E-1;-8.447456360E-2
8.921531197E0;-2.200407505E0;-3.902490139E-1;2.276266098E0
8.939573740E0;-1.387843728E0;1.193606853E-2;3.079552650E0
8.957611031E0;-1.209301353E0;-8.087344170E-1;2.468349457E0
8.975638559E0;-9.493348598E-1;2.656037569E0;1.022301674E0
8.993688302E0;-7.902338505E-1;1.050735831E0;-1.670997620E0
9.011728341E0;-9.314155579E-1;5.048470497E-1;2.369604111E0
9.029766488E0;-1.399448633E0;-7.297176123E-1;1.432867050E0
9.047805734E0;-1.749378562E0;2.747607231E-1;1.421513557E0
9.065840219E0;-1.936409950E0;2.592728138E0;-3.512369156E0
9.083884103E0;-5.569646358E-1;-1.108764172E0;3.040189743E0
9.101922189E0;-1.605997562E0;-1.249013901E0;6.419982910E-1
9.119961557E0;-5.821070671E-1;-1.446389675E0;7.391138077E-1
9.137998117E0;-7.977385521E-1;-1.222165585E0;1.985768318E0
9.156041696E0;-8.683975935E-1;-3.931584358E-1;1.791496277E-1
9.174077950E0;-5.095784664E-1;2.018681288E0;3.273324966E-1
9.192117502E0;-8.352322578E-1;7.829934955E-1;-6.205520630E-1
9.210155648E0;-1.361527801E0;2.269694090E0;-6.753787994E-1
9.228195626E0;-1.075301886E0;3.372102976E-1;-1.441959381E0
9.246229135E0;-4.635996819E-1;-1.006980181E0;1.774971962E0
9.264272958E0;-1.095727205E0;-1.606638432E-1;1.282167435E-1
9.282311349E0;-1.492455959E0;-2.073246956E0;3.037355423E0
9.300351205E0;-2.170481682E0;-2.268898487E0;-2.635808945E0
9.318389596E0;-1.394140959E0;-2.176401138E0;6.427984238E-1
9.336429269E0;-2.737648964E0;-8.420139551E-2;1.253005981E0
9.354461557E0;-2.582404613E0;4.854349494E-1;-1.594183445E0
9.372507150E0;-2.117304802E0;-1.692011833E0;7.409963608E-1
9.390545236E0;-1.986027837E0;1.246171713E0;1.504285812E0
9.408584543E0;-2.229643345E0;-1.297436953E0;5.410776138E-1
9.426622750E0;-2.152293444E0;-2.371865273E0;4.862833023E0
9.444662851E0;-3.154584408E0;1.405225039E0;-7.205705643E-1
9.462701119E0;-2.914558411E0;2.116699815E-1;-5.335416794E-1
9.480740548E0;-3.123841286E0;-2.457051992E0;3.253746033E-1
9.498778390E0;-2.091976881E0;-5.627509356E-1;1.373506546E0
9.516818307E0;-2.180106401E0;7.379722595E-2;-2.928275108E0
9.534856943E0;-1.816900015E0;-7.732689381E-1;3.746738434E-1
9.552896066E0;-2.667896509E0;-2.039379835E0;1.291831970E0
9.570934396E0;-1.624657631E0;-7.894451022E-1;6.073722839E-1
9.588974252E0;-9.979643822E-1;8.548184037E-1;4.178437233E0
9.607012583E0;-2.976556778E0;-1.047660589E0;-4.481366634E0
9.625051584E0;-3.241936922E0;5.246053338E-1;2.790908813E0
9.643088205E0;-3.358086586E0;-2.171019554E0;3.801654816E0
9.661129953E0;-1.982776642E0;2.426568031E0;6.993007660E-2
9.679168160E0;-3.294304848E0;-1.393977404E0;2.070505142E0
9.697207589E0;-2.113825560E0;-1.929146767E0;-9.335308075E-1
9.715245919E0;-1.778577566E0;-5.974308252E-1;1.958413124E0
9.733273812E0;-1.108188152E0;-3.610894680E-1;1.033858299E0
9.751322946E0;-2.280968904E0;8.660010099E-1;1.048213959E0
9.769364267E0;-2.555073977E0;3.577567935E-1;-1.842050552E-1
9.787399362E0;-3.079249859E0;8.629888296E-2;-9.830760956E-1
9.805443063E0;-1.798976541E0;3.139774799E-1;4.219391823E0
9.823479562E0;-3.050693512E0;2.177256584E0;1.127243042E0
9.841519174E0;-2.785943270E0;-1.895205617E0;2.037996292E0
9.859556955E0;-3.400122643E0;1.830813289E-1;1.816555023E0
9.877585397E0;-2.606250763E0;-1.043138504E0;-1.410961151E-2
9.895632272E0;-2.608421564E0;-3.437711954E0;1.945486069E0
9.913677438E0;-3.094801664E0;-3.521774709E-1;1.121063232E0
9.931712777E0;-3.085020542E0;2.197897434E-2;3.895292282E-1
9.949752999E0;-2.203742266E0;-3.859152198E-1;-1.063632965E0
9.967790658E0;-2.676320076E0;-1.381394267E0;4.414309502E0
9.985826486E0;-2.002403259E0;2.373297215E0;-2.499361038E-1
1.000386854E1;-2.760022163E0;-3.263294995E-1;6.609165192E0
1.002190821E1;-2.731827259E0;2.521953583E-1;1.872332573E0
1.003994666E1;-3.845301867E0;1.791425705E0;-1.863160610E0
1.005798597E1;-3.189610720E0;9.035494924E-1;7.704887390E-1
1.007601960E1;-2.406598568E0;-3.500344515E0;4.204181671E0
1.009406434E1;-2.343469143E0;6.591165066E-2;1.024247169E0
1.011209931E1;-2.618317842E0;2.023074031E-1;-1.486276150E0
1.013014155E1;-7.899081707E-1;-4.428482533E0;3.225637436E0
1.014818006E1;-1.775302052E0;2.420739174E0;3.074274063E-1
1.016621986E1;-2.487903118E0;-1.980847597E0;2.573175430E0
1.018425770E1;-1.868013501E0;1.090381145E0;1.961843491E0
1.020229737E1;-2.507294416E0;-2.928066015E0;2.242517471E0
1.022033576E1;-4.189032555E0;-1.649654150E0;-7.403106689E-1
1.023837562E1;-4.576787949E0;2.595346570E-1;-2.021725655E0
1.025641615E1;-3.565030098E0;-1.252604127E0;3.757599831E0
1.027444978E1;-2.061959982E0;2.515337467E0;4.391574860E-2
1.029249446E1;-2.485541344E0;-2.463890791E0;2.797874451E0
1.031053138E1;-1.931248903E0;-5.658297539E-1;2.908790588E0
1.032856947E1;-2.248909950E0;-1.173622131E0;-9.979124069E-1
1.034660896E1;-1.984984756E0;-2.030978203E0;3.518997192E0
1.036464704E1;-1.953848839E0;1.758690357E0;-3.143692017E-1
1.038268702E1;-3.036983252E0;3.650073290E0;4.449710846E-1
1.040072138E1;1.325980902E0;-1.485463738E0;9.334945679E-1
1.041876148E1;-1.205624819E0;-4.126084328E0;4.316992760E0
1.043680586E1;-4.333765507E0;2.139707565E0;-2.242376328E0
1.045484260E1;-3.203654766E0;-2.199434519E0;2.534620285E0
1.047288099E1;-2.094211340E0;3.884440660E-1;3.553555489E0
1.049090900E1;-2.460493088E0;-1.061551571E-1;-4.422225475E0
1.050895539E1;-3.364447117E0;-5.875928402E0;4.705149651E0
1.052700135E1;-2.532770634E-1;1.061541319E0;-1.153841019E0
1.054503162E1;-1.696108460E0;9.144749641E-1;-4.438420773E0
1.056308064E1;-5.393156052E0;-5.904810429E0;1.695962906E0
1.058111378E1;-1.925129771E0;2.064928532E0;6.736631393E-1
1.059915394E1;-2.121652603E0;-1.814599633E0;-1.617799282E0
1.061719203E1;-2.495974064E0;-7.779729366E-1;1.240695953E0
1.063523152E1;-1.731353283E0;-8.854866624E-1;9.429073334E-2
1.065326978E1;-1.627506375E0;-2.122979164E0;-3.072814941E-1
1.067130891E1;-2.282708406E0;-1.587030053E0;1.987510681E0
1.068934870E1;-2.173276424E0;1.322879314E0;1.395122528E0
1.070738697E1;-2.214361429E0;2.466024637E0;-9.306278229E-1
1.072541059E1;-3.080621004E0;-2.513137341E0;1.189780235E0
1.074346845E1;-2.600551128E0;-1.931584120E0;3.216372490E0
1.076150355E1;-3.151312828E0;5.674644709E-1;-2.533433914E0
1.077954298E1;-2.165380001E0;-4.872262955E0;5.612015724E0
1.079758033E1;-1.797558904E0;9.908002019E-1;8.768301010E-1
1.081562159E1;-2.046781063E0;-3.058492184E0;1.051706314E0
1.083365913E1;-2.569092751E0;-3.034598112E0;1.810816765E0
1.085169874E1;-1.906493425E0;1.504619002E0;-1.449140549E0
1.086972675E1;-1.289214730E0;-1.634711266E0;5.333147049E-1
1.088776972E1;-2.422672749E0;-1.787382841E0;2.481145859E-1
1.090581410E1;-2.227183104E0;4.012962580E-1;2.115373611E-1
1.092385407E1;-8.925099373E-1;1.606131911E0;3.593425751E0
1.094189240E1;-1.312133789E0;-3.710324764E0;-3.339425087E0
1.095993256E1;-2.030542135E0;2.071436167E0;1.935122490E0
1.097797028E1;-1.812934399E0;-1.965734959E-1;-6.739206314E-1
1.099601008E1;-2.173119068E0;-3.233052731E0;2.961565971E0
1.101404774E1;-1.379236460E0;-9.965372086E-2;-3.535497189E0
1.103208753E1;-1.358657956E0;-3.899009228E0;2.897813797E0
1.105012654E1;-2.553078413E0;-8.615413904E-1;1.908540726E-1
1.106816535E1;-9.310239553E-1;-1.344129205E0;-3.008050919E-1
1.108620082E1;-5.391154289E-1;-1.291182399E0;-1.103677750E-1
1.110423725E1;-1.226220250E0;-3.803068995E-1;-4.654979706E-2
1.112228169E1;-8.672593832E-1;-8.238562346E-1;2.393189430E0
1.114032130E1;-8.990602493E-1;1.719852686E0;-4.303712845E-1
1.115835957E1;-1.215315223E0;-7.700996399E-1;2.054069519E0
1.117640077E1;-2.087471247E0;-2.022594452E0;1.748952866E-1
1.119443604E1;-2.799407959E0;-1.815480471E0;-6.220054626E-1
1.121247700E1;-2.791657209E0;1.711787462E0;-1.358355522E0
1.123051496E1;-1.346184731E0;-2.063735962E0;3.891878128E-1
1.124854322E1;-2.283163548E0;-1.019515991E-1;8.408384323E-1
1.126659162E1;-3.376703262E-1;-2.961435556E0;3.754981995E0
1.128463392E1;-1.848036528E0;1.319867015E0;-2.914817333E0
1.130267054E1;-1.979270816E0;-1.210973382E0;7.028484344E-1
1.132071052E1;-1.095569015E0;1.600634933E0;2.583790779E0
1.133874867E1;-2.225284815E0;-2.731417179E0;-3.523557663E0
1.135678840E1;-2.339176416E0;-1.774079084E0;4.799688339E0
1.137482624E1;-2.126262426E0;2.945564747E0;-9.387283325E-1
1.139286610E1;-2.083470106E0;6.033456326E-1;-1.972951889E0
1.141090430E1;-1.246588826E0;-6.682851911E-1;2.856153488E0
1.142894404E1;-1.303104997E0;6.469507217E-1;-1.620793343E0
1.144698200E1;-1.698975801E0;-3.589819431E0;1.940514565E0
1.146502186E1;-2.467874527E0;-2.695567012E-1;1.345084190E0
1.148304408E1;-1.958366632E0;1.260054588E0;-2.592030525E0
1.150109644E1;-8.606799841E-1;-4.540858269E-1;2.030368805E0
1.151914045E1;-6.591649055E-1;-1.542481422E0;-1.080827713E0
1.153717762E1;-1.803131342E0;-2.843494415E-1;1.017240524E0
1.155521565E1;-2.245836258E0;-2.118839264E0;-4.266796112E-1
1.157325526E1;-2.110559940E0;-2.010383844E0;4.031737328E0
1.159129243E1;-1.515375733E0;-1.603785753E-1;-8.324232101E-1
1.160933418E1;-2.297304630E0;-3.483414054E-1;1.371010780E0
1.162735951E1;-2.439557791E0;-5.983405113E-1;-1.234045982E0
1.164541065E1;-2.584445953E0;-5.466773987E0;4.105711937E0
1.166344898E1;-2.884278536E0;2.601481676E0;3.401641846E-1
1.168148878E1;-2.869468212E0;-2.639502525E0;-2.749976158E0
1.169952686E1;-3.426300764E0;8.839061260E-1;2.544334412E0
1.171756629E1;-1.743067384E0;-4.548010349E0;1.865167618E-1
1.173560462E1;-1.585872769E0;-1.916193485E0;4.257070541E0
1.175364460E1;-2.589689732E0;4.487287998E-2;-2.083703518E0
1.177168251E1;-3.445366621E0;-1.569328308E0;2.814438820E0
1.178972193E1;-2.777100801E0;-1.844952822E0;7.614641190E-1
1.180776014E1;-2.856693745E0;-4.493599892E0;1.627744675E0
1.182579652E1;-1.999559522E0;5.158950686E-1;2.572248459E0
1.184383796E1;-3.110283613E0;-7.566043735E-1;-1.211913109E0
1.186186817E1;-2.544952869E0;-1.954509974E0;3.239610672E0
1.187991206E1;-2.669925451E0;-7.959132791E-1;-2.315492630E-1
1.189795960E1;-2.711165667E0;-5.675092340E-1;3.509420395E0
1.191599372E1;-2.231401205E0;7.041824460E-1;-2.863998413E-1
1.193403321E1;-2.882409573E0;-2.581057310E0;1.777330399E0
1.195207148E1;-2.481910706E0;9.819388390E-1;6.978092194E-1
1.197011140E1;-2.648170233E0;2.677736521E0;6.330108643E-2
1.198814948E1;-1.488575101E0;2.949517965E-2;3.898173332E0
1.200618879E1;-2.289959908E0;-2.822124958E-2;-1.538938999E0
1.202422370E1;-2.106580019E0;-5.211584091E0;4.567992210E0
1.204227015E1;-1.145467997E0;6.532002687E-1;2.616271973E0
1.206030500E1;-1.846825123E0;-1.344844341E0;-2.499792099E0
1.207834461E1;-2.438414574E0;-3.921034098E0;3.018740654E0
1.209637074E1;-3.754302025E0;-2.420864105E0;-1.460585117E0
1.211442268E1;-2.493833542E0;-3.513893127E0;4.095450401E0
1.213246082E1;-2.743409634E0;-3.387954831E-1;-3.006192207E0
1.215050031E1;-3.294539690E0;-5.078015327E0;2.057429314E0
1.216853614E1;4.389555454E-1;1.416110396E0;7.598925591E0
1.218658021E1;-8.521056175E-1;-3.150513172E0;-2.817189693E0
1.220461640E1;-4.151538849E0;-1.759972334E0;2.254745483E0
1.222265571E1;-2.301217318E0;-5.126800537E-1;2.544952393E0
1.224069380E1;-1.821508408E0;4.140469551E0;-7.033920288E-2
1.225872987E1;-9.818291664E-1;-1.223836064E0;1.794470787E0
1.227677619E1;-1.743736744E0;-2.392260551E0;-1.204757690E0
1.229481153E1;-5.564522743E-1;-1.757400990E0;2.296548843E0
1.231284974E1;-7.782883644E-1;-2.114271641E0;-5.929880142E-1
1.233088978E1;-2.026426792E-1;-1.398175359E-1;4.750289917E-1
1.234892756E1;-1.720633507E-1;-5.687093258E0;2.332037926E0
1.236696736E1;6.572484970E-3;-1.779062271E0;-3.933973312E-1
1.238500495E1;-1.311119199E0;-5.705674291E-1;2.460550308E0
1.240304597E1;6.118545532E-1;-1.206654549E0;1.453484535E0
1.242108265E1;-1.260797977E-1;3.954339027E-1;-3.369202614E0
1.243912293E1;-4.611741304E-1;-2.227732182E0;2.551637650E0
1.245716096E1;4.013521671E-1;7.232416868E-1;-2.330587864E0
1.247518885E1;-1.156311035E-1;-7.609577179E-1;-1.695261002E-1
1.249323884E1;5.837695599E-1;-4.690579891E0;2.808011055E0
1.251127754E1;4.356229305E-1;2.189278603E-1;-9.499368668E-1
1.252931739E1;-4.304856062E-1;-7.466501594E-1;3.585128784E-1
1.254735627E1;-7.356882095E-1;1.533529043E0;-2.575024605E0
1.256539466E1;-6.838243604E-1;-3.139766216E0;1.071883202E0
1.258343415E1;4.476666451E-3;2.251840115E0;-1.857886791E0
1.260147224E1;-7.501654029E-1;-2.167085409E0;7.911863327E-1
1.261951173E1;1.472121477E-1;-2.188418865E0;1.072998047E0
1.263754737E1;-1.554918289E-2;-3.166786432E0;-4.405136108E0
1.265559254E1;6.921052933E-2;-2.703945637E0;3.952518463E0
1.267362776E1;-1.090070009E-1;-2.383356094E-1;-2.533523560E0
1.269166670E1;8.971297741E-2;-2.363258600E-1;1.767845154E0
1.270970710E1;1.997906566E-1;5.075097084E-2;-5.153226852E-1
1.272773347E1;1.095430017E0;-4.137382507E-1;-6.446237564E-1
1.274577961E1;7.056087852E-1;-2.030416012E0;6.718826294E-1
1.276382313E1;1.257893324E0;-3.781509399E-1;-8.176927567E-1
1.278185847E1;8.982064724E-1;-2.797633648E0;6.188964844E-1
1.279990388E1;1.200248718E0;2.219119072E-1;-1.155563354E0
1.281793934E1;8.966927528E-1;-1.881448150E0;4.973726273E-1
1.283597932E1;7.121956348E-1;-2.418123484E-1;8.529310226E-1
1.285400556E1;3.411013186E-1;-2.201060534E0;-1.346036911E0
1.287205665E1;1.028929472E0;-2.477074862E-1;2.245012283E0
1.289009455E1;1.391491771E0;-8.538998961E-1;-3.310103893E0
1.290813465E1;7.215378881E-1;-2.525507450E0;1.914526939E0
1.292617420E1;7.867768407E-1;-1.001040101E0;-9.640951157E-1
1.294421095E1;1.072257280E0;-2.097131014E0;1.270158768E0
1.296225062E1;1.124997735E0;-7.682704926E-1;-1.631988525E0
1.298029029E1;1.167581916E0;8.564485312E-1;1.646173477E0
1.299831489E1;1.340326428E0;-3.707492352E0;-1.220345497E0
1.301636683E1;1.287205517E-2;4.716683626E-1;-1.920995712E-1
1.303440724E1;4.167662561E-1;-1.402178526E0;-7.860527039E-1
1.305244618E1;-4.561589360E-1;-6.545181870E-1;8.609437943E-1
1.307048420E1;2.249178886E-1;-2.602350473E0;-1.039995193E0
1.308852381E1;-8.436697721E-1;-1.284971714E0;1.049158096E0
1.310656159E1;-8.294813037E-1;-1.686049223E0;1.167011261E-2
1.312460194E1;-1.338068604E0;5.114799738E-1;-2.803382874E-1
1.314263947E1;5.961364508E-2;-8.440269232E-1;-1.167580605E0
1.316067902E1;9.060040116E-1;1.739258528E0;6.617021561E-1
1.317871784E1;-6.720123291E-1;5.162837505E-1;-2.755891323E0
1.319675746E1;-1.435154438E0;3.594428539E0;1.054162979E-1
1.321479579E1;1.050307751E0;4.578464508E0;2.048578262E-1
1.323282307E1;-2.234068364E-1;4.912749767E0;8.051214218E-1
1.325087287E1;5.703485012E-1;4.438071251E0;1.400691032E0
1.326891291E1;1.406878531E-1;3.271281719E0;1.679629326E0
1.328695106E1;-2.249449939E-1;4.967558384E-1;2.521157265E0
1.330499152E1;2.616196632E0;-6.112829208E0;6.455520630E0
1.332302748E1;3.590746880E0;-1.042657661E1;5.802816391E0
1.334106861E1;4.342410088E0;-1.553051567E1;1.826625443E1
1.335910713E1;3.040589333E0;-2.118478775E0;-6.900215149E-1
1.337714607E1;6.603823900E-1;-5.305378437E-1;-7.640708923E0
1.339518055E1;-1.392209530E-2;2.399853706E0;-3.657456398E0
1.341322834E1;-4.480749369E-1;1.575389624E0;-1.186389732E1
1.343126155E1;1.824697375E0;5.660171986E0;-4.128335476E0
1.344930280E1;3.945527971E-1;9.685471058E-1;-1.142280579E1
1.346733997E1;3.642682731E-1;2.206398964E0;-3.327129841E0
1.348537995E1;2.055263519E0;-5.070498466E0;2.108567047E1
1.350341804E1;4.082930088E0;2.991399288E0;-1.308407784E0
1.352145448E1;2.110821009E-1;-9.257576942E0;1.448582935E1
1.353949684E1;4.000479698E0;1.437424183E1;-1.539281845E0
1.355753584E1;-3.474236727E0;-4.484059334E0;-2.646739960E1
1.357557386E1;3.384134531E0;2.762932062E0;7.631620407E0
1.359361335E1;1.824133873E0;-7.451703548E0;1.606886482E1
1.361163972E1;-1.745688915E0;4.168506145E0;-1.192859745E1
1.362969123E1;3.562247753E-2;3.738759518E0;-3.213883877E0
1.364772450E1;1.013847828E0;-1.752565026E0;3.517854691E0
1.366576496E1;2.350545883E0;-3.276520252E0;4.928547859E0
1.368380750E1;1.559416413E0;2.034635544E0;2.579572678E0
1.370184620E1;8.960269690E-1;2.068614483E0;-6.185051441E0
1.371988514E1;2.143544436E0;9.604165554E-1;2.478615761E0
1.373792463E1;1.362395406E0;1.081347108E0;-1.221876144E0
1.375596009E1;2.896581173E0;-6.408208609E-1;5.966854095E-1
1.377400190E1;-2.100370884E0;1.560178280E1;-4.257086754E0
1.379202979E1;5.151408672E0;-3.027922153E0;6.572093964E0
1.381008015E1;1.621099710E0;-1.495456409E1;6.996875763E0
1.382811799E1;3.767908812E-1;-6.394950390E0;-2.071284771E0
1.384615370E1;2.730713606E0;3.756021976E0;-3.563214302E0
1.386419612E1;-7.015531063E-1;-5.538473606E0;3.301191330E0
1.388223597E1;1.183604240E0;1.750407457E0;-5.019264221E-1
1.390025947E1;3.315630436E0;1.803982258E-2;2.271079063E0
1.391831654E1;4.777293205E0;-4.459012985E0;5.567529678E0
1.393635200E1;2.329353809E0;6.177942753E0;-5.869256973E0
1.395439143E1;5.291235447E-1;3.099952221E0;-8.777409554E0
1.397242957E1;-5.949684381E-1;-6.156277657E0;1.058547115E1
1.399045783E1;2.924379349E0;3.115885258E0;4.562184334E0
1.400850746E1;-5.296921730E-2;3.900688171E0;-6.067936420E0
1.402654688E1;2.657723427E-1;-4.591209888E0;7.542232513E0
1.404458534E1;1.849359870E0;-1.918235421E-1;1.287806511E0
1.406262226E1;9.089590907E-1;6.835233569E-1;-4.670217991E0
1.408066627E1;2.313307762E0;-3.999704361E0;3.569247246E0
1.409870271E1;4.137125015E0;-2.761121273E0;1.438862801E0
1.411674104E1;1.232575893E0;-1.971336722E0;1.618322372E0
1.413477552E1;-9.200077057E-1;5.596199036E0;-9.919228554E0
1.415281727E1;-1.667363167E0;-6.552367210E0;1.036158371E1
1.417085993E1;-3.741073608E0;1.645036817E0;1.227272987E0
1.418889637E1;4.530307055E-1;-7.078260899E0;-3.934604645E0
1.420693653E1;-2.580919266E0;1.442686081E0;5.846650124E0
1.422497450E1;-2.620384693E0;2.165976048E0;-7.037645817E0
1.424301374E1;1.287010789E0;-3.890370131E-1;-3.340415955E0
1.426105201E1;-1.791688204E0;1.748948693E0;3.102071762E0
1.427909199E1;3.558901072E0;3.309997320E-1;-4.557452202E0
1.429713020E1;2.647869110E0;4.054241657E0;4.241075516E-1
1.431516981E1;2.946551323E0;1.724515676E0;-9.885797501E-1
1.433320765E1;1.375042558E0;1.512424231E0;-1.919975281E-1
1.435124702E1;2.829409122E0;4.996549129E0;-2.191070557E0
1.436928028E1;3.104644299E0;2.369065762E0;-7.534313202E-2
1.438732496E1;4.810445309E0;1.854404211E0;1.299756050E0
1.440536335E1;2.838559628E0;2.870642185E0;-4.973516464E-1
1.442340339E1;2.849257946E0;4.529720306E0;-5.605602264E-1
1.444143897E1;2.626006365E0;-2.591143370E0;-6.282510757E-1
1.445948353E1;2.574766159E0;4.031417370E0;5.127544403E-1
1.447751899E1;2.064023972E0;4.740893364E0;-1.575111389E0
1.449555915E1;3.661684990E0;2.219827175E0;1.966426849E0
1.451359687E1;2.928320408E0;1.788154840E0;-1.781793594E0
1.453163362E1;2.957443476E0;-4.543151855E-1;2.443175316E0
1.454967750E1;2.761520386E0;-4.376213551E-1;-1.540817261E0
1.456772450E1;1.647387981E0;1.808830142E0;3.286991119E-1
1.458574909E1;3.027987003E0;1.137457728E0;-1.735030651E0
1.460379231E1;3.441470861E0;3.550152779E-1;-1.447414398E0
1.462183021E1;3.571331501E0;-2.476053238E0;1.161775589E0
1.463987019E1;3.589710474E0;-4.755618572E-1;5.296165466E0
1.465789808E1;3.979587078E0;-3.202355862E0;3.557586670E-1
1.467594776E1;3.130132437E0;1.972138882E-1;2.437711716E0
1.469398597E1;3.363432646E0;1.974230886E0;-4.783935070E0
1.471202601E1;2.154212713E0;-2.515554428E0;3.658478737E0
1.473006403E1;1.524307370E0;7.131072283E-1;1.635348320E0
1.474809162E1;2.049883604E-1;1.436171532E-1;-4.205209732E0
1.476614167E1;-6.799712181E-1;9.206955433E-1;-4.742317200E-1
1.478418128E1;-5.057096481E-1;-2.956851006E0;-3.756927490E0
1.480221961E1;-1.431985378E0;-1.351870060E0;6.312403679E0
1.482025593E1;1.230635524E0;-2.064140320E0;-1.876365662E0
1.483830036E1;-2.925670147E-1;1.020722389E0;-1.218473434E0
1.485633723E1;1.627588987E0;-6.993100166E0;-3.611660004E-2
1.487437513E1;-8.405771255E-1;3.926238298E0;-3.078878403E0
1.489240266E1;1.443600416E0;-1.244678593E1;-2.586262703E0
1.491045161E1;2.968847752E0;4.063737392E0;8.565571785E0
1.492849391E1;3.813883781E0;-1.002421761E1;-2.554740906E-1
1.494653065E1;-2.278119326E-1;-1.773957610E0;3.133991241E0
1.496457032E1;2.467585087E0;-7.926165104E0;3.623223305E0
1.498260822E1;-2.278372526E0;-2.150506973E0;-1.412094116E0
1.500064832E1;-2.039217949E-2;-1.822402239E0;-3.305662632E0
1.501868647E1;-1.348022938E0;5.050480843E0;-2.534779549E0
1.503672560E1;1.635321617E0;-7.922073364E0;3.620381355E0
1.505476075E1;-1.113749146E-1;6.010156274E-1;8.818505287E0
1.507280708E1;1.965567589E0;9.805642128E0;-8.669684410E0
1.509084187E1;1.712384462E0;-1.078883767E0;-1.034505367E1
1.510888197E1;2.556494236E0;1.819365025E0;8.077562332E0
1.512690748E1;3.050976276E0;1.340797544E0;-5.770273209E-1
1.514495936E1;3.548491001E0;2.386815548E0;-3.190424919E0
1.516299769E1;2.812806129E0;-1.370021820E0;1.606607437E0
1.518103687E1;1.569960117E0;5.868611932E-1;6.491355896E-1
1.519907533E1;-8.962175846E-1;6.698541164E0;-1.920149803E0
1.521711512E1;9.134771824E-1;-9.573861361E-1;-4.416964054E0
1.523515315E1;2.099999666E0;2.576616406E-1;2.232013702E0
1.525319270E1;1.017836332E0;-1.890553713E0;-1.110463142E0
1.527123158E1;8.703966141E-1;5.541912317E-1;1.046047211E-1
1.528926997E1;1.297262788E0;-1.958182812E0;1.718521118E-1
1.530731056E1;3.007093072E-1;2.923257947E-1;-4.835708618E0
1.532534815E1;1.526681185E0;-3.937561512E0;6.652630806E0
1.534338606E1;1.136474252E0;5.327917933E-1;-1.362817764E0
1.536142640E1;-7.395254970E-1;2.521001577E0;1.739860535E0
1.537946436E1;1.937971473E0;2.222356319E0;1.576452255E-1
1.539750410E1;-6.851341128E-1;-7.372851849E0;-5.540059566E0
1.541554157E1;-1.907665491E0;4.926241875E0;1.726830482E0
1.543357887E1;-9.518628120E-1;-3.271042824E0;-4.084284782E0
1.545162300E1;8.127754927E-1;3.298369884E0;6.334899902E0
1.546965949E1;1.355930567E0;-3.480624199E0;-7.229366302E-1
1.548769612E1;8.686780930E-4;2.774951696E0;1.480436325E-1
1.550573036E1;1.242035866E0;1.717175484E0;3.452766418E0
1.552377424E1;-7.704138160E-1;-2.197611809E0;-4.713868618E0
1.554181617E1;1.637506008E0;6.423082948E-1;4.359059334E0
1.555985316E1;-3.437017798E-1;2.654901266E0;-3.809137344E0
1.557789314E1;4.658367932E-1;-7.897629142E-1;5.334110260E-1
1.559593134E1;1.043040991E0;-2.669002533E0;4.608836174E0
1.561397071E1;2.583492994E-1;2.268215656E0;4.952268600E-1
1.563200862E1;-3.023347259E-1;-4.265558720E-2;-3.900436401E0
1.565004847E1;-1.950103343E-1;-2.478429556E0;3.622225761E0
1.566808650E1;-1.995789647E0;2.087262154E0;1.917067528E0
1.568612629E1;-7.954670787E-1;-9.822850227E-1;-2.446224213E0
1.570416395E1;-6.426799297E-2;4.836605787E-1;1.468477249E0
1.572220417E1;9.762949944E-1;5.931960344E-1;8.594465256E-1
1.574024226E1;-3.631190062E-1;2.354804039E0;-8.925266266E-1
1.575828162E1;1.129704043E-1;-5.501053333E-1;-1.281422615E0
1.577631989E1;-1.057600081E-1;-1.869583726E-1;1.202859879E0
1.579435999E1;3.008097410E-3;1.270990133E0;-3.392144203E0
1.581239832E1;3.139598668E-2;-1.682456732E0;3.508033752E-1
1.583043678E1;-4.870927334E-1;-4.107926369E0;-5.146408081E-1
1.584847541E1;-9.516281486E-1;7.026461363E-1;3.408488274E0
1.586651527E1;-1.153405070E0;-1.567779779E-1;-2.323726654E0
1.588453938E1;3.231333196E-1;1.537238598E0;-5.972299576E-1
1.590258936E1;-6.345301270E-1;1.716820002E0;-1.108982086E0
1.592063441E1;1.286613703E0;-1.420426250E0;-8.259916306E-1
1.593867079E1;7.100787163E-1;-1.503792703E-1;3.328755379E0
1.595670905E1;-9.348220825E-1;2.860198021E0;3.950172424E0
1.597474836E1;-1.242314935E0;-8.053097129E-1;-2.378746033E0
1.599278651E1;-2.852093875E-1;3.030579567E0;2.218141556E0
1.601082649E1;-2.528313160E0;5.955770969E0;-4.896125793E0
1.602886408E1;-8.831381798E-1;-2.916407108E0;-2.336282730E0
1.604690089E1;-8.643517494E-1;-8.955681324E-2;1.613229752E0
1.606494471E1;3.295586705E-1;-2.705187201E-1;2.514121056E0
1.608298206E1;1.317816377E-1;-1.219462633E0;-2.185746670E0
1.610102009E1;8.928261399E-1;2.451772690E-1;1.202485085E0
1.611905946E1;-1.194341063E0;2.239244699E0;-6.699466705E-1
1.613709773E1;-1.172298670E0;-5.434814095E-1;-1.087377548E0
1.615513752E1;-8.721185327E-1;-2.061421573E-1;-1.384267807E0
1.617317567E1;-1.169627190E0;2.260638475E-1;3.270597458E0
1.619121424E1;-9.831722379E-1;7.041299343E-2;-5.164241791E-1
1.620925416E1;2.242748737E-1;1.550127387E0;6.360516548E0
1.622729279E1;-1.569433451E0;3.719937801E0;-4.158820629E0
1.624533118E1;-3.675347567E-1;1.255617380E0;-2.934839725E0
1.626335261E1;-1.499877930E0;-4.805851936E0;3.589351654E0
1.628140772E1;-1.019780040E0;-1.104193568E0;2.246494293E0
1.629945002E1;1.401666403E-1;-5.541740060E-1;5.898132324E-1
1.631748676E1;-9.976616502E-1;3.065616369E0;-3.356890678E0
1.633552619E1;-9.827021360E-1;-4.876209259E0;-1.879665375E0
1.635356428E1;-9.945522547E-1;-9.467140436E-1;5.541437149E0
1.637160432E1;-4.431170225E-1;4.993433952E0;-4.058378220E0
1.638964228E1;-4.991239309E-1;-1.480357647E0;5.879535675E-1
1.640768140E1;-9.690284729E-3;-1.500444293E0;4.850551605E0
1.642571314E1;5.326533318E-2;3.265206814E0;-2.724331379E0
1.644376283E1;3.885893822E-1;3.679645061E0;-1.411177635E0
1.646179798E1;1.395422339E0;-1.266631365E0;2.233047485E-1
1.647983747E1;1.632547379E-1;2.474764585E-1;1.681838989E0
1.649786341E1;1.629659534E0;-5.607125759E0;2.263126373E-1
1.651591535E1;-1.366301775E-1;1.296480417E0;3.009652138E0
1.653395344E1;9.573515654E-1;-1.085755110E0;-3.107437611E0
1.655199275E1;3.596266508E-1;1.688144803E-1;-9.413547516E-1
1.657003089E1;8.571783900E-1;9.683549404E-3;-2.380678654E0
1.658807087E1;4.842689633E-1;-1.267216921E0;-6.609058380E-1
1.660610407E1;5.990461111E-1;8.897952437E-1;-1.654707909E0
1.662414826E1;-1.370396614E-1;4.121810198E-2;5.226208687E0
1.664218617E1;1.207767963E0;-4.552993298E0;1.984715462E0
1.666022602E1;-8.381252289E-1;7.419248104E0;-1.351022720E-1
1.667826515E1;1.016565323E0;-3.267098427E0;-6.327071190E0
1.669630402E1;-1.201868773E0;-1.626716852E-1;2.894463539E0
1.671434187E1;8.044549823E-1;1.275712252E-1;1.554584503E-2
1.673238215E1;4.665443301E-2;-1.123901129E0;-9.216966629E-1
1.675042005E1;1.826167107E0;-1.836448908E0;5.441651344E0
1.676845948E1;9.461038113E-1;5.099349976E0;-7.689290047E0
1.678648573E1;4.325727522E-1;-2.244433403E0;-2.800331116E-1
1.680453516E1;6.155041456E-1;-1.569441676E0;6.355392456E0
1.682257801E1;1.190736055E0;-4.286025465E-1;-3.800142288E0
1.684061512E1;9.659191370E-1;1.368923187E-1;2.867585182E0
1.685865315E1;3.773267269E-1;2.257909536E0;-2.992596149E0
1.687669178E1;7.548493147E-2;3.641198874E-1;-2.221434593E0
1.689473103E1;-9.768544883E-2;1.814299345E0;7.981910706E-1
1.691277052E1;1.324763894E-1;5.934121609E-1;1.518657684E0
1.693080872E1;-1.917802542E-1;-4.436350822E0;4.949092865E-1
1.694884846E1;-9.877362251E-1;2.139352322E0;1.649765968E0
1.696688685E1;-5.541046262E-1;-2.129545212E0;-5.267891884E0
1.698492585E1;-1.216240048E0;2.761322260E0;-3.783054352E-1
1.700296424E1;2.871723473E-1;-5.591968536E0;3.007493973E0
1.702099238E1;6.665349007E-1;-2.800947428E-2;1.338329315E-1
1.703903858E1;1.698576808E-1;-1.367158890E0;-2.981068611E0
1.705708546E1;-2.624270916E-1;2.952319384E0;2.235897064E0
1.707510536E1;1.074753761E0;-2.638843060E0;-4.599294662E-1
1.709316267E1;6.712589264E-1;4.111233950E-1;5.469005585E0
1.711119691E1;9.972047806E-1;1.188159227E0;-5.262248516E0
1.712923805E1;1.612395048E-2;1.648516297E0;-1.672436714E0
1.714727522E1;9.095062017E-1;-3.199016094E0;2.499771118E0
1.716531507E1;1.278875470E0;1.217440844E0;9.119844437E-1
1.718335328E1;1.271252632E0;3.988909721E-2;-3.792514801E-1
1.720139295E1;5.377796292E-1;1.967872143E0;-2.986521244E0
1.721943073E1;8.627424240E-1;-7.123851776E0;2.999650955E0
1.723747083E1;1.301483810E-2;-2.568705976E-1;5.367959976E0
1.725549061E1;-5.121173337E-2;-1.282905579E0;-6.482944489E0
1.727354835E1;-8.229345679E-1;-3.372043371E-2;-1.601966858E0
1.729158625E1;-7.645750046E-1;-1.770385861E0;3.596835136E0
1.730962635E1;-4.109687209E-1;-1.685065508E0;8.235416412E-1
1.732766444E1;4.488827288E-2;-1.205053926E-1;-6.168079376E-2
1.734569996E1;-3.117161989E-1;4.237218499E-1;-3.660631180E-1
1.736374177E1;7.409214377E-1;-4.525089264E0;3.568804741E0
1.738178181E1;-9.068951011E-1;-2.860277653E0;-1.411714554E-1
1.739982246E1;-3.345659375E-1;1.747919798E0;-3.600316525E0
1.741785688E1;-8.420461416E-1;-7.837957382E0;5.659256935E0
1.743589515E1;7.858482599E-1;1.828037620E0;3.695746422E0
1.745393739E1;6.538212299E-3;-3.693195105E0;-6.598410606E0
1.747197547E1;-3.165164590E-2;-2.793454170E0;5.196397781E0
1.749001490E1;4.712825119E-1;8.403242826E-1;-1.074205399E0
1.750805262E1;4.755324125E-2;-6.868907928E0;-4.898024559E0
1.752609284E1;-2.886576355E-1;-2.189862251E0;4.708320618E0
1.754413001E1;3.159061670E-1;-6.353576779E-1;-4.608068466E0
1.756216749E1;-1.950967312E-2;-2.474806547E0;1.129479408E0
1.758021119E1;-2.386593819E-2;-2.154782295E0;3.861618996E0
1.759824848E1;1.589642465E-1;6.796299815E-1;-2.241859436E-1
1.761628675E1;6.385983825E-1;-1.006921172E0;-1.435266495E0
1.763432380E1;-2.003730237E-1;6.412330270E-1;1.374817848E0
1.765236091E1;-5.726698041E-1;4.050511718E-1;-1.165605545E0
1.767040705E1;-6.899253726E-1;-3.317303419E0;-2.665233612E-1
1.768844172E1;-1.636414230E-1;1.162836790E0;2.118444443E-1
1.770648103E1;1.497503519E-1;8.613948822E-1;-3.348217010E-1
1.772451942E1;3.904876709E-1;-3.116026878E0;-4.948701859E-1
1.774255940E1;-2.887668610E-1;-1.451724768E0;1.637525558E-1
1.776059754E1;4.249475598E-1;-2.100513458E0;2.978821754E0
1.777863679E1;1.426827908E-2;-2.905299187E0;-1.677754402E0
1.779667194E1;2.037465572E-1;-1.416097879E0;3.168515205E0
1.781471784E1;-1.898828447E-1;3.994142294E0;-4.829391956E0
1.783275300E1;-4.897753000E-1;-2.263192654E0;-1.682660103E0
1.785079231E1;-4.782276750E-1;-1.081077456E0;3.076960564E0
1.786883045E1;3.569149375E-1;-6.172438264E-1;-2.462205887E-1
1.788687037E1;-7.963764668E-2;-4.443208694E0;3.690252304E-1
1.790490840E1;5.849789381E-1;-4.858745337E-1;-2.101373672E0
1.792293946E1;2.709432244E-1;-2.827702761E0;2.597594261E0
1.794098585E1;8.842556477E-1;-2.881659985E0;3.004541397E-1
1.795902607E1;3.000676036E-1;-4.010243416E0;1.948407173E0
1.797706385E1;5.589362383E-1;-1.912618637E0;2.665226936E0
1.799510328E1;2.354629040E-1;2.722002983E0;-3.528413296E0
1.801313270E1;4.782599211E-2;-2.171550035E0;-4.213190079E-1
1.803117866E1;4.652301073E-1;-2.271164417E0;-2.363662720E-1
1.804922236E1;2.339428663E-1;-1.106329083E0;3.679041862E0
1.806725862E1;4.854816198E-1;6.150493026E-1;-7.367820740E-1
1.808529701E1;-1.444905996E-2;-1.294152379E0;-8.255863190E-1
1.810333662E1;1.263639927E-1;-3.478209496E0;2.036321640E0
1.812137519E1;9.605687857E-2;-2.574228048E0;2.861661911E-1
1.813941432E1;-7.316617370E-1;-1.660355091E0;6.605281830E-1
1.815744056E1;-5.756317377E-1;-6.104180217E-1;1.359195709E-1
1.817549250E1;-4.906251431E-1;-2.860710323E-1;-1.078409195E0
1.819353040E1;-4.319522083E-1;-2.411232233E0;-1.186249733E0
1.821156989E1;-5.879627466E-1;-2.317966461E0;1.303640366E0
1.822960828E1;3.043271303E-1;-1.480470896E0;1.437788963E0
1.824764802E1;-5.216824412E-1;7.145808339E-1;-1.934928417E0
1.826568928E1;-3.756220937E-1;-7.444582582E-1;3.981790543E-1
1.828372541E1;-8.170253038E-1;5.177214146E-1;-2.076559067E-1
1.830176344E1;-1.037899017E0;-1.223508954E0;-2.349176407E-1
1.831980256E1;-1.055432439E0;-4.404035091E0;-3.416328430E-1
1.833784248E1;-6.483086348E-1;-1.964229107E0;2.511092186E0
1.835588093E1;-4.148487151E-1;-1.566124797E0;1.581933975E0
1.837391895E1;-9.994506240E-1;1.962074518E0;-3.224565983E0
1.839195356E1;-5.972620249E-1;-1.243025541E0;-7.271957397E-2
1.840999513E1;-3.457287848E-1;-1.235442996E0;-7.223672867E-1
1.842803846E1;-2.479526997E-1;-1.663816452E0;1.278040886E0
1.844607459E1;-3.924828768E-2;-9.856642485E-1;-4.934806824E-1
1.846411402E1;1.481649280E-1;-1.971449852E0;5.259056091E-1
1.848215247E1;-5.804359913E-2;-1.743199587E0;2.641309738E0
1.850019190E1;-1.614383459E-1;-3.974743783E-1;-2.626476288E-1
1.851823011E1;-3.628826141E-2;7.172954082E-2;-2.914400101E-1
1.853625935E1;-1.240073442E-1;5.615461469E-1;-1.056612968E0
1.855430793E1;-1.721196771E-1;-9.023742080E-1;-5.163339138E0
1.857234754E1;-6.076990962E-1;-1.939509630E0;3.467143059E0
1.859038557E1;4.868581295E-1;-1.374896288E0;2.284650803E-1
1.860842536E1;9.667850733E-1;2.379833460E-1;-7.345724106E-1
1.862646351E1;1.173186064E0;-3.198442459E0;3.489488602E0
1.864450007E1;4.811638594E-1;1.196770906E0;6.780738831E-1
1.866254395E1;-3.174994588E-1;-4.030537605E-1;8.010921478E-1
1.868058118E1;-7.850232720E-1;3.065702438E0;-3.164484024E0
1.869861872E1;8.225013614E-1;-3.169770241E0;1.390883446E0
1.871665858E1;7.136715651E-1;1.770123243E-1;-2.171363831E-1
1.873469636E1;-4.248315096E-2;-2.136046410E0;1.453241348E0
1.875273640E1;5.916821957E-1;-1.379082203E0;1.271978378E0
1.877077210E1;7.158482075E-2;-4.457449913E-2;-8.806953430E-1
1.878881001E1;4.670870304E-1;-1.112276912E-1;-2.869348526E-1
1.880685584E1;-1.890156865E-1;-9.875815511E-1;-1.565539360E0
1.882489173E1;-6.793922186E-2;-1.049042702E0;1.085227013E0
1.884293000E1;-6.410628557E-2;4.347029924E-1;-4.114546299E0
1.886096925E1;4.419795275E-1;-7.411245346E0;4.232067108E0
1.887900752E1;-8.394556642E-1;-2.615916491E0;8.262269974E0
1.889704737E1;-4.399177432E-1;-9.714564085E-1;-3.886165619E-1
1.891508534E1;2.275623083E-1;-4.405464232E-1;2.977004051E0
1.893312519E1;1.006612897E0;-5.358973503E0;-9.544210434E-1
1.895116303E1;2.697877288E-1;2.269173145E0;1.060752869E-1
1.896920277E1;-1.997787058E-1;3.896191120E0;-2.834737778E0
1.898724055E1;-2.943119109E-1;-8.377111435E0;3.167490959E0
1.900528059E1;6.554937363E-2;6.848895550E0;-4.264239788E0
1.902331873E1;-8.024767637E-1;5.921941280E0;-8.436746597E0
1.904135761E1;-1.279420257E-1;-1.007219028E1;2.446800232E0
1.905939497E1;3.062457442E-1;2.469183683E0;7.002137184E0
1.907743855E1;-2.819016278E-1;4.184830785E-1;-7.077951908E0
1.909547395E1;-3.422089815E-1;-4.582454205E0;-2.372752666E0
1.911351405E1;-5.029495955E-1;-3.648271561E0;1.137808418E1
1.913155207E1;2.796270251E-1;1.835582018E0;-9.195943832E0
1.914957996E1;-4.557598233E-1;-1.432118535E0;3.939028740E0
1.916762598E1;1.572427750E-1;-3.335274458E0;3.991576195E0
1.918567274E1;-1.734036803E-1;4.884379387E0;-1.109615803E1
1.920370765E1;-4.224058390E-1;-6.958034992E0;-3.273963928E-1
1.922174574E1;-1.322288394E0;-6.463429928E-1;8.186571121E0
1.923978608E1;-2.439654469E-1;-1.192803860E0;-4.444082737E0
1.925782508E1;-1.256075978E0;1.280900002E0;-1.431888580E0
1.927585896E1;-5.719910264E-1;-6.986790895E-2;-6.105966568E-1
1.929389045E1;-1.218759537E0;-8.541072011E-1;-2.744128227E0
1.931194074E1;-3.091750741E-1;-4.748383164E-1;4.999065399E0
1.932998060E1;-1.342150688E0;-4.163710594E0;1.644229889E-2
1.934801844E1;-6.761332750E-1;-2.471652031E0;1.357378006E0
1.936605818E1;-4.382852316E-1;-8.299149275E-1;6.792736053E-2
1.938408430E1;2.315437198E-1;-3.833502769E0;6.120681763E-3
1.940213606E1;-1.352613568E-1;-1.311240315E0;2.214622498E-1
1.942017414E1;-2.601957321E-1;1.070616603E0;-2.614146709E0
1.943821369E1;1.531216502E-1;-6.264219284E0;5.045509338E-2
1.945624854E1;2.304403782E-1;5.918360710E0;3.832054138E-1
1.947429463E1;1.577026248E-1;-4.771895409E0;-6.884393692E-1
1.949232972E1;5.357718468E-2;-1.031988859E0;1.058506966E0
1.951036921E1;-4.723835588E-1;1.608647704E0;-3.077138901E0
1.952840711E1;6.267217398E-1;3.343672276E0;6.518936157E-1
1.954644599E1;-9.632391334E-1;2.108936310E0;7.825031281E-1
1.956448628E1;-1.027256489E0;-2.470190763E0;3.112217903E0
1.958252473E1;-2.464990616E-1;8.326738358E0;9.194192886E-1
1.960056281E1;-1.124700785E0;-3.198795795E0;-3.973968983E0
1.961860291E1;4.239975214E-1;4.993447304E0;-2.774620056E-2
1.963664094E1;-7.927821279E-1;-4.118558884E0;-3.977798939E0
1.965468031E1;1.302919388E-1;-5.862923145E0;3.779524803E0
1.967270637E1;-4.112419486E-1;-3.976551533E0;8.672771454E-1
1.969075862E1;-2.360180616E-1;5.579149246E0;-3.693984032E0
1.970879627E1;2.140516043E-1;-4.942066669E0;1.004189491E0
1.972683601E1;-4.606611133E-1;6.909818649E0;-1.310964584E0
1.974487385E1;3.100048304E-1;-5.037531853E0;1.775827408E-1
1.976290785E1;-2.227900267E0;2.790515661E0;1.177150726E0
1.978095197E1;-1.787573576E0;2.068658471E-1;-4.556026936E0
1.979899152E1;-1.790986776E0;2.705406547E-1;3.589551926E0
1.981702961E1;-2.355074406E0;3.059917688E0;-2.491765499E0
1.983506971E1;-7.049759030E-1;-4.390111923E0;1.437149048E-1
1.985310780E1;-4.276351333E-1;5.353237629E0;2.981535912E0
1.987114729E1;-7.896940708E-1;-6.528408051E0;-7.632227898E0
1.988918513E1;-3.868525624E-1;1.937527061E0;6.561602592E0
1.990722175E1;4.066438675E-1;-3.561895609E0;1.521253586E-1
1.992525996E1;-2.314264774E-1;5.703613162E-1;-2.756916523E0
1.994330634E1;1.331134558E0;1.233297586E0;7.851057053E-1
1.996133991E1;2.265379429E0;-3.543455601E-1;-1.807740688E0
1.997937904E1;1.384136558E0;-2.402302504E0;2.873835564E0
1.999742176E1;4.672646523E-3;1.176674604E0;-2.226849556E0
2.001545808E1;-7.558018565E-1;-1.162288308E0;6.531362534E-1
2.003349671E1;9.982076883E-1;-2.821616411E0;3.180856705E-1
2.005152332E1;1.436144829E0;1.993588656E-1;1.789720535E0
2.006957496E1;-5.666613579E-2;-1.405370831E0;-2.163917542E0
2.008761512E1;-2.301253080E-1;1.619875908E0;1.594346046E0
2.010565199E1;1.965744495E-1;-1.502037048E-1;-2.576452255E0
2.012369245E1;7.400133610E-1;-1.714376509E-1;2.756848335E0
2.014173396E1;5.800867081E-2;5.178843021E0;-4.991063595E0
2.015976716E1;1.337067008E0;-5.398240089E0;6.394972801E0
2.017781092E1;-2.340660572E0;1.154389620E0;8.543648720E0
2.019584382E1;-1.386536598E0;4.557358742E0;-7.480822563E0
2.021388587E1;1.703512549E0;4.692819715E-2;1.142747879E0
2.023192561E1;8.377424479E-1;6.171963215E0;1.195699692E0
2.024995210E1;2.906173468E-1;-3.423701763E0;-1.175121307E0
2.026800367E1;9.004131556E-1;4.511452675E0;2.934012413E0
2.028604139E1;-1.255717516E0;1.511227369E0;-3.503985882E0
2.030408082E1;-1.273219347E0;3.859053135E0;5.642976761E-1
2.032211933E1;6.596529484E-2;1.164425850E1;-8.988847733E0
2.034015919E1;-1.164841652E-1;7.130699635E0;-1.529736996E1
2.035819746E1;-2.017434835E0;-8.812925220E-1;-8.022647858E0
2.037623200E1;-1.189630413E1;-3.797902298E1;6.520059204E1
2.039427473E1;3.786891699E-1;3.556169510E1;-3.178268814E1
2.041231477E1;-3.199896336E0;-8.726057053E0;-2.522838974E1
2.043035298E1;-2.754152775E0;1.611232948E1;8.140582085E0
2.044839033E1;1.446328759E0;-7.127032280E0;6.995108604E0
2.046643305E1;3.762445927E0;1.378588009E1;-9.183054924E0
2.048447077E1;9.993479252E-1;-4.121737003E0;9.690395355E0
2.050250886E1;2.440634727E0;2.889412403E0;1.929024696E0
2.052053266E1;2.532111645E0;5.536018848E0;3.347806931E0
2.053858558E1;2.713905334E0;3.701549530E0;-4.538061619E0
2.055662696E1;2.540782928E0;8.700073242E0;2.107704163E0
2.057466450E1;-2.104230642E0;-5.651677132E0;-5.612348080E0
2.059270387E1;-2.700962543E0;4.356345177E0;3.074033737E0
2.061074207E1;-1.581423998E0;-4.676307678E0;-3.837318897E0
2.062878205E1;-3.274269104E0;1.355232716E0;3.853073120E0
2.064682020E1;-2.136943102E0;-2.523276806E0;-1.082032204E0
2.066485944E1;-4.736487865E0;-1.351338100E1;-1.468658447E-4
2.068289326E1;1.229921460E0;-8.260311127E0;2.580741882E0
2.070094227E1;9.554992914E-1;4.595875549E1;8.631083488E0
2.071897608E1;-6.017750740E0;-2.280308342E1;-1.813805008E1
2.073701545E1;-8.833703995E0;1.964499354E0;6.632242203E0
2.075504164E1;-6.985800743E0;-3.220372200E0;5.820878983E0
2.077309358E1;-8.433768272E0;-1.157166004E1;-9.233788490E0
2.079113172E1;-5.108541489E0;-1.997992039E0;1.032040119E1
2.080917115E1;-5.921527863E0;7.317942381E-1;-1.284480190E1
2.082720667E1;-4.248680592E0;-1.149915457E0;2.610643387E0
2.084525208E1;9.631006718E-1;-1.075707912E1;8.568814278E0
2.086328773E1;1.659271717E-1;-2.272489071E-1;-6.283438206E0
2.088132612E1;-6.682085991E-2;-5.674208999E-1;-7.907791138E-1
2.089935511E1;2.160109758E0;-3.621438503E0;2.691217422E0
2.091740406E1;-9.011530876E-2;-1.646213531E-1;-3.452022552E0
2.093544685E1;-2.010593414E-1;1.292125225E0;8.541202545E-1
2.095348249E1;-5.183962822E0;-5.593689084E-1;-7.003955841E-1
2.097152082E1;-2.236284733E0;-2.007945061E0;1.449338913E0
2.098956092E1;-3.681040287E0;-9.376965761E-1;2.446762085E0
2.100759925E1;-3.374902010E0;1.261679888E0;-2.100002289E0
2.102563825E1;-3.500482559E0;9.783784151E-1;-5.130825043E-1
2.104367689E1;-2.462316990E0;-4.604174495E-1;7.089405060E-1
2.106171357E1;-2.819638014E0;2.300320864E-1;2.883095741E0
2.107975776E1;-1.339084387E0;1.149534702E0;-1.909551620E0
2.109779432E1;-1.107535601E0;6.607442498E-1;1.585386276E0
2.111582874E1;-2.539336681E0;1.209332228E0;2.526681900E0
2.113387409E1;-2.446855068E0;1.526015759E0;1.799964905E0
2.115191053E1;-3.380678654E0;1.643670321E0;1.175646782E0
2.116995002E1;-2.748457909E0;3.671067715E0;2.628237724E0
2.118798786E1;-3.266823053E0;2.750202656E0;7.197980881E-1
2.120602357E1;-4.038053513E0;2.889781475E0;2.160660744E0
2.122406599E1;-4.252683640E0;1.847094774E0;1.152718544E0
2.124210584E1;-3.043741226E0;3.047870398E0;1.491324425E0
2.126014405E1;-2.757477760E0;2.180351734E0;7.991275787E-1
2.127818501E1;-1.505746365E0;2.373098612E0;1.549320221E0
2.129621919E1;-1.680606604E0;1.211045027E0;3.487339020E-1
2.131426472E1;-1.729009151E-1;2.442261934E0;-9.650993347E-1
2.133229987E1;-3.981120586E-1;1.251301289E0;1.625427246E0
2.135033973E1;4.313747883E-1;2.025732398E-1;2.160428047E0
2.136836634E1;1.120718479E0;2.396453857E0;4.399967194E-2
2.138641724E1;1.447890997E0;1.772156239E0;-6.320543289E-1
2.140445570E1;2.791764736E0;1.773862600E0;-9.357681274E-1
2.142248347E1;1.278488636E0;-1.011497617E0;1.028649330E0
2.144053382E1;-1.427223682E0;-3.644217253E0;8.775292397E0
2.145857331E1;8.235061169E-1;1.942527890E0;-3.811101437E0
2.147661122E1;7.723259926E-1;-2.795456886E0;-2.978282928E0
2.149465150E1;-4.945311546E-1;-5.129010201E0;4.416533470E0
2.151269129E1;-8.072502613E-1;-2.570057869E0;-1.585632324E0
2.153072578E1;-8.771550655E-1;-4.545229435E0;4.694585800E-1
2.154877021E1;-2.232469559E0;-3.794711590E0;-3.438596725E-1
2.156680726E1;-3.031171083E0;-6.352350235E0;-1.661325932E0
2.158484510E1;-1.433829546E0;-8.217455864E0;5.366718292E0
2.160288478E1;-2.961602211E0;-4.356783867E0;1.476014137E0
2.162092280E1;-6.650364399E-1;-3.546200037E0;-2.648406982E0
2.163896296E1;1.662993431E-2;-4.121765137E0;3.117980003E0
2.165700086E1;6.686012745E-1;-1.354207754E0;-8.049287796E-1
2.167503620E1;6.712663174E-1;-2.280860424E0;1.538032532E0
2.169308308E1;-7.965250015E-1;1.317886829E0;-3.190822601E-1
2.171111903E1;-2.315814972E0;-2.746160269E0;2.288292885E0
2.172915687E1;-1.218628407E0;8.553069115E0;-4.437772751E0
2.174718494E1;-1.741773009E0;-4.678706646E0;-3.194574356E0
2.176523475E1;-6.040668488E-1;6.141403198E0;8.421648026E0
2.178327467E1;-9.722614288E-1;6.284411907E0;-2.856433868E0
2.180131208E1;-3.748311758E0;4.028070927E0;-1.846848011E0
2.181935432E1;-2.491933346E0;2.539557457E0;4.540118217E0
2.183738935E1;-2.266124725E0;5.296612740E0;-5.009629726E0
2.185543055E1;-2.954144955E0;1.430382490E0;3.105953217E0
2.187346870E1;-1.402775645E0;-8.009743094E-1;2.960019112E0
2.189150788E1;2.758216858E-1;7.310945511E0;-5.939450741E0
2.190954475E1;-6.145763397E-1;1.090312362E0;3.952770233E-1
2.192758827E1;2.386448383E-1;1.524396777E0;5.055356026E0
2.194562440E1;-3.601346016E-1;4.038170815E0;-3.638490200E0
2.196366432E1;-1.829821348E0;4.502209663E0;2.358704567E0
2.198170222E1;-3.234040737E-1;7.288914919E-1;6.118106842E-2
2.199974238E1;-1.568337917E0;5.075636387E0;-1.031043053E0
2.201778040E1;-2.443786144E0;5.515249252E0;-6.391696930E-1
2.203580988E1;-2.575037956E0;2.719911337E-1;1.908647537E0
2.205385798E1;-4.204976082E0;5.894611835E0;-1.124050140E0
2.207189832E1;-4.060265541E0;1.296915889E0;-9.028310776E-1
2.208993617E1;-3.751180172E0;-2.014716864E-1;9.750680923E-1
2.210797596E1;-2.122234821E0;-1.881961465E0;-4.897956848E-1
2.212600227E1;-2.509546280E0;-3.791589737E0;1.962240219E0
2.214405091E1;-2.281500816E0;-4.175469398E0;-2.179409504E0
2.216209510E1;-6.170688868E-1;-4.529520988E0;4.721188545E0
2.218013160E1;-9.577742815E-1;-1.746344686E0;1.091979980E0
2.219817011E1;-6.036842465E-1;-4.583383560E0;3.433646202E0
2.221620985E1;-1.217661500E0;3.887462139E0;-1.165287781E1
2.223424818E1;-5.707951784E-1;-1.183948135E1;9.829940796E-1
2.225228761E1;-3.064209819E-1;-2.255914688E0;1.096966839E1
2.227032557E1;-5.926081538E-1;-1.557927132E1;-2.709450245E0
2.228836427E1;3.842811584E0;2.423730850E0;7.239625931E0
2.230640553E1;-6.684625149E0;1.456555724E0;-8.418764114E0
2.232444367E1;-3.368270397E0;-1.564588189E0;-1.464171791E1
2.234248200E1;-3.680588245E0;1.042634726E0;5.710659027E0
2.236052192E1;-2.316212177E0;8.786325455E-1;-6.205265999E0
2.237855995E1;-2.386700153E0;3.214779615E0;-2.265645981E0
2.239659944E1;-1.975752234E0;3.110821724E0;1.620827675E0
2.241463783E1;-2.234863281E0;-1.968272805E0;-2.192924500E0
2.243267500E1;2.286679745E-1;7.393993378E0;7.896385193E-1
2.245071882E1;-1.596520662E0;3.996516705E0;-3.143043041E0
2.246875544E1;-3.062480688E-1;1.102477908E0;4.711531639E0
2.248679353E1;-1.161118269E0;-5.015904903E-1;1.092658997E0
2.250481593E1;-1.109652519E0;6.088725328E-1;-2.490288734E0
2.252287055E1;-8.380263448E-1;7.266699314E0;-8.765754700E-1
2.254091248E1;-7.884281874E-1;8.540191650E0;-3.172538757E0
2.255894959E1;-2.642273903E-2;-5.123898506E0;7.903038025E0
2.257698963E1;6.217253208E-1;-5.255079269E0;7.813893318E0
2.259502778E1;9.499294758E-1;2.920821428E0;-6.946239948E0
2.261306715E1;-1.808140278E0;3.778449535E0;-1.090561962E1
2.263110560E1;-2.649325609E0;-6.701896191E-1;2.965321541E0
2.264914539E1;-1.620602608E-2;4.054893494E0;2.655364037E0
2.266718049E1;5.166864395E-2;1.757064700E0;-1.790115833E0
2.268522645E1;6.582772732E-1;3.245493174E-1;9.400835037E-1
2.270326160E1;3.531359434E0;-1.689845800E0;-2.730339527E0
2.272130079E1;1.770895004E0;-1.043537140E0;2.374121666E0
2.273933344E1;8.172087669E-1;-6.319259405E-1;-2.553260326E0
2.275738246E1;6.776533127E-1;-2.241725922E0;1.236214638E0
2.277541761E1;-6.306519508E-1;-2.987553358E0;2.707114220E0
2.279345765E1;6.975157261E-1;4.256907701E-1;-9.150009155E-1
2.281149574E1;6.678354740E-1;-2.560726643E0;4.007720947E0
2.282953547E1;-7.976754904E-1;-1.453666687E1;1.404786491E1
2.284757362E1;-2.066768646E0;-6.999888420E0;-1.066653252E0
2.286561341E1;-6.505723000E-1;3.789372444E-1;-8.750669479E0
2.288364881E1;1.582923174E0;-4.257079124E0;4.184789658E-1
2.290169410E1;-1.706291080E0;-5.623950005E0;1.428501129E0
2.291972968E1;-1.085718632E0;2.970178127E-1;-4.290040493E0
2.293776966E1;-2.265445232E0;-3.717610598E0;2.110844612E0
2.295580433E1;1.700441837E0;-2.261441469E0;2.345823288E0
2.297384724E1;2.938335896E0;5.250866890E0;-3.803980350E0
2.299188563E1;2.366590500E-2;5.752193928E-2;1.327161789E-1
2.300992567E1;-2.333286047E0;6.331763268E-1;6.819786072E0
2.302796351E1;3.842649460E-1;3.749436140E0;-6.535204887E0
2.304600318E1;-1.614378929E0;1.418544888E0;3.010179520E0
2.306404151E1;2.696821690E-1;9.990242720E-1;2.999246597E0
2.308208161E1;-2.358750343E0;1.180399036E1;-1.011045074E1
2.310012000E1;-2.433066130E0;-1.760157108E0;4.599106789E0
2.311815614E1;-6.558296680E-1;-3.574781895E0;7.056964874E0
2.313619508E1;8.206758499E-1;7.515266418E0;-4.629437923E0
2.315424049E1;-1.517358780E0;1.148593903E0;-3.291850090E0
2.317227601E1;-1.302847505E0;6.101904869E0;-6.464325428E0
2.319031556E1;-1.131287813E0;3.970413685E0;-2.734212875E0
2.320835383E1;-1.947412729E0;6.106773853E0;-4.301919937E0
2.322639368E1;-3.814416409E0;7.777908325E0;-2.489684582E0
2.324443202E1;-3.426447392E0;-1.753790140E0;-6.812257767E-1
2.326247150E1;-3.453003883E0;5.383348942E0;5.309117317E0
2.328050984E1;-4.446512222E0;6.485015392E0;-4.515702248E0
2.329854994E1;-5.009935856E0;-2.443692684E0;5.951614380E-1
2.331658808E1;-4.235746384E0;-3.912469149E-1;-7.029714584E-1
2.333462782E1;-3.020260096E0;4.712179661E0;-2.799666882E0
2.335265394E1;-3.245583057E0;-5.250965595E0;4.853777885E0
2.337070588E1;-2.546260118E0;-8.989652395E-1;1.572496414E0
2.338874452E1;-4.310806274E0;-7.429300308E0;-1.969709873E0
2.340678407E1;1.688911915E-1;-5.218232632E0;5.462044716E0
2.342481025E1;-9.717837572E-1;-1.026999474E1;3.162466049E0
2.344286213E1;2.995583534E0;-4.325336933E0;5.363321304E-1
2.346090028E1;3.397669077E0;-3.472995520E0;-3.443479061E0
2.347894001E1;6.640890837E-1;-3.154284000E0;6.856059074E0
2.349696620E1;8.118385077E-1;-2.538935661E0;-1.985801697E0
2.351501521E1;1.328035474E0;-1.528944612E0;-8.718252182E-1
2.353305958E1;5.199145079E-1;-5.355100632E-1;-2.775363922E-1
2.355109602E1;1.464978576E0;-1.363159418E0;2.977732658E0
2.356913423E1;-1.048423409E0;6.614624977E0;-4.003381729E0
2.358717439E1;3.267877698E-1;-1.272830963E-1;-4.923281193E0
2.360521278E1;-7.036544681E-1;2.433908939E0;3.643462181E0
2.362325202E1;6.797672510E-1;1.008443475E0;-4.646046638E0
2.364129591E1;-3.308389187E-1;4.547911644E0;-1.033672333E0
2.365933149E1;2.684495747E-1;9.237958908E0;-6.435947418E-1
2.367736891E1;2.559186220E-1;-3.154151440E-1;1.625294685E0
2.369540852E1;9.908211231E-1;1.678212285E0;1.097984314E-1
2.371344666E1;2.342030048E0;6.520988464E0;-3.548324108E0
2.373147059E1;1.343084335E0;2.033945560E0;3.170795441E-1
2.374952210E1;2.296254158E0;1.535673141E0;3.864759445E0
2.376756751E1;2.742488623E0;6.631790638E0;-2.832568645E0
2.378560243E1;4.187193871E0;1.263558865E-1;7.032966614E-2
2.380364295E1;4.531371593E0;-4.944502115E-1;-2.148714542E0
2.382168098E1;5.113418579E0;-2.564043999E-1;2.624654770E0
2.383972090E1;4.589185238E0;-2.922220945E0;4.130811691E-1
2.385775886E1;2.716622829E0;-1.971586347E0;8.853816986E-1
2.387579511E1;4.029311180E0;-3.898128033E0;-1.361274719E-1
2.389383674E1;2.262520552E0;-3.378674746E0;2.553796768E-1
2.391187757E1;3.139328480E0;-3.186298847E0;-5.784702301E-2
2.392991517E1;2.424059153E0;-4.705292702E0;-1.114013672E0
2.394795521E1;3.169920444E0;-6.160267830E0;3.327299118E0
2.396598890E1;1.970393658E0;1.148884058E0;-4.281688690E0
2.398403285E1;3.925362587E0;-7.852435589E0;2.487970352E0
2.400207142E1;2.041606903E0;-5.378652573E0;8.759788513E0
2.402011115E1;8.213123679E-1;-2.037301540E0;-5.030171394E0
2.403814869E1;1.463951349E0;-1.278536797E0;1.268266678E0
2.405619026E1;1.119680405E0;-6.443357468E-2;7.311916351E-2
2.407422743E1;7.876416445E-1;7.603536844E-1;4.338712692E-1
2.409226747E1;1.768979728E-1;4.383319616E-1;-1.272910118E0
2.411030561E1;-1.581744105E-1;3.580019951E0;1.122144699E0
2.412834455E1;6.357581615E-1;3.835520744E-1;5.328569412E-1
2.414638441E1;-1.101014614E0;2.976622820E0;1.723654747E0
2.416442365E1;-4.766069651E-1;4.832255363E0;-1.214450836E0
2.418246229E1;-2.823201656E0;4.490547180E0;-8.377712250E0
2.420050190E1;1.353741288E0;7.265512943E-1;3.107503891E0
2.421853993E1;1.386455417E0;7.665811539E0;4.697054863E0
2.423658015E1;-6.036269665E-1;4.747112274E0;-4.289518833E0
2.425461811E1;-2.058995962E0;1.359156251E0;4.741509438E0
2.427265876E1;-6.140818596E0;1.008086777E1;-1.404017162E1
2.429069526E1;-2.945389986E0;5.019864082E0;-2.696982861E0
2.430873615E1;-6.624916077E0;-2.215550184E0;5.446740150E0
2.432677461E1;-4.148818016E0;3.042029858E0;-5.397700787E0
2.434480610E1;-5.873456478E0;-1.309065819E0;3.836447716E0
2.436284937E1;-5.610469341E0;-5.126044750E0;1.322191238E0
2.438089558E1;-2.992522955E0;-7.508634567E0;4.947319984E0
2.439893092E1;-1.470920920E0;-8.758542061E0;7.500097275E0
2.441697028E1;-1.403784513E0;-1.764692187E0;-1.497961044E0
2.443500868E1;-4.160889149E0;-9.012852669E0;1.459348679E0
2.445304872E1;-1.041731596E0;-2.179846525E0;-5.722845078E0
2.447108711E1;-3.596317768E-1;-1.830135536E1;6.911544800E-1
2.448912336E1;2.783623695E0;8.399884224E0;-1.629488945E0
2.450716175E1;1.012740731E0;-5.274371624E0;-8.203845024E0
2.452520790E1;-1.694115639E0;6.155157089E-1;-2.609805107E0
2.454324336E1;-4.006904960E-1;4.671119452E-1;4.938179970E0
2.456128217E1;-2.059027910E0;1.246742368E0;-2.805811882E0
2.457932197E1;5.988172889E-1;2.066267490E0;5.816297531E-1
2.459736128E1;1.390287757E0;2.911121368E0;-2.372941971E0
2.461539961E1;9.210212529E-2;3.851004362E0;2.908248901E0
2.463343904E1;1.424746037E0;7.427419424E-1;-2.960891724E0
2.465147743E1;2.743383169E0;8.591043949E-2;4.652951241E0
2.466951747E1;2.709033966E0;-2.296152115E-1;-2.894744873E0
2.468755555E1;2.357694387E0;4.561180115E0;-4.017808437E0
2.470559516E1;1.609705448E0;2.766528606E0;4.206612587E0
2.472361653E1;1.102264166E0;2.522400379E0;-9.376964569E-1
2.474167512E1;2.847713947E0;2.296078205E0;-2.711172104E0
2.475971363E1;3.106501341E0;2.325671434E0;5.632789612E0
2.477775154E1;4.167536736E0;4.744563580E0;-3.590685844E0
2.479578632E1;5.324266434E0;2.768076897E0;-4.859004021E0
2.481382990E1;6.711512566E0;2.835936069E0;1.765389442E0
2.483186842E1;6.296403408E0;-5.480349541E0;4.758279800E0
2.484990797E1;7.957967281E0;1.516866446E0;-1.104510307E0
2.486793769E1;6.493617535E0;-4.142714977E0;-2.482168674E0
2.488598609E1;6.046272278E0;-4.204786777E0;4.274461746E0
2.490402442E1;4.689056873E0;-2.062523127E0;-2.350821495E0
2.492206428E1;3.844478369E0;-3.790276527E0;1.144113541E0
2.494010261E1;4.007016659E0;-4.974503517E0;-8.881826401E-1
2.495813722E1;3.240814209E0;-2.375709534E0;6.909694672E-1
2.497618080E1;1.722299576E0;-5.395205021E0;2.268822670E0
2.499422028E1;-3.213651776E-1;-2.926396847E0;2.960786819E-1
2.501225868E1;-2.643244267E0;-1.182649374E0;-5.700277328E0
2.503029872E1;-1.841344953E0;-1.188364983E0;7.375795364E0
2.504833711E1;-2.259078026E0;2.187625885E0;-1.049480438E-1
2.506637660E1;-1.550623417E0;-1.926463127E0;4.584225655E0
2.508441487E1;-4.236789227E0;1.408568764E1;-1.881370544E1
2.510245497E1;5.278819561E0;-2.647525024E1;2.887024498E1
2.512049238E1;-6.220015287E-1;3.328163147E1;-1.190860558E1
2.513853407E1;-7.705730796E-1;-2.323757744E1;-1.937328529E1
2.515657118E1;-1.471160769E0;1.530538177E1;1.863051224E1
2.517461170E1;7.075788021E0;-8.691183090E0;-7.169988155E0
2.519264979E1;-1.320229292E0;8.858741760E0;-9.352338791E0
2.521068934E1;2.331100702E0;-3.801122189E0;7.490414619E0
2.522872767E1;-2.045660973E0;9.650099754E0;-7.940141678E0
2.524676771E1;2.161499858E-2;3.753410339E0;-1.453433990E0
2.526480512E1;-4.870460033E0;4.605196953E0;1.344451904E-1
2.528284620E1;-2.053031445E0;-5.845371246E0;-1.894727230E0
2.530088392E1;-8.612210274E0;1.236785698E1;6.199092865E-1
2.531892426E1;-9.300241470E-1;-1.960166359E1;5.669198990E0
2.533695381E1;-7.971372128E0;5.849234581E0;-2.869686604E0
2.535500025E1;-1.282583952E0;-4.195777893E0;6.939258575E-1
2.537304200E1;-2.474009991E0;-1.018921280E1;1.642772675E1
2.539108039E1;-3.185467005E0;-3.520270824E0;1.013769627E1
2.540911836E1;-1.311905026E0;6.850835085E-1;-1.735220718E1
2.542715809E1;-4.884107113E0;-1.246803474E1;1.449319839E1
2.544519612E1;3.943269849E-1;9.375844002E-1;8.772916794E-1
2.546323670E1;-6.737965345E-1;-5.883481979E0;-1.564564991E1
2.548125892E1;2.609310150E-1;-2.126689196E0;7.977724075E0
2.549931532E1;1.213301569E-1;1.347658992E0;1.222023964E0
2.551735267E1;-2.121016383E-1;-1.415155292E0;-5.662597179E0
2.553539277E1;5.012924075E-1;-4.046601772E0;1.112566376E1
2.555343128E1;2.248424053E0;1.303211117E1;-8.139950752E0
2.557145887E1;2.144606590E0;-7.368701935E0;-4.905715466E0
2.558950886E1;1.092839599E0;7.480961323E0;7.740654945E0
2.560754926E1;1.919691801E0;-2.887081623E0;-1.109793472E1
2.562558711E1;2.988307714E0;1.126141739E1;-3.899374008E0
2.564362702E1;2.768263340E0;3.133622169E0;6.211622238E0
2.566166535E1;3.382455826E0;9.701399803E0;-3.699950218E0
2.567970551E1;2.784410954E0;-7.469543219E-1;-7.063954353E0
2.569774378E1;-2.260967731E0;9.396351814E0;-1.692077160E0
2.571577253E1;4.476921558E0;-2.474673986E-1;3.641571999E0
2.573381849E1;4.256270885E0;5.823605537E0;-2.628274918E0
2.575186469E1;2.149900436E0;-3.481037617E0;8.349601746E0
2.576990009E1;5.549057961E0;4.733154297E0;-7.399301529E-1
2.578793952E1;4.396561146E0;1.525983691E0;-5.486324787E0
2.580597791E1;3.296434402E0;-5.161020756E-1;1.592576027E0
2.582401801E1;3.047692299E0;5.238539696E0;6.534767151E-1
2.584205634E1;3.130658269E-1;-5.205233574E0;-4.239182949E0
2.586008619E1;3.817971945E0;-2.262108326E0;5.767988205E0
2.587813331E1;-3.483442783E0;3.724266529E0;-4.718728542E0
2.589617561E1;-1.133272886E0;-6.515000343E0;1.097374916E0
2.591421253E1;-6.928141594E0;3.781282663E0;8.123769760E-1
2.593225233E1;-3.911873102E0;-6.311989307E0;-6.505784988E0
2.595028138E1;-3.616837502E0;-2.442424059E0;-9.009056091E-1
2.596832777E1;1.766150951E0;-1.298485947E1;8.269357681E0
2.598637177E1;2.336862326E0;-1.269317865E0;-4.756055832E0
2.600440876E1;2.829300880E0;-4.126804352E0;-1.304979324E0
2.602244660E1;2.022593498E0;-1.873332977E0;2.514570236E0
2.604048707E1;-4.067206383E0;-4.819277763E0;-2.040044308E0
2.605852528E1;-4.656069279E0;-2.581007481E-1;-1.948696613E0
2.607656501E1;-5.083230972E0;6.327075958E-1;-2.227336884E0
2.609460291E1;-2.445778608E0;-3.530114651E0;3.701340675E0
2.611264198E1;-2.656966686E0;-1.937109232E0;2.007003784E0
2.613068287E1;-9.483493567E-1;-5.809085369E-1;-3.979084492E0
2.614872126E1;-2.380666256E0;2.728984356E-1;3.054788589E0
2.616675965E1;-2.638274193E0;1.160727024E0;-1.124954224E-1
2.618478382E1;-2.310173750E0;-4.691779137E0;-3.389376163E0
2.620283784E1;-1.194208860E0;-2.030030251E0;6.009841919E0
2.622087745E1;5.275878310E-1;-9.355104566E-1;-2.361069679E0
2.623891596E1;-1.657366157E-1;-2.106555700E-1;9.723682404E-1
2.625695258E1;-6.226307154E-2;-1.000895977E0;-7.834730148E-1
2.627499769E1;-1.054066420E0;8.644170761E-1;2.757530212E-1
2.629303376E1;3.095711470E-1;-1.741328955E0;-7.023792267E-1
2.631107215E1;-8.519878387E-1;1.239129782E0;9.552087784E-1
2.632911201E1;-1.466480494E-1;-3.545859098E0;-3.519048691E-1
2.634714796E1;-1.427259684E0;3.762715816E0;9.246807098E-1
2.636519257E1;-2.903374195E0;-5.018296242E0;-8.592796326E-1
2.638322846E1;-2.646426916E0;3.695416212E0;1.670742035E0
2.640126783E1;-1.986082792E0;3.144077301E0;-5.798825741E0
2.641930763E1;-2.411227226E-1;-4.147498608E0;5.461315155E0
2.643734632E1;-1.624557853E0;2.265635014E0;1.907237053E0
2.645538490E1;3.101054430E-1;-1.724065542E0;-1.237186432E0
2.647342469E1;1.158760548E0;-3.637068033E0;4.667523384E0
2.649146302E1;5.797034502E-1;-9.258484840E-1;-6.283912659E0
2.650950282E1;5.654650927E-1;-5.300177574E0;5.370590210E0
2.652754115E1;2.290735245E-1;3.244101524E0;3.654370308E0
2.654558100E1;3.129014969E0;-3.877465725E0;-4.293376446E0
2.656360804E1;1.430184484E0;8.055149078E0;1.072134018E0
2.658166133E1;3.082059860E0;4.639991522E-1;1.892775536E0
2.659968659E1;-1.158353329E0;-4.448872805E-1;-2.146366882E1
2.661773768E1;1.703163624E0;-5.697488785E-1;8.771098137E0
2.663577235E1;1.078678727E0;-1.134049702E1;1.044080448E1
2.665381556E1;-1.546728849E0;1.151175690E1;-1.083005810E1
2.667185389E1;1.531451344E0;-8.783065796E0;1.049921894E1
2.668989399E1;2.441475391E-1;3.499671698E0;5.792025566E0
2.670793202E1;1.205224395E0;-4.626425266E0;-3.962882519E0
2.672597169E1;-2.880182743E0;1.041239738E0;1.099768734E1
2.674400996E1;3.135681152E-1;-9.067181587E0;1.268741703E1
2.676205018E1;-3.631179333E0;2.219185352E0;-1.266956520E1
2.678008875E1;2.625158787E0;-2.654801369E0;1.444638824E1
2.679812837E1;3.074483871E-1;-7.678644657E-1;5.282463074E0
2.681616639E1;1.270464897E0;-2.167798519E0;-2.249655724E0
2.683420692E1;1.174937487E0;8.462951660E0;-1.602502823E0
2.685224476E1;4.079989910E0;-4.441468716E0;-1.907089710E0
2.687028456E1;-1.673341274E0;7.421304703E0;-1.576568604E0
2.688832288E1;1.646049500E0;-8.569524765E0;2.152881622E0
2.690636298E1;-5.515096188E-1;-5.576695204E-1;3.101058960E0
2.692440126E1;-2.847530842E0;-1.252017379E0;-8.911401749E0
2.694243147E1;-2.686526775E0;-5.274693012E0;4.239958763E0
2.696047749E1;9.458685517E-1;2.522691727E0;3.321381569E0
2.697852113E1;-3.392909765E-1;-2.805914879E0;-3.000799656E0
2.699655757E1;-1.142617822E0;-3.040159941E-1;8.085977554E0
2.701459754E1;-9.880000353E-1;4.879511833E0;-5.135951042E0
2.703263557E1;-2.784069180E-1;-3.531185150E0;-2.085713863E0
2.705067591E1;-7.806719542E-1;1.553230524E0;3.243300438E0
2.706871400E1;2.337229252E-2;-3.484061241E0;-2.710910797E0
2.708675361E1;-1.211292446E-1;5.271868229E0;1.456041336E-1
2.710479188E1;-6.620297432E-1;-5.411399364E0;-6.784029007E-1
2.712283192E1;5.144059658E-2;3.404854298E0;-7.745246887E-1
2.714087019E1;-1.171914935E0;-2.988513470E0;-1.166297913E0
2.715891016E1;1.911448240E0;2.970456123E0;2.149877548E-1
2.717694715E1;1.453519225E0;-3.107103348E0;-5.234146118E-1
2.719498835E1;1.775013924E0;-1.812700152E0;1.562682152E0
2.721302686E1;1.845646381E0;-4.965606213E0;5.453330040E0
2.723106623E1;2.932800770E0;2.814995050E0;1.765479088E0
2.724910462E1;8.550611734E-1;1.539863944E0;-5.269249916E0
2.726714491E1;1.581925601E-1;-7.708073854E-1;1.552299500E0
2.728518305E1;1.054785103E-1;5.923157215E0;-4.064524651E0
2.730322273E1;-7.965012789E-1;-9.269235611E0;-9.352970123E-1
2.732125227E1;-1.565680057E-1;3.697081089E0;3.585318565E0
2.733930195E1;1.327318072E0;-2.868033171E0;-4.218661785E0
2.735733979E1;1.057526469E0;-5.793417096E-1;7.561828613E0
2.737537904E1;1.080293298E0;6.297292709E-1;-5.499134541E0
2.739341749E1;4.992512167E-1;4.582520723E-1;-8.921861649E-1
2.741145472E1;1.280217290E0;3.032922745E-3;2.148858070E0
2.742949885E1;1.607620597E0;-4.277948141E-1;-2.750832081E0
2.744753571E1;6.651328206E-1;-3.055454254E0;1.995861053E0
2.746557368E1;3.175313175E-1;-1.689211130E0;1.793753624E0
2.748361414E1;7.591325045E-2;2.341697216E0;-1.944540977E0
2.750165247E1;2.044005096E-1;-2.953629017E0;-2.047924519E0
2.751969227E1;-3.980035782E-1;-1.021741986E0;7.523279190E0
2.753773042E1;6.595246494E-2;2.624612331E0;-4.653235912E0
2.755576234E1;3.232566714E-1;-4.028882504E0;-5.537710190E-1
2.757380775E1;-9.761318564E-3;9.893044233E-1;7.542943954E-1
2.759184956E1;-7.110491395E-3;-3.758553505E0;-3.798423767E0
2.760988679E1;2.539010644E-1;-1.568774939E0;4.981794357E0
2.762792664E1;-2.921570837E-1;-9.458877444E-1;-2.360118389E0
2.764596528E1;-9.115307927E-1;7.199209929E-1;-2.700783730E0
2.766400477E1;-3.948965073E-1;-1.299499989E0;-2.259093761E0
2.768204310E1;4.667277336E-1;-3.425806999E0;5.788815498E0
2.770008308E1;8.019766212E-2;2.721082926E0;-1.827972412E0
2.771812177E1;-8.367225528E-2;5.335128307E-1;-2.287707329E0
2.773615669E1;5.238524079E-1;-1.656147361E0;4.708623886E0
2.775419959E1;5.930951834E-1;4.867387772E0;-4.494920254E0
2.777224012E1;5.112560987E-1;-7.517555237E0;1.789854622E1
2.779026966E1;-1.604394436E0;6.034075260E0;-6.437839508E0
2.780831782E1;1.832721829E-1;6.449502707E-1;-1.111072636E1
2.782635609E1;-8.823767900E-1;1.301139474E0;3.426548004E0
2.784439637E1;-6.878578663E-1;-4.765034199E0;-8.190725327E0
2.786243470E1;-1.391758442E0;2.500020981E0;-6.959292412E0
2.788047425E1;-2.882110178E-1;-8.935276031E0;1.639721107E1
2.789851264E1;1.288656473E0;9.933194160E0;-4.043205738E0
2.791655287E1;-9.223321080E-1;-1.621106029E0;-8.124714851E0
2.793457484E1;-4.057855010E-1;1.699036241E0;4.449668884E0
2.795262769E1;-3.536542952E-1;5.963670254E0;-6.819096565E0
2.797067213E1;-4.069863260E-1;-7.136993885E0;-6.210159779E0
2.798870936E1;-5.832230449E-1;-3.472672939E0;4.169255257E0
2.800674751E1;3.189073205E-1;-2.455078125E0;-6.946191788E0
2.802478724E1;2.596141100E-1;-5.141416073E0;3.012084961E-1
2.804282270E1;1.706581116E-1;-7.547884941E0;1.634969139E1
2.806086872E1;2.146277905E0;3.344074726E0;-1.675126553E0
2.807890431E1;5.568467379E-1;5.670206070E0;-1.348546982E0
2.809694068E1;4.594351053E-1;-4.245470047E0;-3.751292706E0
2.811498512E1;8.125008345E-1;1.429150224E0;-4.089617252E0
2.813302229E1;5.213143826E-1;-4.742044210E-1;1.953065872E0
2.815106049E1;-8.978346586E-1;-4.970046878E-1;7.929372787E-1
2.816909168E1;-1.240787268E0;7.915806770E-1;-4.172472954E0
2.818713642E1;-2.022698879E0;1.855665445E0;-2.693209171E0
2.820518055E1;-1.526588917E0;-6.225992680E0;7.091464996E0
2.822321693E1;9.572380781E-1;1.012816238E1;-2.585744858E-1
2.824125587E1;-2.841412127E-1;-7.679950595E-1;-6.957399845E0
2.825929591E1;1.077275515E0;-3.396303654E0;6.197699547E0
2.827733509E1;-1.098069549E-1;-6.245089531E0;6.053902626E0
2.829537348E1;1.956646323E0;1.379911065E0;-4.163584709E0
2.831340272E1;-3.478853106E-1;-3.982826233E0;1.095849991E0
2.833144764E1;6.872699857E-1;-2.004012823E0;6.119737625E0
2.834949580E1;1.568757415E0;3.827699661E0;-3.515954971E0
2.836752998E1;-7.098317146E-3;1.006100178E0;-7.710913658E0
2.838556941E1;9.442548156E-1;-2.618211269E0;3.575290680E0
2.840360243E1;6.438332200E-1;2.285661936E0;8.891583443E0
2.842165132E1;3.156160116E0;6.065825224E-1;-6.249529839E0
2.843968647E1;1.053991318E0;6.342982054E-1;-8.462839127E-1
2.845772620E1;5.122600794E-1;5.890187025E-1;1.208923340E0
2.847576136E1;5.830690861E-1;-2.700785160E0;-7.559289932E-1
2.849380476E1;-7.244921923E-1;-7.113313079E-1;-4.084482193E-1
2.851184303E1;-1.465003967E0;-6.907678604E0;-1.706841469E0
2.852988270E1;2.012558281E-1;2.524638176E0;1.102813721E0
2.854790925E1;-2.236266613E0;-1.020216179E1;-5.654232502E0
2.856595667E1;6.364300847E-2;-4.694764137E0;6.214418411E0
2.858399952E1;9.723442793E-2;3.962950706E0;1.740686417E0
2.860203938E1;-6.948444843E-1;-3.213691711E0;2.717524529E0
2.862007777E1;1.083970070E0;2.412551880E0;-2.514688015E0
2.863811787E1;-1.772174358E0;1.413784146E0;-5.905454636E0
2.865615620E1;-7.135586143E-1;-2.994666576E0;9.088165283E0
2.867419587E1;8.558686376E-1;4.220324516E0;-3.640249252E0
2.869223408E1;-1.841722488E0;-9.153560996E-1;-5.794524193E0
2.871027424E1;-1.140392303E0;-5.690553784E-1;4.710973740E0
2.872831275E1;-1.535488844E0;-2.491596222E0;-4.898900986E-1
2.874635218E1;-1.245347500E0;-5.863308907E-3;-1.679563522E0
2.876439076E1;-1.024442315E0;3.285745144E0;-3.776407719E0
2.878241615E1;-1.743060470E0;-2.808929443E0;2.590404510E0
2.880046638E1;-1.056636810E0;-3.951776028E-2;-1.663465977E0
2.881851148E1;-1.193411827E0;-6.438188553E0;5.527533531E0
2.883654725E1;4.243639708E-1;6.684607029E0;-3.045228481E0
2.885458729E1;-2.114553452E-1;-1.031506157E1;3.675787926E0
2.887262574E1;1.618189573E0;5.641090870E0;1.415428162E0
2.889066560E1;-2.226838768E-1;-5.164332867E0;-7.160964012E0
2.890870374E1;1.547542572E0;4.035113811E0;6.829273224E0
2.892672724E1;1.848534346E-1;-2.582750320E-1;-7.188901901E-1
2.894478211E1;7.836943865E-1;1.921086788E0;-6.778192997E0
2.896282215E1;1.271505952E0;-3.020259380E0;2.644960403E0
2.898086024E1;1.157022834E0;3.863715172E0;-4.627853870E0
2.899890083E1;1.565382004E0;-7.785884380E0;-1.655367851E0
2.901693379E1;1.131570578E0;3.569552183E0;3.747942924E0
2.903497901E1;7.046992779E-1;-7.759017944E0;-4.015782356E0
2.905301661E1;1.955927849E0;2.509948730E0;8.973627090E-1
2.907105708E1;-1.459621340E-1;-6.616051674E0;3.590910912E0
2.908909541E1;1.506269455E0;1.028864026E0;-1.360156059E0
2.910713508E1;-7.815698385E-1;1.978257895E-1;-4.309269428E0
2.912517347E1;-3.262890875E-1;-4.044635296E-1;3.100909233E0
2.914321351E1;-1.185176253E0;-5.711532593E0;1.176122284E1
2.916125080E1;3.330043554E-1;8.337959290E0;-6.517260075E0
2.917929017E1;1.535563469E0;-4.266047478E0;-1.242284775E1
2.919733259E1;8.381968141E-1;-1.606685281E0;1.363334560E1
2.921537025E1;2.777608335E-1;4.292516708E0;-4.842130184E0
2.923340858E1;1.836151600E0;5.769641399E-1;-5.868722439E0
2.925143745E1;2.800468802E-1;5.696531534E-1;4.735596657E0
2.926948670E1;2.072379827E0;-1.162531376E-1;-5.565947056E0
2.928752375E1;2.258329630E0;-2.666958570E-1;7.474822998E-1
2.930556788E1;1.226505518E0;-3.302022696E0;1.132721901E0
2.932360487E1;1.272477627E0;3.219992161E0;3.051948547E-1
2.934164314E1;4.980036914E-1;-1.216785073E0;1.925259590E0
2.935968336E1;3.975574970E-1;-3.664358854E0;6.012210846E-1
2.937772157E1;1.173259139E0;9.253731966E-1;3.588637352E0
2.939575434E1;-6.205811501E-1;1.864451766E0;-3.990422249E0
2.941379627E1;1.039008498E0;-2.880180836E0;-2.632975101E0
2.943184339E1;8.022086620E-1;-2.673413038E0;2.630949974E0
2.944987812E1;1.779536128E0;-3.352900505E0;-9.665594101E-1
2.946791755E1;3.745863736E-1;-2.326511860E0;7.991991043E-1
2.948595649E1;1.184183955E0;-2.385309219E0;3.562469482E-1
2.950399629E1;-1.698431373E-1;5.574581623E-1;1.138096809E0
2.952203486E1;5.472093821E-1;-1.105371714E0;5.650768280E-1
2.954006324E1;-1.561294496E-1;1.027400732E0;-2.091215611E0
2.955811000E1;6.237366796E-1;-1.398826361E0;1.583271980E0
2.957615620E1;-5.596884489E-1;2.439059734E0;-2.746765137E0
2.959419142E1;4.558929205E-1;-5.355821609E0;1.805353165E0
2.961223133E1;-5.765645504E-1;-3.525478840E-1;5.972096443E0
2.963025623E1;1.092275977E0;8.816592693E-1;-4.596470833E0
2.964830696E1;-1.172726870E0;3.882992268E-2;5.763874054E-1
2.966635084E1;6.460751295E-1;-2.613439083E0;1.378479958E0
2.968438758E1;1.161865741E-1;-2.059698582E0;3.439548492E0
2.970242616E1;1.605072170E-1;1.240321040E0;1.942400932E0
2.972046620E1;-1.292063475E0;7.232476473E-1;-5.107580185E0
2.973850465E1;-6.940440089E-2;4.857361317E-2;6.020040512E-1
2.975654450E1;-2.913991511E-1;-2.332323074E0;-5.711021423E-1
2.977456782E1;9.636535048E-1;-1.011205912E-1;2.357565880E0
2.979262342E1;-1.859992892E-1;4.676698685E0;-3.860338688E0
2.981066078E1;7.155019045E-1;-1.055981636E0;-5.758126736E0
2.982870088E1;2.264737040E-1;-8.049792647E-1;2.605056763E-1
2.984673939E1;6.710870862E-1;-2.648393869E0;3.599500656E-1
2.986477583E1;1.384904146E0;-1.981415749E0;6.437830925E0
2.988281776E1;1.576195478E0;-4.351902008E-1;-1.869858265E0
2.990085749E1;1.363379955E0;-2.027434826E0;7.415117264E0
2.991889600E1;9.684002995E-1;9.917974472E-3;3.193954468E0
2.993693311E1;1.315718055E0;-1.221452594E0;5.186052322E-1
2.995497761E1;1.333783746E0;1.462976575E0;-5.893516541E-2
2.997301405E1;3.966268599E-1;-9.244418144E-2;-6.926796913E0
2.999105262E1;7.137989402E-1;-2.218882084E0;-5.085124969E-1
3.000909248E1;9.300999641E-1;-7.906463623E0;5.864680290E0
3.002712794E1;3.403412104E-1;3.881014824E0;-2.181626797E0
3.004517408E1;1.206191108E-1;-1.272410989E0;-7.748188972E0
3.006320918E1;1.056088567E0;1.657410145E0;4.330549240E-1
3.008124842E1;2.576207221E-1;-3.309451103E0;1.580984116E0
3.009928877E1;9.733732343E-1;9.298012257E-1;8.725547791E-1
3.011732752E1;-1.185182631E-1;-2.266358376E0;1.898201942E0
3.013536567E1;-6.835669279E-2;-1.878178120E0;8.536558151E-1
3.015340559E1;3.148943782E-1;-1.292790651E0;4.102363586E-1
3.017144428E1;1.037757874E0;-2.273166656E0;3.053951263E-2
3.018948402E1;1.350126266E0;-7.211952806E-1;1.769891739E0
3.020752235E1;1.587291121E0;2.113820553E0;-2.519654274E0
3.022556245E1;1.227966547E0;-1.894516587E0;1.359397888E0
3.024359651E1;7.421348244E-2;-3.130636454E0;2.522983551E-1
3.026164265E1;6.788061261E-1;5.732055902E-1;-2.281427860E0
3.027968000E1;-2.260486633E-1;8.250451088E-1;1.002429008E0
3.029771943E1;-2.457010597E-1;-1.106971383E0;7.463550568E-1
3.031575434E1;1.088117361E0;1.960697532E0;-1.352287292E0
3.033379743E1;6.156471968E-1;-1.884889126E0;3.065004349E-1
3.035183564E1;4.877864718E-1;1.953888059E0;-1.095725060E0
3.036987592E1;2.793650925E-1;-2.656320572E0;-3.755577564E0
3.038791395E1;5.088170618E-2;-3.376111031E0;5.239104271E0
3.040595393E1;2.575027049E-1;-4.579859734E0;3.546085358E0
3.042399214E1;3.223118931E-2;5.620659828E0;-4.962035179E0
3.044203266E1;6.165501475E-2;-9.139196396E0;-3.048948765E0
3.046007093E1;1.097960949E0;2.676865101E0;4.119199753E0
3.047811079E1;-1.564271152E-1;-1.929517865E0;-4.504868507E0
3.049614881E1;1.188006997E0;-6.287953854E-1;4.892435074E-1
3.051418940E1;9.466125965E-1;5.391387939E-1;1.098186493E0
3.053222749E1;2.828574479E-1;-2.369637966E0;-3.350687027E-1
3.055026740E1;4.995729327E-1;-1.495370865E-1;3.588059425E0
3.056830195E1;6.076470017E-2;3.599774837E-2;-3.288284302E0
3.058634559E1;2.516873181E-2;-2.217098475E-1;4.196872711E-1
3.060438423E1;-6.820812821E-1;-8.450633287E-1;3.348274231E-1
3.062242195E1;2.658671141E-2;8.086336851E-1;5.233608246E0
3.064045918E1;-5.741757154E-1;-9.622640610E-1;1.106758118E0
3.065850581E1;3.739316463E-1;2.549346685E0;-1.834609985E0
3.067654072E1;-4.670991302E-1;1.598830581E0;-1.625497818E0
3.069458064E1;-3.167512119E-1;-1.546321154E0;-1.023925781E0
3.071261909E1;-2.255534977E-1;8.872861862E-1;-6.233301163E-1
3.073065913E1;-6.169686913E-1;-2.562309504E-1;7.956790924E-1
3.074869770E1;-8.982056379E-2;7.847545147E-1;-2.494957447E0
3.076672517E1;5.651717186E-1;-2.254015446E0;-1.813153744E0
3.078477369E1;7.277846336E-3;-2.159431934E0;9.090871811E-1
3.080281745E1;-4.057430029E-1;-1.062098622E0;-1.352814674E0
3.082085438E1;6.606743336E-1;4.885309935E-1;1.835789680E0
3.083889405E1;1.526176929E-1;-1.689848065E0;-2.518879890E0
3.085692414E1;-5.919142962E-1;-5.948925018E-2;5.286838531E0
3.087497236E1;-5.134834647E-1;-2.027364492E0;-4.069837093E0
3.089301063E1;4.320247173E-1;-1.899467707E-1;1.743897438E0
3.091105067E1;-1.125356197E0;-2.456377029E0;3.945985794E0
3.092908882E1;5.229141116E-1;4.635717392E0;-6.639580727E0
3.094712928E1;7.765424252E-2;-4.148709297E0;1.740505219E0
3.096516743E1;1.242985725E-1;-1.284485221E0;1.362981796E0
3.098320734E1;4.855504632E-1;1.873456240E0;-3.509226799E0
3.100124452E1;-7.165431976E-2;-4.235143661E0;7.949954033E0
3.101928742E1;6.041559577E-1;5.124048233E0;-1.670915604E0
3.103732337E1;-7.199314833E-1;-7.835052609E-1;-4.027915478E0
3.105536390E1;-1.630047798E0;2.312911510E0;-2.122356415E0
3.107340229E1;-6.034814119E-1;-2.648106813E0;3.335819244E-1
3.109144251E1;-1.063950658E0;-2.731451988E-1;6.166496277E-1
3.110947822E1;-1.467123032E0;-1.462191463E0;-3.245435715E0
3.112752058E1;-3.799074292E-1;-3.953404427E0;4.107322693E0
3.114555879E1;3.542120457E-1;-1.567548513E0;-2.243375778E-1
3.116360029E1;-2.085862160E-1;1.341866374E0;-2.086432934E0
3.118163661E1;8.258309364E-1;-1.936978102E0;1.036370277E0
3.119967719E1;6.308569908E-1;1.949550271E0;4.501273155E0
3.121771546E1;-5.360729694E-1;2.746213436E0;-1.904014587E0
3.123574470E1;-9.371029735E-1;1.602484584E0;1.981483459E0
3.125379518E1;-1.373211145E0;-1.687176228E0;-2.669675827E0
3.127183290E1;-5.596939325E-1;-9.181272984E-2;4.006549835E0
3.128987226E1;-9.629077315E-1;1.330292344E0;-2.407657623E0
3.130791218E1;-6.678277254E-1;-2.390768290E0;1.833233833E0
3.132594605E1;-1.946100593E-1;3.151563644E0;-6.527385712E-1
3.134399012E1;-9.532673955E-1;-2.164609432E-1;-2.290837765E0
3.136202894E1;-9.751932621E-1;-4.783429503E-1;3.316089630E0
3.138006751E1;5.685460567E-2;1.979247808E0;-6.705263615E0
3.139810737E1;1.493787169E-1;1.574021578E0;3.978071213E-1
3.141614710E1;3.597068787E-1;-2.113722324E0;-1.537420273E0
3.143418543E1;5.285643339E-1;-1.625166774E0;-6.114835739E-1
3.145222602E1;5.145382285E-1;-1.207223177E0;-1.689119339E-1
3.147026777E1;1.265704632E-3;-4.203318954E-1;-1.827527523E0
3.148830396E1;-1.741321683E-1;-8.423433900E-1;-1.975710869E0
3.150634211E1;-4.959533215E-1;-1.211601925E1;1.840058517E1
3.152438221E1;3.354549885E0;7.516565800E0;4.633065224E0
3.154242078E1;-4.268263876E-1;8.101683855E-1;-9.351676941E0
3.156046040E1;9.422654510E-1;1.840386868E0;2.420005798E-1
3.157849867E1;1.513898969E-1;-2.902436256E-2;-3.619191170E0
3.159653919E1;4.611555338E-1;-8.181371689E-1;-1.064675331E0
3.161457716E1;5.357457995E-1;-4.343198299E0;6.553623199E0
3.163261701E1;-3.264850974E-1;-1.832751036E-1;8.264280319E0
3.165065547E1;-6.227782369E-1;3.424310207E0;-3.841228485E-1
3.166869563E1;-1.001939058E0;1.876547933E0;-7.140766144E0
3.168673414E1;-4.973383546E-1;-2.359926224E0;3.454996109E0
3.170476185E1;9.239129424E-1;3.231462479E0;3.583816528E0
3.172281214E1;7.730352283E-1;5.884366989E0;-4.202428818E0
3.174085237E1;3.935087919E-1;-7.739588261E0;7.625198364E-1
3.175889063E1;-2.674112916E-1;-1.501386523E0;-2.691593170E-1
3.177692787E1;-5.905546546E-1;-5.184578896E0;-1.906642914E-1
3.179497108E1;-3.962122202E-1;-2.129310608E0;2.564238548E0
3.181300898E1;6.010353565E-1;3.442888260E-1;-1.027938843E0
3.183104701E1;5.780398846E-1;3.457592249E0;5.530070305E0
3.184907758E1;5.359851122E-1;3.254103661E-2;-5.891549587E0
3.186712239E1;-6.152436137E-2;-2.517518520E0;1.709689140E0
3.188516792E1;4.325678647E-1;1.611305594E0;-1.049784660E0
3.190320356E1;4.710716307E-1;-7.649998069E-1;-5.479703426E0
3.192124269E1;1.128495932E-1;-1.363895416E0;2.602859497E0
3.193928272E1;1.498964787E0;-5.427294731E0;-1.783865452E0
3.195732221E1;3.604483902E-1;-2.774806261E0;1.033041286E1
3.197536030E1;1.129534006E0;3.022008181E0;-3.026690483E0
3.199340003E1;-3.075345159E-1;2.469073534E-1;-6.309877396E0
3.201143964E1;-7.604135871E-1;-9.383785725E-1;7.150904655E0
3.202947737E1;-2.380206734E-1;1.675871730E0;-6.512213230E0
3.204751704E1;-3.559156358E-1;-1.577856302E0;-1.437314987E0
3.206555653E1;-5.321489573E-1;-3.581116438E0;3.164753914E0
3.208358943E1;-3.595340252E-2;-3.617930412E0;-4.011909008E0
3.210163478E1;4.055695832E-1;-5.813941479E0;1.069294548E1
3.211967347E1;7.030166388E-1;-2.573814392E-1;8.787727356E-2
3.213771327E1;1.184732318E-1;-1.109455824E0;-3.243570328E-1
3.215574824E1;-6.917895079E-1;3.727797031E0;-1.608041763E0
3.217379188E1;5.878901482E-1;3.502197742E0;-3.638861179E0
3.219183021E1;-2.031004131E-1;-1.364980578E0;3.473052979E-1
3.220986976E1;-6.226136684E-1;-2.108682871E0;-3.682081699E0
3.222790791E1;-4.924507141E-1;-1.197352171E0;6.482749939E0
3.224594782E1;5.814714432E-1;-3.805383444E0;-2.272981167E0
3.226398701E1;1.943532526E-1;-1.993803978E-1;1.349115372E-1
3.228202656E1;4.067768753E-1;-1.356832981E0;-1.267030716E0
3.230006477E1;-4.211633205E-1;-6.162649393E-1;-4.008941650E-1
3.231810493E1;9.212952852E-1;-2.173447609E-2;2.127781868E0
3.233614326E1;7.994914055E-1;3.660109043E-1;1.441791534E0
3.235418293E1;6.483292580E-2;-2.135742903E0;-4.457626343E0
3.237222138E1;9.068113565E-2;-1.236990571E0;5.474545479E0
3.239025941E1;5.735530853E-1;4.949456453E-1;-3.460958958E0
3.240830146E1;4.376004338E-1;1.699478626E-1;9.386625290E-1
3.242633900E1;3.909556270E-1;1.851927161E0;-1.661532402E0
3.244437757E1;3.997136950E-1;3.742762804E-1;-2.948365211E0
3.246241322E1;8.959057927E-2;-9.300808311E-1;3.211949348E0
3.248045387E1;-2.442241460E-1;-7.483927011E-1;-3.773520947E0
3.249849836E1;-1.780276150E-1;3.017580509E-1;1.519482613E0
3.251653382E1;4.470578432E-1;-9.897253513E-1;-1.762453556E0
3.253457435E1;-1.324948967E-1;1.252176523E0;5.113096237E-1
3.255261274E1;1.297280192E0;-3.307296276E0;-4.714107513E-2
3.257065248E1;1.134933710E0;2.425189018E-1;1.630785942E0
3.258869080E1;8.901751637E-1;-1.690029621E0;-3.577742577E0
3.260672718E1;1.315179110E0;-2.243467808E0;3.342182159E0
3.262476893E1;1.192715764E0;-5.387976766E-1;1.723212242E0
3.264280903E1;5.574856997E-1;4.954804182E-1;1.004888535E0
3.266084724E1;6.973732710E-1;3.578548908E0;-3.662334919E0
3.267888764E1;-2.095892131E-1;6.547780037E-1;-2.556718349E0
3.269692286E1;-1.155151725E-1;2.366371632E0;1.126546860E-1
3.271496241E1;5.446503162E-1;1.252626657E0;-3.802359104E0
3.273300648E1;1.113718629E0;5.166785717E-1;-3.606812000E0
3.275104383E1;5.368661284E-1;-4.494775295E0;1.669926453E1
3.276908204E1;2.164369226E-1;3.454371929E0;-7.582419395E0
3.278712171E1;1.935693979E0;-4.382375240E0;-2.470943928E0
3.280516023E1;-1.019068480E0;1.254437566E0;6.567276001E0
3.282320002E1;1.450947762E0;-1.441417456E0;-8.205280304E0
3.284122578E1;6.575573087E-1;1.871458650E0;1.393205643E0
3.285927601E1;-1.639845371E-1;-1.445819283E1;2.590085602E1
3.287731928E1;1.855945587E0;9.427074432E0;-6.168953419E0
3.289535664E1;8.701812625E-1;7.238749266E-1;-6.293117523E0
3.291339491E1;-1.996364474E0;2.157119274E0;4.656791687E-2
3.293143440E1;7.247471213E-1;-9.393798113E-1;-1.231128502E1
3.294946510E1;-1.351686120E-1;5.567926407E0;-4.703739643E0
3.296751594E1;8.987281322E-1;-1.428772926E0;3.011307716E0
3.298555091E1;1.371386528E0;-2.082726955E0;-2.503630161E0
3.300358772E1;3.487263918E-1;-2.724910736E0;-3.549623489E0
3.302163221E1;3.319449425E-1;-1.228861809E0;2.979910851E0
3.303966938E1;-1.589543521E-1;-2.699613571E0;-3.491433620E0
3.305770747E1;-1.329229355E0;3.961847782E0;1.159232140E0
3.307574348E1;-1.474932075E0;-5.580244064E0;3.311181068E0
3.309378193E1;-1.478934646E0;-1.184225464E1;1.028002834E1
3.311182923E1;-1.728199601E0;5.331053734E-1;-6.673021317E-1
3.312986390E1;-2.160770416E0;-2.112195492E-1;-2.697095871E-1
3.314790345E1;-2.805121660E0;2.389483929E0;-5.896838665E0
3.316594178E1;1.860274196E0;-6.152803898E-1;9.736442566E-1
3.318398182E1;1.030432940E0;2.918034077E0;2.005972862E0
3.320202015E1;2.040969849E0;3.305414677E0;-4.245361328E0
3.322005964E1;5.251147747E-1;8.558206558E-1;3.094987869E0
3.323809620E1;1.224184752E0;2.451617241E0;-6.746501923E-1
3.325614021E1;1.197987318E0;1.823220134E0;-6.091508865E-1
3.327417646E1;1.028677702E0;1.833369613E0;-1.712303162E-1
3.329221620E1;-9.111881256E-3;5.892616510E-1;-5.324423313E0
3.331025056E1;6.401765347E-2;1.574010611E0;5.119712830E0
3.332829157E1;-1.055378795E0;-5.390356064E0;9.095935822E-1
3.334633570E1;-1.383917570E0;-9.967329025E0;8.427240372E0
3.336437214E1;-1.752984881E0;-1.142288923E0;6.308147430E0
3.338241047E1;-1.238589048E0;7.160321474E-1;1.037549019E0
3.340045088E1;-8.351303339E-1;4.486627579E0;-4.816330433E0
3.341848896E1;8.105949163E-1;-2.151955605E0;-1.017777443E0
3.343652833E1;-4.624643028E-1;2.484912395E0;-1.203390121E0
3.345455488E1;2.169645429E-1;-1.133818984E0;-3.769112110E0
3.347260676E1;-1.019453764E0;-8.417534232E-1;3.256270409E0
3.349064527E1;-9.595348835E-1;-3.204811811E-1;-4.397682190E0
3.350868488E1;-1.405987024E0;5.426800251E-2;-2.994730473E0
3.352672328E1;-1.222969770E0;-5.994445086E-1;3.144187927E0
3.354474818E1;-4.214412570E-1;5.897622108E-1;-2.061486244E0
3.356280140E1;-1.041524172E0;1.856812239E0;-2.514772892E0
3.358084113E1;-6.638329625E-1;-7.676010132E0;5.180309296E0
3.359887928E1;1.197085619E0;-5.245932102E0;1.530019760E0
3.361691932E1;3.083660603E-1;-6.140623569E0;1.187130928E0
3.363495771E1;7.513014078E-1;-1.161157012E0;2.238291740E0
3.365299738E1;4.573694468E-1;-2.910641193E0;-1.204324722E0
3.367103559E1;-6.740666628E-1;1.592622161E0;2.950601578E-1
3.368907276E1;-5.465656519E-1;3.629151583E-1;-1.468996048E0
3.370711085E1;-1.622111320E0;1.599615097E0;1.041639328E0
3.372515608E1;-2.318425655E0;1.964926124E0;-2.204638958E0
3.374319154E1;-2.819618225E0;3.435873032E0;-4.649670601E0
3.376123091E1;-2.118857861E0;2.700951099E-1;1.481143951E0
3.377927119E1;-2.514470577E0;-7.303147316E-1;5.880422592E-1
3.379730903E1;-9.730021358E-1;-1.256954908E0;2.600890160E0
3.381534779E1;-6.047259569E-1;-9.569621086E-1;-5.162429810E-2
3.383338587E1;-2.351826429E-1;-3.666420460E0;2.828444481E0
3.385142591E1;-1.954046488E-1;-1.942381620E0;1.629259109E0
3.386946565E1;-2.779551744E-1;-1.376593590E0;-1.629075527E0
3.388750056E1;-3.779846430E-1;-2.307629585E-2;-7.842445374E-1
3.390554658E1;4.506376982E-1;1.119357347E0;-5.296927929E0
3.392356703E1;9.191317558E-1;-3.080623150E0;4.994966507E0
3.394162196E1;5.611205101E-1;6.396187544E-1;-4.409962654E0
3.395966242E1;1.376928568E0;-1.194405556E-1;-4.291831970E0
3.397769984E1;-1.035140753E-1;-2.570045948E0;-1.914300919E-1
3.399573457E1;3.730722666E-1;3.524878025E-1;2.560777664E-1
3.401377766E1;7.917872667E-1;2.777251005E-1;8.765544891E-1
3.403181580E1;1.306135058E0;-2.456734657E0;1.970167160E0
3.404985584E1;4.067003727E-2;-4.153136611E-1;1.930291176E0
3.406789393E1;-1.873624325E-2;-5.402987003E-1;1.739907265E0
3.408593220E1;-1.092832565E0;-2.463090420E-1;-2.224688053E0
3.410397321E1;-8.525665402E-1;-3.296968460E0;-9.444732666E-1
3.412201185E1;-8.823019862E-1;-1.745185852E0;5.735292435E-1
3.414005018E1;-7.203489542E-2;-1.386171579E0;-2.474296093E0
3.415807777E1;-7.539491653E-1;-1.829720736E0;2.971444130E0
3.417612782E1;4.265358448E-1;8.277702332E-2;-2.386334419E0
3.419416786E1;-2.245908976E-1;-6.476809978E-1;-1.749715328E0
3.421219422E1;-4.522744417E-1;2.378318071E0;-1.912078857E0
3.423024543E1;1.972973347E-3;2.859491825E0;1.238563538E0
3.424828382E1;5.593919754E-2;1.190742135E0;-1.988348484E0
3.426632356E1;1.016170979E-1;1.063639760E0;-9.725131989E-1
3.428436195E1;-1.491648555E-1;-1.716701031E0;-8.257083893E-1
3.430240064E1;-1.148871064E0;-2.718597651E0;1.472342491E0
3.432043598E1;-2.453141451E0;-2.369490623E0;3.692054749E-2
3.433848377E1;-1.520047426E0;-1.386445284E0;2.782126427E0
3.435651795E1;-1.666263580E0;-2.304610610E-1;-1.382678986E0
3.437455744E1;-7.207142115E-1;-2.953411579E0;7.801209450E0
3.439259577E1;-2.273387313E-1;4.466213226E0;-4.958496094E-1
3.441063593E1;-1.353102326E0;7.630795240E-1;-4.546065331E0
3.442867390E1;-1.202069402E0;2.900624514E0;5.477800369E-1
3.444671327E1;-1.208331585E0;9.145579338E-1;-1.261822701E0
3.446474830E1;-1.284423590E0;5.881044865E0;-8.729257584E0
3.448279463E1;3.381400108E-1;-2.826343060E0;-2.112362862E0
3.450082990E1;-1.143773675E0;2.290809155E-2;5.739766121E0
3.451886952E1;-1.568662167E0;-1.502617836E1;3.182066917E0
3.453689790E1;-1.136052728E0;1.042519474E1;2.312897682E0
3.455494434E1;-8.664426208E-1;-7.156699181E0;5.045120239E0
3.457298872E1;-3.840153217E0;1.968676186E1;-4.369146347E1
3.459102491E1;2.686004162E0;-4.311774826E1;4.156048775E0
3.460906312E1;-5.341362000E0;2.367617416E1;2.825301361E1
3.462710334E1;1.740148664E0;-3.354201889E1;-3.638080597E1
3.464514155E1;-2.814712524E0;2.392367744E1;4.640041351E0
3.466318092E1;-2.153431416E0;-2.167699623E1;1.184219646E1
3.468121809E1;3.623367071E0;9.981091499E0;-1.205575275E1
3.469925782E1;-2.215306282E0;-7.402571201E0;2.074291801E1
3.471729908E1;-3.015547991E-2;1.324680519E1;-2.495461464E1
3.473533680E1;2.498457670E0;4.501588821E0;-1.400263596E1
3.475337483E1;-7.577896118E-1;1.908296585E1;8.827049255E0
3.477140052E1;-4.588906288E0;-1.979162025E1;2.283120728E1
3.478945564E1;1.927801371E-1;-2.123181820E-1;-1.730459023E1
3.480749256E1;5.624599457E0;1.877901649E1;7.846140862E0
3.482553034E1;-4.085138321E0;-7.096694946E0;5.233569145E0
3.484356770E1;5.206508636E0;-6.066887856E0;-3.518148899E0
3.486161146E1;-3.652204752E0;-2.166805506E0;1.352711773E1
3.487964832E1;-2.595609426E0;2.153508186E0;-3.534532547E0
3.489768635E1;1.940163374E0;4.294729710E0;-4.496874809E0
3.491571662E1;-7.550162673E-1;-8.119562149E0;-4.438781738E-2
3.493376283E1;9.554343224E-1;-7.782570124E-1;-1.350721359E0
3.495180555E1;2.681416035E0;-1.769628763E0;-3.379915237E0
3.496984211E1;1.021998167E0;4.214971066E0;-1.973438263E-2
3.498788166E1;-1.296318531E0;8.832703590E0;3.159389496E-1
3.500592005E1;2.175973654E0;-1.235775471E1;2.662054062E0
3.502395930E1;7.901214361E-1;1.352763772E0;3.258207321E0
3.504199763E1;-2.415196896E0;-1.096898460E1;-5.809745789E-1
3.506004255E1;2.400638819E0;2.313108826E1;-1.513886642E1
3.507807520E1;-1.352477431E0;-3.715227890E1;1.190865231E1
3.509611134E1;-4.027036190E0;2.487553024E1;1.047358036E1
3.511415345E1;-2.666735649E0;-2.063349152E1;-1.761916351E1
3.513219337E1;1.316393852E0;1.659041405E1;-3.959683895E0
3.515021290E1;-2.768731117E0;-1.074909115E1;-1.194031715E0
3.516826917E1;8.209713697E-1;9.990428925E0;-9.408588409E0
3.518631074E1;-2.399736643E-2;-1.022167778E1;5.290888786E0
3.520434895E1;9.008505344E-1;1.574564934E0;1.613184357E1
3.522238703E1;-2.340935707E0;5.951110840E0;-2.210206223E1
3.524042664E1;-2.176904440E0;-1.597320747E1;-2.396806717E1
3.525846467E1;3.790994167E0;-9.331298828E0;3.602890778E1
3.527650477E1;1.429889679E0;9.261367798E0;-1.975483131E1
3.529454237E1;-8.817377090E0;1.177936745E1;-2.145773315E1
3.531257905E1;3.069924712E-1;4.891827703E-1;2.252934265E1
3.533062324E1;1.634212494E0;-1.587638474E1;6.034340858E0
3.534866047E1;-2.304773569E0;6.060093880E0;-1.599148178E1
3.536669831E1;-1.137053967E-1;-3.795511246E0;2.416096687E0
3.538472785E1;4.014986753E-2;-1.687412620E0;2.530241013E0
3.540277577E1;-3.989337087E-1;1.118282795E1;5.121202469E-1
3.542081568E1;-6.532145739E-1;-6.288202763E0;-7.584743500E-1
3.543885395E1;-1.260877371E0;-1.215863323E1;-3.155841827E-1
3.545689338E1;-1.800943613E0;2.972791481E1;-3.691545963E0
3.547493147E1;8.351870179E-1;-5.611146927E0;-9.945364952E0
3.549297150E1;-1.020395517E0;-2.979902744E0;-5.969461441E0
3.551100941E1;6.993622184E-1;2.595361710E0;7.389398575E0
3.552904865E1;8.264531493E-1;2.027477264E0;-4.890423298E0
3.554708668E1;-2.807614326E0;-1.685433149E0;2.755032539E0
3.556512708E1;8.660172224E-1;2.460057259E0;-4.614532471E0
3.558316517E1;-1.377819777E0;5.649969578E-1;-9.630709648E0
3.560120350E1;-9.160230160E-1;3.781503677E0;2.471099854E0
3.561924043E1;-7.757010460E-1;-5.579451084E0;1.286355019E0
3.563728553E1;1.508134604E0;-8.618307114E-2;7.088413239E-1
3.565532044E1;1.961523056E0;-4.355283737E0;-2.033740997E0
3.567335993E1;3.356249571E0;-8.836894631E-1;-1.215974808E0
3.569139778E1;1.430192590E0;-7.183028460E-1;-3.085938454E0
3.570943806E1;1.993718505E0;-4.069788933E0;7.228548050E0
3.572747596E1;8.102071285E-1;4.138392448E0;4.827680588E-1
3.574551521E1;4.439145923E-1;4.098302841E0;-1.147347450E0
3.576353498E1;1.957991570E-1;1.089883804E0;1.751812935E0
3.578159400E1;-5.581321120E-1;6.674742699E-2;-1.100051880E0
3.579963374E1;3.197153211E-1;4.956196785E0;-2.629348755E0
3.581767066E1;6.348794103E-1;-1.559540987E0;-8.030843735E-1
3.583570545E1;9.524918795E-1;5.829842687E-1;2.685922623E0
3.585374854E1;1.767510653E0;-3.665360212E0;-1.804744720E0
3.587178681E1;1.161649942E0;2.997023106E0;-4.963006973E-1
3.588982612E1;7.654969692E-1;-3.453107834E0;-9.981918335E-1
3.590786115E1;2.745058775E0;2.615538597E0;2.640363693E0
3.592590339E1;1.211067319E0;2.396053076E-1;-2.006829739E0
3.594394111E1;2.507046223E0;-1.573296785E-1;2.755097389E0
3.596198152E1;1.890582085E0;-6.146853566E-1;-1.412281036E0
3.598001978E1;1.114001393E0;-1.601222754E-1;8.817100525E-2
3.599804310E1;1.113772988E0;-2.204856873E0;1.317104340E0
3.601609461E1;7.972238064E-1;-2.445634604E-1;2.520915985E0
3.603413990E1;1.136715531E0;-1.517859817E0;-1.914662838E0
3.605217512E1;1.679909945E0;1.601324081E-1;2.265022278E0
3.607021491E1;1.808117151E0;-1.389400959E-1;-1.395901680E0
3.608825306E1;1.496366978E0;6.376483440E-1;5.868053436E-1
3.610628779E1;4.961125851E-1;7.030248642E-2;-2.569658756E0
3.612432392E1;7.101607323E-1;-2.633548498E0;1.912727356E0
3.614237013E1;-3.268243670E-1;-1.396496534E0;-3.127603531E-1
3.616040754E1;2.513834536E-1;-2.925641060E0;1.355575562E0
3.617844856E1;-7.132877707E-1;-1.541248679E0;-5.673990250E-1
3.619648573E1;2.974544466E-1;-2.862137794E0;5.451211929E-1
3.621452589E1;-1.300169706E0;9.845117331E-1;-3.151575565E0
3.623255244E1;1.522534609E0;-1.524528384E0;2.453492165E0
3.625060304E1;1.962827593E-1;1.285649419E0;1.114929199E0
3.626864118E1;1.229114771E0;1.020036936E-1;-2.580534458E0
3.628668098E1;4.179676175E-1;6.015547514E-1;3.492920876E0
3.630472010E1;-1.041237950E0;2.308992147E-1;-2.135653496E0
3.632275733E1;-6.035640240E-1;-6.492871046E-1;4.594034195E0
3.634079646E1;-1.820339680E0;3.583114624E0;-1.589034081E0
3.635883650E1;-2.057088852E0;1.572369337E-1;-1.241918564E0
3.637687562E1;-1.740753174E0;-1.781561852E0;4.807252884E-1
3.639491212E1;-1.407370567E0;-1.446219683E0;2.944059372E-1
3.641295326E1;-3.947107494E-1;-2.580052018E-1;1.034107208E-1
3.643099152E1;3.165560961E-2;-1.351428986E0;6.129732132E-1
3.644902986E1;-9.413843155E-1;-1.831946373E0;-6.895723343E-1
3.646706910E1;2.553225756E-1;3.367116928E0;-4.557828903E-1
3.648510731E1;-1.333184242E0;-1.321872473E0;-3.904067993E0
3.650314692E1;-6.869633794E-1;-4.143959045E0;5.877170563E0
3.652117280E1;-9.661236405E-1;-1.450640321E0;1.612481117E0
3.653922541E1;-1.554883957E0;7.380318642E-2;2.054071426E-1
3.655726222E1;-1.606183410E0;-1.035258770E-1;-6.831445694E-1
3.657530238E1;1.741967797E-1;-2.204648733E0;4.216251373E-1
3.659334016E1;-3.438029289E-1;1.957232356E0;1.580510139E0
3.661136750E1;9.070146084E-1;-1.984443426E0;-2.411242962E0
3.662941383E1;6.254299879E-1;-7.262674570E-1;-2.532835007E0
3.664746125E1;7.220852375E-2;-2.089050293E0;5.793962479E-1
3.666549525E1;6.987097263E-1;-3.156064034E0;1.054730415E0
3.668353175E1;4.346253872E-1;-1.753010273E0;-1.948070526E-2
3.670157569E1;-8.165012002E-1;4.618433952E0;4.301309586E-1
3.671961268E1;-2.907375693E-1;-1.503627419E0;7.057590485E-1
3.673765095E1;-1.215874434E0;6.440690756E-1;3.297006607E0
3.675569904E1;-1.796287775E0;2.169448853E0;-2.887377262E0
3.677372804E1;-1.046416759E-1;1.581413984E0;-2.415109158E0
3.679176795E1;-1.120015025E0;-2.188537598E0;2.154999733E0
3.680980573E1;-9.982827902E-1;-1.898437977E0;6.333074570E-1
3.682784522E1;-1.488449454E0;2.051193714E0;-2.569636822E0
3.684587171E1;-4.985055327E-1;-1.071943045E0;1.105292320E0
3.686392439E1;3.153833151E-1;1.292897344E0;6.037588120E-1
3.688196101E1;5.116988420E-1;-3.710601926E-1;-4.319305420E-1
3.690000044E1;2.290840149E-1;2.967730522E0;-2.197622776E0
3.691803846E1;-1.271911263E0;-4.593002319E0;4.560107231E0
3.693607844E1;-1.834250212E0;-1.087823749E0;2.031166077E0
3.695411604E1;-2.225407124E0;-2.078720808E0;-5.827958584E0
3.697215559E1;-1.341954470E0;-2.882268906E0;1.001308155E1
3.699018214E1;-1.466138601E0;1.936559081E0;-5.254436016E0
3.700822944E1;-1.531031609E0;-2.990202427E0;-1.972860813E0
3.702627510E1;-2.114051342E0;1.052399874E0;2.412972450E0
