"Time (s)";"Linear Acceleration x (m/s^2)";"Linear Acceleration y (m/s^2)";"Linear Acceleration z (m/s^2)"
1.303397190E-1;6.640571952E-1;2.100795507E-1;8.074579239E-1
1.483829310E-1;4.162330627E-1;-6.205214262E-1;-7.632293701E-1
1.664176610E-1;7.070221901E-1;9.053220749E-1;-1.663199425E0
1.844597750E-1;-9.200569391E-1;-1.449003339E0;-2.992744446E-1
2.024892550E-1;3.371015489E-1;1.297274232E-1;1.176078796E0
2.205266690E-1;-5.657426119E-1;-9.912093282E-1;-8.477592468E-1
2.385750090E-1;4.496864378E-1;-2.583128810E-1;1.108856201E-1
2.566036960E-1;7.500916719E-1;-1.072162271E0;4.154014587E-1
2.746421470E-1;-4.580985606E-1;-4.354750514E-1;-1.474752426E-1
2.926759000E-1;-4.234073162E-1;-4.913528264E-1;-5.247783661E-2
3.107123990E-1;2.733611763E-1;-1.182051420E0;7.280225754E-1
3.287556730E-1;-1.419046521E-1;1.326927662E0;-1.628694534E-1
3.467903410E-1;6.529549137E-3;-2.422787428E0;-1.177158356E-1
3.648308080E-1;-2.009283900E-1;-3.021812141E-1;1.091798782E0
3.828630340E-1;1.332622886E0;3.162350059E-1;-8.394594193E-1
4.008995330E-1;-4.542468488E-1;3.122532368E-1;2.979688644E-1
4.189435400E-1;-1.663755924E-1;8.572868109E-1;-1.388307571E0
4.369737510E-1;-8.322021961E-1;-3.384684324E-1;1.652914047E0
4.550165380E-1;-6.427294612E-1;2.389585972E-2;-4.502477646E-1
4.730410740E-1;-3.917739987E-1;3.462812901E-1;5.417346954E-2
4.910821500E-1;-3.279624581E-1;-8.674118519E-1;5.958948135E-1
5.091284760E-1;-1.447634548E-1;1.077646017E-2;-8.270254135E-1
5.271624730E-1;-9.120406508E-1;-7.524737716E-1;7.119388580E-1
5.452030000E-1;-1.590950966E0;-6.647250056E-1;1.684083939E-1
5.632384620E-1;-1.968279481E0;-2.066664696E-1;-9.344711304E-1
5.812716030E-1;-1.888769507E0;-5.955437422E-1;2.246942520E-1
5.993131680E-1;-1.974255562E0;-8.981034160E-1;-1.999216080E-1
6.173502780E-1;-1.988109231E0;-2.868017554E-1;-1.731863022E-1
6.353876310E-1;-1.172236443E0;-2.216117620E0;5.722780228E-1
6.534273040E-1;-2.043438673E0;9.771999717E-1;-2.909173965E-1
6.714550140E-1;-1.681401968E0;-1.482247829E0;3.407230377E-1
6.895015840E-1;-2.185029745E0;5.013247132E-1;-9.627628326E-1
7.075239230E-1;-1.866391897E0;-5.487574339E-1;-2.070288181E0
7.255745210E-1;-2.119601488E0;-1.773745298E0;2.938909531E0
7.436122410E-1;-1.623577356E0;1.068644524E-1;-1.206514359E0
7.616444060E-1;-1.548129559E0;-5.413613319E-1;-3.987312317E-1
7.796796230E-1;-2.803948402E0;-7.399108410E-1;-6.838989258E-2
7.977244840E-1;-7.810915709E-1;-1.282313943E0;-8.760919571E-1
8.157600680E-1;-3.427932262E0;-1.641345978E0;-1.986160278E-1
8.337966270E-1;-8.526600599E-1;-2.352632284E-1;6.457242966E-1
8.518254360E-1;-2.304631948E0;-4.435733855E-1;-1.729583740E-1
8.698637670E-1;-9.076855183E-1;-1.044823527E0;-1.343088150E-1
8.879116790E-1;-9.922868013E-1;-9.895603061E-1;5.662527084E-1
9.059527550E-1;-1.238826513E0;-1.154620171E0;-1.509952545E-1
9.239865690E-1;-2.197782040E0;-5.796962976E-1;-1.466045380E-1
9.420165980E-1;-2.636968613E0;-1.137241721E0;7.772512436E-1
9.600507170E-1;-2.553850412E0;-5.795373917E-1;2.140868187E0
9.780973480E-1;-1.944849968E0;-1.450242996E-1;-1.674312115E0
9.961321380E-1;-1.730594277E0;-8.821147680E-1;-4.547595978E-1
1.014171872E0;-9.556987882E-1;-9.841497540E-1;1.220246315E0
1.032201595E0;-1.143894315E0;-9.768426418E-3;-1.828241348E-1
1.050240353E0;-8.291159868E-1;1.344225407E-1;1.127754211E0
1.068275143E0;-7.661898136E-1;2.579380274E-1;-4.691066742E-1
1.086310116E0;5.061483383E-2;-4.085494876E-1;7.045078278E-1
1.104355344E0;2.103483677E-1;-5.899598002E-1;2.423706055E-1
1.122390805E0;2.719593048E-1;-5.030709505E-1;-2.434778214E-1
1.140422970E0;7.118105888E-2;-1.529796124E0;1.311903954E0
1.158468442E0;4.643199444E-1;7.862873077E-1;-4.648561478E-1
1.176506833E0;-6.529581547E-2;-6.023229957E-1;5.638647079E-1
1.194544308E0;7.014822960E-2;1.244316697E-1;-2.690410614E-1
1.212574155E0;6.828212738E-2;-7.786934972E-1;1.073760033E0
1.230605771E0;6.108835936E-1;-3.235638142E-2;-6.455221176E-1
1.248648556E0;-2.752454281E-1;-1.605281532E-1;-7.855653763E-1
1.266691586E0;-1.035987139E-1;-1.094713569E0;1.001194954E0
1.284729489E0;-1.362345219E-1;-2.091565430E-1;-3.532743454E-1
1.302761532E0;-6.739468575E-1;-1.492662191E0;5.920581818E-1
1.320792233E0;-6.596971750E-1;-7.235761285E-1;3.009757996E-1
1.338827511E0;-1.025614977E0;-8.019461632E-1;-4.453277588E-1
1.356878109E0;-1.185614109E0;-4.771832824E-1;-5.720891953E-1
1.374916562E0;-1.276953697E0;-8.301479816E-1;6.513910294E-1
1.392967038E0;-8.970518112E-1;8.318369985E-1;-2.298974991E-1
1.410986020E0;-1.056545377E0;-1.862472534E0;4.859142303E-1
1.429030698E0;-6.499916315E-1;2.276051641E-1;-1.476812363E-1
1.447063047E0;-1.017803073E0;-9.480795264E-1;2.313117981E-1
1.465087704E0;-1.266807437E0;1.737782001E0;-1.510172844E0
1.483138364E0;-1.986248970E0;9.672217369E-1;-1.777253628E0
1.501170956E0;-1.590465784E0;-5.848329663E-1;1.806395531E0
1.519212948E0;-1.402322054E0;6.289660931E-1;-1.378202438E0
1.537248837E0;-1.333842278E0;-5.096888542E-1;5.859718323E-1
1.555278439E0;-1.274179220E0;-3.914648294E-2;1.258068085E-1
1.573309811E0;-1.252995253E0;-2.924840748E-1;-7.458257675E-1
1.591360043E0;-1.268034816E0;-8.482508659E-1;7.996931076E-1
1.609396420E0;-1.781550884E0;-6.720166802E-1;4.405879974E-1
1.627443662E0;-1.988217115E0;-1.505865753E-1;-1.923465729E-2
1.645472592E0;-1.873428941E0;-7.818064690E-1;4.688491821E-1
1.663512204E0;-1.960540891E0;2.320238352E-1;4.578104019E-1
1.681543271E0;-1.007056355E0;1.885981560E-1;-9.772329330E-1
1.699574521E0;-1.282199502E0;5.225360394E-1;2.985754013E-1
1.717609433E0;-7.324669361E-1;-2.257947922E-1;2.034049988E0
1.735656003E0;-1.184130788E0;2.923257351E-1;1.332852364E0
1.753698240E0;-9.467351437E-1;9.143520594E-1;-2.013121128E0
1.771721616E0;-1.187116265E0;-2.453666031E-1;1.761612892E0
1.789770932E0;-7.687479258E-1;1.230597496E-2;-2.540979385E-1
1.807806942E0;-1.158866882E0;5.773028135E-1;6.227293015E-1
1.825847592E0;-1.657414436E0;2.900811434E-1;-8.473110199E-2
1.843885678E0;-1.729342461E0;2.649337649E-1;1.256359100E0
1.861915708E0;-1.297657490E0;-2.479273081E-2;-1.064656258E0
1.879952450E0;-1.184346795E0;-6.039958596E-1;1.551949501E0
1.897994198E0;-1.126535654E0;2.888791561E-1;-4.463386536E-1
1.916033566E0;-1.492188692E0;3.869462907E-1;9.810991287E-1
1.934059079E0;-2.402907372E0;-7.431589365E-1;2.013651848E0
1.952103574E0;-2.005198240E0;2.626090050E0;-2.357244015E0
1.970137692E0;-1.306588173E0;-1.210402846E0;-2.976112366E0
1.988182431E0;-1.821539164E0;-9.409316778E-1;3.970932961E0
2.006218747E0;-7.482635975E-1;-6.741402745E-1;-1.128554344E0
2.024258664E0;-6.465998888E-1;2.316983461E0;2.011033058E0
2.042288876E0;-2.247448683E0;-9.076235294E-1;-1.019215584E0
2.060326901E0;-7.611073256E-1;6.643322706E-1;1.035792351E0
2.078366940E0;-3.430535793E-1;-3.950459659E-1;-3.088665009E-1
2.096406064E0;-7.161585093E-1;-1.092918038E0;1.992469788E0
2.114444028E0;-3.498284817E-1;-8.223609924E-1;-2.859535217E-1
2.132476315E0;-1.167975903E0;-2.946148396E0;2.873551369E0
2.150512143E0;-7.451994419E-1;-1.640204191E0;6.360736847E0
2.168555539E0;6.625092030E-1;6.716590881E0;-8.524881363E0
2.186589474E0;-1.471689224E0;-5.727235794E0;-5.490372658E0
2.204633298E0;-1.603141904E0;2.302006483E0;3.997105598E0
2.222662290E0;-2.910695076E-1;-1.529571652E0;-6.430122852E0
2.240699765E0;-2.468705654E0;1.060929060E0;5.003873825E0
2.258741757E0;-3.946210146E-1;-1.150782108E0;-2.143109322E0
2.276778195E0;-1.895956993E-1;9.393721223E-1;-2.856750488E-1
2.294816891E0;-1.251892328E0;-3.203920126E-1;2.338290215E0
2.312848691E0;-2.226670504E0;-7.039817572E-1;-9.187974930E-1
2.330885800E0;-2.346947193E0;-2.691958666E0;5.802917480E-2
2.348928952E0;-2.733793736E0;-2.809289694E-1;2.052924156E0
2.366952267E0;-1.720246434E0;-1.498880744E0;6.010657310E0
2.385004208E0;-9.873620272E-1;5.958827496E0;-1.312202454E0
2.403033139E0;-1.924582481E0;-3.356333256E0;-1.913304710E1
2.421073911E0;-3.929394722E0;9.297514558E-1;7.818584442E0
2.439114316E0;-5.124197006E-1;-6.148661375E-1;-1.783944130E0
2.457151365E0;-3.553506374E0;1.914484739E0;5.608177185E-1
2.475190182E0;-2.620517969E0;-2.528471947E0;1.542954445E0
2.493229855E0;-2.286595583E0;4.712908566E-1;-2.508821487E-1
2.511258664E0;-3.359882355E0;-1.578080535E0;1.374811172E0
2.529301816E0;-3.573165417E0;4.563794136E-1;1.789849281E0
2.547338803E0;-2.814984322E0;-3.664862633E0;2.010664940E0
2.565376950E0;-1.984226704E0;2.780559778E0;-1.197839737E0
2.583414181E0;-2.204006672E0;1.944616139E-1;-1.018062592E0
2.601444028E0;-2.499182224E0;3.431118727E-1;1.693011284E0
2.619490170E0;-1.919769049E0;5.028585196E-1;5.396347046E-1
2.637519406E0;-1.240567088E0;8.441601992E-1;4.833498001E-1
2.655562802E0;-2.291596413E0;8.595993519E-1;3.095149994E-1
2.673600095E0;-1.832069159E0;7.481893152E-2;6.212453842E-1
2.691634579E0;-3.103296280E0;5.381733775E-1;8.543777466E-1
2.709671994E0;-2.387187481E0;2.029214382E0;2.542266846E-1
2.727710995E0;-3.603825808E0;-4.142477512E0;2.607284546E0
2.745749814E0;-1.923661351E0;-4.453325868E-1;-2.438850403E-1
2.763787899E0;-2.356513739E0;6.699227542E-2;-7.173538208E-1
2.781817196E0;-1.399906278E0;8.458404541E-1;1.917543411E0
2.799856442E0;-3.332708597E0;-7.450896502E-2;4.339449883E0
2.817898313E0;-8.956601620E-1;8.101997375E0;-7.881429672E0
2.835938779E0;-5.118404865E0;-4.702294350E0;3.440981865E0
2.853968869E0;-2.435103655E0;3.744347334E0;-1.329824448E0
2.872006040E0;-2.613302231E0;-2.691737413E0;2.632927895E0
2.890044736E0;-1.722823858E0;3.586097717E0;-1.497548580E0
2.908083309E0;-2.914974928E0;-3.795636892E0;2.610791206E0
2.926123899E0;-1.792401671E0;2.308497667E0;-7.726526260E-1
2.944160275E0;-1.785535216E0;-2.051297426E0;3.032262802E0
2.962194272E0;-2.288076401E0;2.044884205E0;-1.346397400E0
2.980230344E0;-1.487757444E0;-7.081184983E-1;1.615047455E0
2.998259640E0;-2.744625807E0;1.562986255E0;9.066143036E-1
3.016311521E0;-1.805022120E0;-1.235700011E0;-5.457344055E-1
3.034348996E0;-1.951092243E0;1.737019539E0;1.545007706E0
3.052379636E0;-8.956267834E-1;-3.036520720E0;-9.192333221E-1
3.070418637E0;-1.544980049E0;2.949520826E0;4.816150665E-1
3.088458554E0;-1.411076427E0;-2.531343460E0;-4.131617069E0
3.106480405E0;-2.585436821E0;9.628794193E-1;3.957054138E0
3.124532346E0;-1.115445733E0;8.419706225E-1;-3.318486214E0
3.142570431E0;-2.470033169E0;-1.414271474E0;8.887910843E-1
3.160603757E0;-1.558748126E0;-2.700204372E0;1.196349144E0
3.178643124E0;-1.229466319E0;1.753777742E0;1.038249969E0
3.196683224E0;-1.275286913E0;-1.305925965E0;-1.384649277E-1
3.214723508E0;-1.183672309E0;5.413334370E-1;1.487736702E0
3.232758603E0;-6.860473156E-1;-8.328112960E-1;-2.166007996E0
3.250784970E0;-1.009487629E0;-9.115897417E-1;2.215678215E0
3.268831418E0;2.845864296E-1;2.841915369E0;-4.681021690E0
3.286874143E0;1.687765121E-1;-2.933306217E0;-2.227365494E0
3.304908139E0;-1.586713195E0;2.582671881E0;5.165083885E0
3.322945798E0;1.408706427E0;-2.872658014E0;-9.766141891E0
3.340972165E0;-2.905680895E0;-1.044222593E0;1.500945187E1
3.359021298E0;2.246569395E0;2.054601908E0;2.246187210E0
3.377057859E0;-6.537542343E-1;9.439926744E-1;-2.591035366E0
3.395096066E0;4.385781288E-2;-2.877852440E0;5.252485275E0
3.413136044E0;-1.138770580E-2;2.317233562E0;-3.251136780E0
3.431168393E0;-1.814471483E-1;2.826152444E-1;-6.677093506E-1
3.449210385E0;-2.005002499E-1;4.381311238E-1;1.721032143E0
3.467245724E0;-3.170579672E-1;1.113494635E0;-3.278464794E0
3.485264401E0;-1.832611561E-1;3.105022609E-1;4.196180344E0
3.503319943E0;-1.411437988E-3;5.497676134E-1;-1.611962318E0
3.521357724E0;-2.115464211E-2;-3.722237587E0;3.081856728E0
3.539395443E0;-8.877822161E-1;1.165758371E0;3.549394608E0
3.557433835E0;1.412236452E0;3.523338795E0;-1.412717152E1
3.575470578E0;-2.210619926E0;-4.695904255E0;7.640478134E0
3.593506894E0;-1.138753891E0;2.621622562E0;3.187070847E0
3.611545041E0;-1.634141088E0;-3.742973089E0;-7.743916988E0
3.629581845E0;-2.570972443E0;6.288330555E0;2.213272095E0
3.647616513E0;-1.724581122E0;4.093582928E-1;-3.771887302E0
3.665656735E0;-8.391877413E-1;-6.308847070E-1;1.354841232E0
3.683695065E0;-1.680171013E0;-1.963490009E0;-1.018603325E0
3.701731686E0;-7.784318924E-1;-1.238983944E-1;2.250157356E0
3.719769955E0;1.302385330E-2;-1.767279029E0;-1.178131104E0
3.737804990E0;-1.084317565E0;1.217140257E-2;7.520351410E-1
3.755846310E0;-1.118731618E0;2.432569265E0;-1.931077957E0
3.773881833E0;-1.116726875E0;-2.520704508E0;8.729457855E-2
3.791919857E0;-1.780900717E0;1.425792694E0;3.662381172E0
3.809956296E0;-8.714882731E-1;-1.787373573E-1;-5.044497967E0
3.827989804E0;-1.551073909E0;2.598849058E0;3.616751671E0
3.846031613E0;-1.344288230E0;-2.143569946E0;-1.501578331E0
3.864067685E0;-1.736174703E0;-6.180658937E-2;-1.382415771E0
3.882106259E0;-1.186215162E0;3.431044817E-1;-5.732059479E-1
3.900144406E0;-1.906960011E0;8.973599076E-1;1.725160599E0
3.918181455E0;-4.778692126E-1;1.932483017E-1;-1.524353027E0
3.936219662E0;-1.636744261E0;6.134331822E-1;9.705400467E-1
3.954257566E0;-1.095761657E0;6.333947182E-1;-7.709503174E-3
3.972291256E0;-9.938376546E-1;-1.965809584E0;2.338795662E0
3.990333921E0;-1.970295668E0;1.611074209E0;1.272785187E0
4.008369503E0;-6.319867373E-1;-1.649860442E-1;-4.858786106E0
4.026405759E0;-1.610677004E0;2.804089785E-1;3.435906410E0
4.044444272E0;-5.206227303E-2;-2.552258968E0;-7.982749939E-1
4.062481076E0;-9.933120608E-1;1.403322697E0;2.643610001E0
4.080519650E0;5.796654224E-1;-8.705084324E-1;-2.824616432E0
4.098543698E0;1.697940826E-1;1.915555820E-2;1.894935608E0
4.116594113E0;-3.729152679E-2;-4.929970205E-1;-8.359556198E-1
4.134631223E0;-9.081857204E-1;-1.164939642E0;5.115335464E0
4.152669125E0;-4.422938824E-2;1.779468536E0;-2.031134129E0
4.170705564E0;3.465114832E-1;-7.023339272E-1;-1.107591629E0
4.188743039E0;9.166581631E-1;2.047619581E0;-1.362304688E-1
4.206778073E0;-2.730321288E-1;-8.923215866E-1;1.083935738E0
4.224822446E0;7.321705818E-1;3.430160284E0;-3.848148346E0
4.242855771E0;-1.257389784E-1;-2.773057938E0;-8.557872772E-1
4.260893918E0;6.424713135E-2;8.783338070E-1;2.113922119E0
4.278930966E0;-1.384689212E-1;-1.125332594E0;-2.728926659E0
4.296969418E0;-4.317290783E-1;1.045050263E0;2.999821663E0
4.315005673E0;-1.468390942E0;-1.864296079E0;-1.364007950E0
4.333031247E0;-1.014723539E0;1.516392350E0;1.333352089E0
4.351081662E0;-1.265171051E0;-2.468944490E-1;-2.951488495E-1
4.369117489E0;-1.784536839E-1;1.573822737E0;2.816162109E-1
4.387158139E0;-1.810758114E-1;1.859846711E0;-2.515186310E0
4.405194272E0;4.243215919E-1;-1.431841254E0;8.637428284E-1
4.423213925E0;-2.392494678E-2;2.330994844E0;9.326801300E-1
4.441269467E0;-3.322889805E-1;-2.700639009E0;-1.423171043E0
4.459305905E0;-9.516288042E-1;1.853244662E0;2.218569756E0
4.477344357E0;-1.012996793E0;-1.056183338E0;-3.350746155E0
4.495381162E0;-8.199399114E-1;6.349833608E-1;1.897587776E0
4.513419613E0;-9.047112465E-1;-1.544115245E-1;-1.901720047E0
4.531456113E0;-7.492775917E-1;9.805767536E-1;1.740697861E0
4.549494076E0;-3.001989424E-1;5.273812413E-1;-8.943815231E-1
4.567519772E0;-3.891760409E-1;1.107759356E0;1.202669144E0
4.585570981E0;-2.730746865E-1;6.792605519E-1;-1.141988754E0
4.603604977E0;-4.673162401E-1;1.959002763E-1;4.091196060E-1
4.621644467E0;-7.948433161E-1;3.360514879E0;-3.306432724E0
4.639681455E0;-6.542276740E-1;-4.645407200E0;-1.251526833E0
4.657708432E0;-1.038699031E0;4.100533962E0;3.188474655E0
4.675756406E0;-7.216891646E-1;-2.988909483E0;-7.165230274E0
4.693792904E0;-7.324697375E-1;1.410939336E0;4.506587029E0
4.711833249E0;-2.520924807E-2;-1.606161833E0;-1.405648232E0
4.729870053E0;-5.973920822E-1;5.119649172E-1;6.936855316E-1
4.747906552E0;-1.564346552E-1;-1.744235635E0;-1.111745834E-1
4.765944760E0;-4.034882784E-1;6.265245676E-1;1.658582687E0
4.783981992E0;7.353651524E-2;-1.325420737E-1;-2.004193783E0
4.802010922E0;-1.072291732E-1;-8.905200958E-1;1.843084335E0
4.820055417E0;3.085483909E-1;-2.551628947E-1;-3.124322891E-1
4.838096616E0;-1.998026967E-1;-1.432913303E0;3.397815704E0
4.856132138E0;6.007361412E-1;2.226585895E-1;-3.808879852E-1
4.874170834E0;-2.371943593E-1;1.405325830E-1;-5.078315735E-3
4.892207089E0;6.854053140E-1;-2.624010086E0;1.749010086E-1
4.910245297E0;9.618475437E-1;-1.544004631E1;1.801313972E1
4.928276914E0;-4.711278439E0;-4.640381336E0;1.149732780E1
4.946307126E0;-2.730525732E-1;2.019949150E1;-3.081491470E1
4.964359067E0;4.067553282E-1;-1.127615166E1;-1.147322273E1
4.982396665E0;1.238547444E0;1.426693797E0;1.160396099E1
5.000432675E0;2.779484987E0;-5.437435150E0;-1.669731331E1
5.018471127E0;-2.483930439E-1;5.053413391E0;1.251513100E1
5.036495664E0;-2.616611719E0;-6.346931934E0;5.843715668E0
5.054544857E0;-4.209461808E-2;4.235666752E0;-7.539548874E0
5.072584287E0;1.168770432E0;-4.775774479E0;1.150400162E0
5.090621579E0;-1.314318538E0;3.235570431E0;2.680448532E0
5.108657895E0;2.502279520E0;-2.716976643E0;-3.382000446E0
5.126696225E0;-6.023104191E-1;-3.075265586E-1;5.602824211E0
5.144733456E0;6.443545222E-1;-1.914990902E0;4.414608002E0
5.162771969E0;-5.134211183E-1;6.464898586E-1;-1.318440437E0
5.180808408E0;3.886218667E-1;-2.205586910E0;1.069687843E1
5.198846798E0;-9.015756845E-1;-4.187232018E0;-7.712411880E-1
5.216883664E0;3.333700180E0;-7.036276817E0;-7.055051804E0
5.234922299E0;-7.989576459E-2;3.191152573E0;8.098139763E0
5.252951840E0;4.318040311E-1;8.058004379E-1;1.054260826E1
5.270993222E0;-4.649285078E-1;3.936397552E0;-2.682896137E0
5.289034238E0;-6.291689873E-1;-9.475200176E-1;3.380578041E0
5.307072384E0;-5.742904544E-1;6.429929137E-1;-1.869647026E0
5.325109189E0;1.644579470E-1;3.776566684E-1;1.786832809E-1
5.343147885E0;4.971786737E-1;-4.754331589E0;-8.436498642E-1
5.361184689E0;-4.854213297E-1;1.984412074E0;-2.435742855E0
5.379211361E0;7.527426481E-1;1.251830220E0;-5.182921410E0
5.397259580E0;4.239968657E-1;-7.499297142E0;6.484920502E0
5.415287045E0;-1.467655301E-1;2.097480297E0;2.663027763E0
5.433333493E0;3.471925557E-1;-2.723202944E0;-2.626009464E0
5.451374753E0;4.340680242E-1;-2.714390159E-1;2.008853912E0
5.469409726E0;4.703894258E-2;-9.791669846E-1;1.204062462E0
5.487445004E0;-1.123082876E0;-2.294958115E0;9.906311035E-1
5.505472714E0;-9.042869806E-1;1.311239719E0;1.291608810E-1
5.523522824E0;3.408218324E-1;3.737506270E-1;1.599826813E-1
5.541561703E0;6.241285801E-2;-1.470188141E0;3.104858398E0
5.559598996E0;5.768472552E-1;7.448053837E0;-7.039488316E0
5.577636105E0;9.248452187E-1;-4.237951279E0;-3.636285305E0
5.595674496E0;7.883837819E-2;2.112346411E0;2.179707527E0
5.613708432E0;5.939453840E-3;-2.841639280E0;-4.554808140E0
5.631752011E0;-6.811081171E-1;-3.171253204E-2;2.619955063E0
5.649786923E0;-6.409686804E-2;-1.467015386E0;-2.556186199E0
5.667825070E0;-3.373662829E-1;1.540843725E0;2.394415855E0
5.685861752E0;-7.379407287E-1;-1.225024343E0;-1.306563377E0
5.703899777E0;-8.387101889E-1;5.090975761E-1;-1.269750595E-1
5.721937131E0;3.438111842E-1;-1.681265473E0;-8.837311745E0
5.739974850E0;-6.634188890E-1;-7.698521137E0;1.237061024E1
5.758009030E0;1.231657982E0;3.011084795E-1;3.430601120E0
5.776053647E0;-1.262013912E-1;-7.100459337E-1;-7.024116516E-1
5.794087460E0;1.545490921E-1;8.933414221E-1;3.232979774E0
5.812126217E0;-8.350290060E-1;-2.113564491E0;-4.281893253E0
5.830162656E0;-5.513619184E-1;-1.173442841E0;3.233131409E0
5.848201352E0;-3.442251682E-1;-5.562606454E-2;-9.703950882E-1
5.866238278E0;1.805910170E-1;1.525368452E0;5.507116318E-1
5.884273740E0;7.180547714E-2;4.079067409E-1;2.240219116E-1
5.902312985E0;-2.555435896E-1;2.395740747E0;-2.853958607E0
5.920354672E0;-2.473874688E-1;-2.803512335E0;-3.746910095E-1
5.938388791E0;-2.968900800E-1;9.086675644E-1;1.650074005E0
5.956427426E0;-8.054968715E-1;-2.095981359E0;-6.473293304E-1
5.974447812E0;-1.178026915E0;-1.579710722E0;1.568554878E0
5.992499326E0;-7.463968396E-1;2.604474783E0;-5.418424606E-1
6.010541990E0;-1.054966450E0;1.729917288E0;-3.228092194E-1
6.028577816E0;-4.538725913E-1;-1.522615910E0;8.648595810E-1
6.046614377E0;-4.044203162E-1;2.255446196E0;-2.752493858E0
6.064649778E0;2.941538692E-1;-3.439787626E0;-3.140385151E0
6.082692989E0;-1.221134901E0;-5.865322351E-1;8.743876457E0
6.100728451E0;4.807247519E-1;-1.105123043E0;-3.696950436E0
6.118752011E0;-1.146967292E0;1.602413177E0;2.235869408E0
6.136803341E0;1.939531565E-1;-2.085871458E0;1.948472023E0
6.154840512E0;-1.215491533E0;5.526148081E-1;6.809301376E-1
6.172879086E0;-1.170082092E-1;4.050996900E-1;-3.957843781E-1
6.190915341E0;-7.197462320E-1;8.489616513E-1;9.590320587E-1
6.208947934E0;6.853806973E-2;1.189461052E-1;-1.263845444E0
6.226990597E0;-6.608573198E-1;-8.080056906E-1;1.922771454E0
6.245030454E0;3.539713025E-1;8.537726402E-1;-4.974966049E-1
6.263065365E0;-1.680497527E-1;-3.081948459E-1;3.079442978E-1
6.281105527E0;6.310920715E-1;-2.196866870E-1;5.566616058E-1
6.299141965E0;-4.631540775E-1;-4.433238208E-1;-2.842969894E-1
6.317180355E0;-5.784051418E-1;-3.264778852E0;6.695404053E-1
6.335216855E0;8.806300163E-2;-1.006052792E-1;-1.175033569E0
6.353255063E0;-2.018337250E-1;1.545194030E0;1.610960960E0
6.371292172E0;-6.071804166E-1;-1.939692259E0;-1.633126259E0
6.389319210E0;-8.867642283E-1;-1.141719580E0;3.041094780E0
6.407367490E0;1.540247202E-1;3.193313122E0;-5.451012135E0
6.425406125E0;-6.797530055E-1;-2.988070250E0;1.460820198E0
6.443430417E0;-4.915042222E-1;-1.380878329E0;1.977108955E0
6.461482785E0;-8.579757214E-1;-1.613408029E-1;-1.299470901E0
6.479517880E0;-5.232083797E-1;-2.685709596E-1;8.918542862E-1
6.497553158E0;-6.158527136E-1;-1.133559346E0;-2.999401093E-2
6.515593564E0;-6.087916493E-1;-1.346507311E0;2.797365189E-1
6.533632321E0;-6.447977424E-1;3.973568678E-1;1.537256241E-1
6.551668515E0;-6.178537011E-1;-1.515075088E0;-1.253795624E-1
6.569707211E0;-7.206676006E-1;-7.984864712E-2;1.024776459E0
6.587743955E0;-9.938893318E-1;-2.623188198E-1;-1.261844635E0
6.605780148E0;-4.683863819E-1;-8.935037851E-1;4.868268967E-1
6.623819211E0;-3.044472933E-1;-2.067439109E-1;3.017616272E-2
6.641860837E0;-7.305781841E-1;1.124586105E0;1.046781540E-1
6.659894894E0;-4.229515195E-1;-2.080040455E0;-2.123146057E-1
6.677933285E0;3.077123761E-1;-9.476940036E-1;9.473390579E-1
6.695970029E0;4.034421444E-1;2.118737698E-1;-1.376834869E0
6.714008481E0;1.809362769E-1;6.658285856E-3;2.235887527E0
6.732045468E0;7.393956184E-3;1.080339789E0;-2.489299297E0
6.750083920E0;3.466433883E-1;-2.100043744E-1;9.594173431E-1
6.768120664E0;-2.646976709E-1;1.108575344E0;-1.662564278E0
6.786159115E0;8.831384182E-1;-1.094305158E0;1.338983536E0
6.804196225E0;-2.317756414E-2;1.140092313E-1;3.421754837E-1
6.822224057E0;5.104959011E-1;-4.895264208E-1;6.520671844E-1
6.840268246E0;8.879441023E-2;3.962957561E-1;-1.070232391E-1
6.858301999E0;-1.342549324E-1;-5.272105932E-1;5.221643448E-1
6.876346860E0;-5.662763119E-1;4.710094333E-1;-7.895793915E-1
6.894385128E0;1.026390195E-1;-1.725715876E0;8.565235138E-1
6.912421994E0;-4.901547432E-1;-3.114843965E-1;2.008058548E0
6.930449826E0;3.033604622E-1;-6.042301655E-3;-1.941983223E0
6.948497372E0;-8.824704885E-1;-2.742271423E-1;1.571282387E0
6.966535947E0;4.815896749E-1;2.350097895E-2;-1.426055908E0
6.984572079E0;-7.067881227E-1;-4.104498327E-1;1.051595688E0
7.002611508E0;-1.527259350E-1;-4.685452580E-2;-1.643428802E-1
7.020648007E0;-7.356588244E-1;-3.516807556E-1;1.310476303E0
7.038686520E0;-6.097519398E-1;4.282688141E0;-5.548281670E0
7.056713193E0;-1.344262958E-1;-3.511097193E0;-2.132229328E0
7.074760617E0;-1.340182304E0;2.412291467E-1;5.449210167E0
7.092799740E0;6.317820549E-1;-1.442777753E0;-5.904736519E0
7.110837033E0;-1.061856627E0;-2.370813042E-1;4.565576553E0
7.128871029E0;3.652983904E-2;-6.972478628E-1;-1.268412590E0
7.146915097E0;-8.211479187E-1;-3.464891613E-1;7.845287323E-1
7.164949399E0;-3.813821077E-1;-9.448257089E-1;1.061107635E0
7.182987363E0;-3.555582464E-1;-9.378005266E-1;2.265691757E-1
7.201024838E0;-9.533059597E-2;-3.220173836E0;6.728971481E0
7.219059873E0;-6.389331818E-1;8.014390945E0;-7.189335823E0
7.237102964E0;-3.789806366E-1;-4.285537243E0;-4.702144146E0
7.255138607E0;-1.177201390E0;-1.242631823E-1;1.303634644E0
7.273173947E0;-3.035247326E-1;-2.569479465E0;-4.254603863E0
7.291202817E0;-4.788182378E-1;-4.781007469E-1;2.885185242E0
7.309250302E0;-3.175035119E-1;-1.078615427E0;-3.937339783E-1
7.327289303E0;-5.840688944E-1;1.400837898E0;-1.602919579E0
7.345325620E0;-5.516163111E-1;-2.224918157E-1;1.454844475E0
7.363364499E0;-7.329209447E-1;-7.764488459E-1;5.691680908E-1
7.381401242E0;-7.987363338E-1;2.316504955E0;-2.303558826E0
7.399439877E0;-8.111468554E-1;-2.109751701E0;5.010232925E-1
7.417472959E0;-7.681396008E-1;6.735653877E-1;3.944540024E-1
7.435515561E0;-5.253293514E-1;-1.298386335E0;-1.135177612E-1
7.453551633E0;-8.000600338E-1;9.703621864E-1;7.288274765E-1
7.471590268E0;-1.119512320E0;-3.025161505E0;2.099380493E-1
7.489626767E0;-1.114440918E0;-3.781950474E0;-2.567358017E-1
7.507665158E0;-7.324392200E-1;1.014460564E0;-6.405038834E-1
7.525702267E0;-7.652224302E-1;2.969312370E-1;9.971256256E-1
7.543738095E0;-1.335569501E0;2.425973892E0;-2.103598118E0
7.561780270E0;-5.110060573E-1;-1.062238932E0;-1.068606377E0
7.579815854E0;-7.178986669E-1;2.011110544E0;1.581112862E0
7.597848386E0;-6.106272340E-1;-1.347234964E0;-2.986036777E0
7.615891110E0;-1.060277343E0;3.119852245E-1;3.000658989E0
7.633928037E0;-4.702271223E-1;-1.011613965E0;-1.727191925E0
7.651966793E0;-9.313576818E-1;-4.678023458E-1;1.961858749E0
7.669986447E0;-1.576462984E-1;-8.932127953E-1;-4.979047775E-1
7.688040280E0;-1.012931585E0;1.991954148E-1;3.069099426E0
7.706080014E0;-6.303965449E-1;8.982677460E-1;-1.645734787E0
7.724117123E0;-5.451452732E-1;-4.163727462E-1;8.827371597E-1
7.742154172E0;-2.565850616E-1;3.424291611E-1;3.422126770E-1
7.760192562E0;-6.900029182E-1;-7.035819888E-1;-6.331539154E-2
7.778208249E0;-3.450822830E-2;3.083750606E-2;1.137403488E0
7.796270505E0;-1.132279515E0;2.278740704E-1;-2.304351807E0
7.814292783E0;-1.147603631E0;-1.148023367E0;1.449606895E0
7.832340695E0;-1.342830658E0;1.746828079E0;-1.607817650E0
7.850382016E0;-7.694274187E-1;-1.174902081E0;8.163642883E-2
7.868418149E0;-1.228087664E0;1.158739805E0;1.102631569E0
7.886455380E0;-5.496637225E-1;-4.563660324E-1;-2.652492523E-1
7.904483274E0;-7.358632088E-1;-1.772587776E0;7.464799881E-1
7.922530148E0;-1.154206991E-1;3.704819977E-1;-2.005882263E-1
7.940571469E0;-1.340785027E-1;-8.939534426E-1;6.343078613E-1
7.958605588E0;-3.999228477E-1;-3.084692657E-1;4.223823547E-1
7.976644223E0;-1.454935670E-1;-1.972020149E0;2.859144211E-1
7.994680722E0;-3.358666897E-1;4.716754436E0;-8.065936089E0
8.012719113E0;1.161880493E0;-1.214995575E1;1.024818707E1
8.030756284E0;-1.143970966E0;8.659916878E0;-3.300618649E0
8.048790403E0;2.210123539E-1;-4.751453400E0;-1.107824802E1
8.066834469E0;-1.239611387E0;2.605982304E0;2.540130615E0
8.084869687E0;-1.579809189E-1;-1.148053646E0;-6.847504139E0
8.102906796E0;-7.663167715E-1;6.139585972E-1;1.773179054E0
8.120935299E0;-9.141597748E-1;1.107125640E0;-2.227058411E-1
8.138970029E0;-3.831961155E-1;-1.472353637E-1;-1.033025742E0
8.157020382E0;-1.226254702E0;-2.802067101E-1;1.599133492E0
8.175057492E0;-6.814725399E-1;-1.477088213E0;-1.237432480E0
8.193094541E0;-1.292297244E-1;-6.982644796E-1;1.701954842E0
8.211132382E0;-4.626506567E-2;-1.754313231E0;-1.192329407E0
8.229173581E0;-2.992658019E-1;-3.640994728E-1;6.937675476E-1
8.247208188E0;-2.950090766E-1;-3.829183817E0;8.551597595E-1
8.265246396E0;-5.514585972E-2;5.217164040E0;7.839765549E-1
8.283281430E0;-8.031852245E-1;9.794741869E-1;2.312469482E-1
8.301319211E0;-5.711147189E-1;-1.155721664E0;6.256828308E-1
8.319360470E0;-6.195482612E-1;6.997696877E0;-1.168770313E1
8.337396908E0;6.147418022E-1;-1.143505001E1;1.172791386E1
8.355433652E0;-1.093210220E0;5.685568333E0;-2.473137856E0
8.373473813E0;8.980163336E-1;-2.108563423E0;-1.042234707E1
8.391508603E0;-8.130116463E-1;1.554096222E0;3.434316635E0
8.409547848E0;5.890638232E-1;-9.845398068E-1;-5.639490604E0
8.427582273E0;3.825657368E-1;8.302412629E-1;1.332374573E0
8.445622189E0;-5.176404119E-1;-9.281940460E-1;9.250202179E-1
8.463659360E0;4.397848845E-1;5.063552856E0;-7.294592857E0
8.481697934E0;5.874371529E-2;-5.980511665E0;-4.819936752E-1
8.499734433E0;-1.312545538E0;2.377631664E0;4.217368126E0
8.517768246E0;1.537408352E0;-2.729447842E0;-6.925642967E0
8.535805599E0;-1.011257410E0;6.163996458E-1;4.248508453E0
8.553851864E0;1.533770323E0;-2.111491919E0;-3.958034515E-1
8.571885617E0;3.920125365E-1;-2.336901188E0;5.953388214E-1
8.589923275E0;3.874355555E-1;2.223743200E0;5.226049423E-1
8.607960568E0;1.115042686E0;2.643316746E0;-7.897729874E-1
8.625999142E0;1.039898396E0;-4.372116089E0;3.940024376E0
8.644035459E0;7.444950342E-1;2.548231125E0;-1.504517555E0
8.662061947E0;1.745747089E0;-1.351748705E0;-2.034790993E0
8.680110288E0;7.352247238E-1;-7.950668931E-1;7.881689072E-1
8.698150022E0;1.395076632E0;-1.301364303E0;-7.445869446E-1
8.716185849E0;1.272662401E0;-4.354420185E0;2.261760712E0
8.734224240E0;1.113478184E0;1.144226551E0;-5.390386581E-1
8.752251401E0;9.103633761E-1;1.289052010E0;-7.292804718E-1
8.770296689E0;8.522554636E-1;-3.780468702E-1;-4.775085449E-1
8.788327694E0;1.225610018E0;-1.116164398E1;6.145270348E0
8.806374997E0;-2.205892801E0;5.986584663E0;7.644428253E0
8.824411923E0;4.043683708E-1;-1.795753717E0;-4.964871883E0
8.842450436E0;-2.830758095E0;-6.784209728E0;-5.178038120E0
8.860486814E0;-8.634039164E-1;7.760447979E0;-5.606180668E0
8.878525265E0;2.503452539E0;-1.295296097E1;-2.007641602E1
8.896562131E0;-3.136225224E0;8.614076614E0;7.141966820E0
8.914597776E0;6.502192974E0;-2.314797592E1;9.026844025E0
8.932640316E0;9.875017405E-2;2.426569176E1;-7.345835686E0
8.950675412E0;2.407910824E0;3.062250614E0;4.294879913E0
8.968709836E0;-4.561348438E0;-1.606297493E0;-1.635124969E1
8.986742550E0;9.129145741E-1;-1.470816135E0;5.019591331E0
9.004788144E0;-1.617382765E-1;-8.461174011E0;-8.122171402E0
9.022826352E0;1.498140216E0;9.274113655E0;-3.751020908E0
9.040863400E0;1.215726852E0;-1.602323151E1;7.780434608E0
9.058901730E0;-2.512527466E0;2.087308502E1;-1.333936310E1
9.076938352E0;5.886280537E0;-3.578300476E1;1.907937431E1
9.094976742E0;-6.112325788E-1;1.137946129E1;1.952944756E0
9.113013119E0;1.320442706E-1;2.092435598E0;-1.680973434E1
9.131052792E0;-1.031769991E0;6.219788551E0;9.568107605E0
9.149086178E0;1.227761149E0;6.784442902E0;2.346019745E0
9.167129636E0;3.526108861E-1;-5.240651608E0;-1.493845558E1
9.185164365E0;-2.342770696E-1;6.188206673E-1;1.388887978E1
9.203203121E0;1.066701770E0;-9.771171570E0;-2.058267593E-1
9.221239316E0;-3.026350021E0;9.871524811E0;-9.521934509E0
9.239277707E0;3.665454149E0;-3.881951904E1;4.149103546E1
9.257314816E0;1.551098704E0;3.767535019E1;-1.643030548E1
9.275353146E0;2.528631449E0;-1.739459991E1;-2.475037384E1
9.293378232E0;-1.772354126E0;4.287684858E-1;2.987917328E1
9.311428219E0;4.937887192E0;2.173391581E0;9.876617432E0
9.329465146E0;-2.430474281E0;-3.617784083E-1;-1.539113426E1
9.347500119E0;7.473336458E-1;-1.373195362E1;3.606013870E1
9.365523801E0;1.803797841E0;1.939089203E1;-1.082591724E1
9.383576962E0;2.406193256E0;-3.359679699E0;-1.410867786E1
9.401617368E0;-1.570412874E0;-1.741529655E1;2.197865105E1
9.419654232E0;3.818578482E0;8.908050537E0;-2.195705891E0
9.437690488E0;1.236417055E0;2.425809503E-1;-2.345068741E1
9.455729184E0;-2.647618294E0;-1.809304619E1;2.305730820E1
9.473762143E0;8.705134392E-1;1.137863445E1;-1.219329834E0
9.491808408E0;1.170810342E0;1.140540695E1;-2.826248932E1
9.509829221E0;4.976400733E-1;-2.041722107E1;3.040903854E1
9.527878537E0;2.295023918E0;3.122015476E0;1.608798027E0
9.545916989E0;1.460291743E0;-4.185316086E0;-2.055408859E1
9.563954891E0;-1.883482218E0;2.081055164E0;2.424707031E1
9.581991452E0;1.618472338E0;2.220842552E1;-3.357411861E0
9.600019284E0;1.734481215E0;-1.760298610E0;-1.253743839E1
9.618065427E0;-2.781654894E-2;-5.459033966E0;-3.679464340E0
9.636106686E0;-1.773455739E0;-8.681893349E0;1.579224014E1
9.654141843E0;-1.823430538E0;9.228657722E0;-1.205576515E1
9.672180172E0;-2.083159238E-1;-5.113589764E0;-1.119663429E1
9.690217343E0;-1.450918674E0;-9.261349678E0;1.729240036E1
9.708244320E0;1.617513657E0;8.810256004E0;-8.194291115E0
9.726292295E0;7.311848402E-1;-1.202331638E1;-1.414023876E1
9.744330929E0;-2.410606623E0;3.463105917E0;2.216073990E0
9.762367734E0;1.259438515E0;-4.993565559E0;-6.524674416E0
9.780406246E0;-2.427678585E0;1.154650402E1;-1.997287941E1
9.798442685E0;8.018598557E-1;1.835799694E0;-6.852863312E0
9.816481076E0;-4.811907411E-1;-6.011469841E0;1.050005913E1
9.834515256E0;9.316293597E-1;-1.405169106E1;6.012671471E0
9.852553891E0;-1.336253285E-1;1.479431629E1;-9.704008102E-1
9.870595761E0;4.589565277E0;-1.061126423E1;6.448282242E0
9.888629635E0;-2.826471329E0;3.139543533E0;-1.272848797E1
9.906670346E0;7.904853821E-1;-1.425038815E1;2.036749077E1
9.924707028E0;1.096652597E-1;1.047640228E1;-8.059985161E0
9.942743711E0;-2.850663066E-1;-1.392313766E1;-6.989478111E0
9.960781918E0;-2.497520685E0;9.705293655E0;-1.336794662E1
9.978806943E0;4.233031869E-1;-3.095189333E0;-8.314082146E0
9.996857357E0;2.584257364E0;6.836740971E0;1.707958221E1
1.001489386E1;2.550309181E0;1.062037945E1;-6.208724976E0
1.003293188E1;-1.465546250E0;-1.202550316E1;-3.590492725E0
1.005096972E1;-6.146847010E-1;1.080652523E1;-9.440079689E0
1.006900512E1;3.562424660E0;-9.700996399E0;-3.706605911E0
1.008704419E1;-1.229025722E0;6.549227715E0;-1.409339905E0
1.010508264E1;-4.936415553E-1;-1.907715034E1;2.045476723E1
1.012311975E1;1.511896610E0;-1.001073360E0;-7.449218750E0
1.014115820E1;-8.076841235E-1;1.432172871E1;-1.412468910E1
1.015919482E1;1.910658598E0;-3.510705471E0;9.830682755E0
1.017723309E1;-7.128691077E-1;8.963262558E0;6.988157272E0
1.019527032E1;1.188668251E0;-1.441171408E0;-3.874363899E0
1.021330194E1;-3.390926719E-1;-9.501185417E0;1.674384308E1
1.023134302E1;2.700619459E0;2.338940239E1;-4.649704933E0
1.024938519E1;2.097023010E0;7.937853336E0;-1.871458817E1
1.026742102E1;-8.046066761E-1;-1.575228691E1;3.348944092E1
1.028545892E1;-1.095038891E0;1.386118889E1;-6.369574547E0
1.030348376E1;-6.466948390E-1;-1.882788849E1;-5.951417446E0
1.032153381E1;-1.656272173E0;1.890018654E1;-1.068633270E1
1.033957184E1;1.667058587E0;-1.989006424E1;-1.376978397E1
1.035760467E1;-1.744380236E0;1.679927444E1;-4.239703655E0
1.037564581E1;-2.368917465E-1;-1.061363792E1;-6.906755447E0
1.039368426E1;-3.922742605E0;-4.641804695E0;1.439483833E1
1.041172125E1;1.830583811E-2;-8.257323265E0;5.864231110E0
1.042975946E1;1.610849380E0;1.508820152E1;2.936398506E0
1.044779620E1;-9.254950285E-2;-1.850796509E1;4.180145264E-2
1.046583453E1;-3.219739437E0;3.006152344E1;-6.938689232E0
1.048387176E1;2.609815598E0;-2.314818764E1;1.368330574E1
1.050191009E1;-2.609032631E0;9.749398232E0;4.748982430E0
1.051994659E1;-2.554237843E-2;7.337193012E0;-2.229163170E0
1.053798504E1;-4.076741695E0;-1.085036755E0;-2.452671051E1
1.055602203E1;-3.531581402E0;-4.468739986E0;1.503785706E1
1.057406048E1;-1.229572296E0;-4.428618431E0;1.727124214E0
1.059209674E1;-1.053226113E0;2.473535538E0;-1.540138531E1
1.061013666E1;-4.110261798E-1;-2.005525351E0;1.061874962E1
1.062817114E1;-4.920897484E-1;3.817674398E0;-5.381679535E-1
1.064621093E1;-4.638834000E-1;-3.685751438E0;-4.011349678E0
1.066424731E1;-3.664527535E-1;2.270913124E0;1.640382767E0
1.068228290E1;1.531679392E0;-3.510879755E0;-5.852699280E-3
1.070032110E1;4.988684654E-1;-1.747985601E0;4.534671783E0
1.071836029E1;-1.245523095E0;3.880529642E0;-9.098329544E-1
1.073639782E1;-3.990051746E-1;-8.256395340E0;4.918717384E0
1.075443622E1;1.988229871E0;1.665163040E1;-2.870803356E0
1.077247320E1;-3.638862967E-1;-8.593658447E0;-1.543459892E1
1.079051141E1;6.579228640E-1;-2.894211113E-1;1.461199284E1
1.080854785E1;6.952123642E-1;-2.009436369E0;-5.075044632E-1
1.082658630E1;-1.278430223E-1;-8.466057777E-1;-1.694682312E1
1.084462365E1;1.847693920E0;1.081516457E1;1.319847393E1
1.086266186E1;-2.278196812E0;-2.346251249E0;-9.203465462E0
1.088069830E1;-2.822719097E0;-1.076321602E1;9.794350624E0
1.089873669E1;-1.583830476E0;-1.247836947E0;1.702352142E1
1.091676764E1;-1.983227730E-1;3.867050111E-1;-1.557685471E1
1.093480926E1;-1.372910023E0;-1.004891872E0;2.280954361E0
1.095285186E1;-3.973380089E0;-1.086345100E1;2.364655495E0
1.097088720E1;2.013226032E0;2.176682472E1;-2.586229324E0
1.098892407E1;2.000747919E-1;-1.916192627E1;-2.526273727E-1
1.100696258E1;2.033005714E0;1.894995117E1;-4.043728352E0
1.102499908E1;1.691313863E0;-1.256972075E0;1.606073380E0
1.104303692E1;-5.418097377E-1;7.443470001E0;-6.885236740E0
1.106106268E1;-2.546657324E0;-1.141512871E1;-1.743759155E0
1.107911291E1;1.032066107E0;1.337172031E1;2.857155800E0
1.109714953E1;1.320243716E0;-1.174319363E1;5.427043915E0
1.111518817E1;-2.296796799E0;6.116161823E0;4.616174698E-1
1.113321124E1;-1.236358881E0;-3.594610453E0;-1.085960579E1
1.115125360E1;-1.545549273E0;-2.215487003E0;1.454981041E1
1.116929980E1;5.071245432E-1;4.103789330E0;6.200544357E0
1.118733856E1;-2.433140755E0;-2.976105690E0;-1.386435890E1
1.120537512E1;-1.892099857E0;1.937487721E0;2.586860657E0
1.122341375E1;2.520110607E-1;-8.600331306E0;-4.154100418E-1
1.124145031E1;-1.360008121E0;2.822989464E1;-7.995112419E0
1.125948864E1;-1.154707909E0;-2.832755661E1;1.052094460E1
1.127752228E1;1.228617072E0;2.476343727E1;-1.134975719E1
1.129554950E1;-7.592819929E-1;-3.920706940E1;-2.534189224E0
1.131360077E1;-9.748744965E-2;1.814404869E1;7.084018707E0
1.133164142E1;-2.127254963E0;1.042098618E1;-4.052100754E1
1.134967584E1;-8.841884136E-2;-1.088819408E1;9.591889381E0
1.136771478E1;-2.823154449E0;-4.515628815E0;8.066182137E0
1.138574145E1;6.208691597E-1;3.263945389E1;-2.344097710E1
1.140378723E1;3.436000586E0;-2.587919235E1;9.010853767E0
1.142182873E1;-6.292065620E0;2.732588387E1;3.816058159E0
1.143986517E1;2.073801041E0;-1.908580017E1;-1.926723862E1
1.145790149E1;-2.685003757E0;1.282362270E1;1.970469856E1
1.147593957E1;3.997620106E0;-1.753651857E0;7.008446693E0
1.149397686E1;-2.913247585E0;-6.726286411E0;-6.580128670E0
1.151201507E1;-2.367754459E0;-7.869046211E0;9.373250961E0
1.153005157E1;-9.511853456E-1;1.146062088E1;-1.457044983E1
1.154808996E1;4.869923592E0;-2.459670639E1;2.655948639E1
1.156612732E1;2.818694353E0;3.217816925E1;-7.617191315E0
1.158416571E1;-7.220793962E-1;-2.779026031E1;-6.649961472E0
1.160220233E1;-3.571523428E-1;1.081382275E1;-9.571130753E0
1.162022863E1;-7.168409824E-1;-1.590930462E1;-1.102423573E1
1.163825580E1;-1.387340307E0;1.335527515E1;2.473323822E0
1.165632013E1;-3.342478275E-1;-1.404322147E1;-4.186800003E0
1.167435229E1;-2.276815891E0;2.420511436E1;-1.636602592E1
1.169239080E1;-2.048925400E0;-2.098195839E1;8.522193909E0
1.171042785E1;-1.167422652E0;1.599424648E1;-1.580864239E1
1.172846478E1;-1.149047136E0;-1.634208107E1;-8.260457993E0
1.174650415E1;-4.489432335E0;8.287824631E0;1.462817478E1
1.176453973E1;4.157844543E0;1.572458029E0;8.488700867E0
1.178257489E1;-4.842799902E-1;-3.286739111E0;-2.420308304E1
1.180061993E1;-5.146923542E0;1.554217339E1;-4.327831745E0
1.181865320E1;5.734993458E0;-1.875637054E1;8.440897942E0
1.183669152E1;3.605604172E0;2.875825500E1;-1.302653503E1
1.185471930E1;-2.601002455E-1;-2.394275475E1;5.358352661E-1
1.187276385E1;-6.551952839E0;2.938599014E1;-2.065439224E1
1.189080645E1;4.608353138E0;-2.070153046E1;2.372581482E0
1.190884198E1;-2.442502022E0;2.718553925E1;-1.649637985E1
1.192687896E1;2.851180553E0;-2.452011681E1;2.226561928E1
1.194491742E1;9.422999620E-1;6.761226654E0;6.189632416E0
1.196295306E1;-1.376199722E0;8.379321098E0;-1.688385201E1
1.198099316E1;2.342936516E0;-5.261324406E0;2.939798355E1
1.199902868E1;3.926022053E-1;-1.888546753E1;1.024175167E1
1.201706775E1;-1.648890853E0;2.015536118E1;-5.222141266E0
1.203510437E1;-1.150604844E0;-2.347233200E1;7.846822739E0
1.205313562E1;-2.095649719E0;4.116459274E1;-3.696173668E0
1.207117950E1;3.557741880E0;-2.567789841E1;8.374233246E0
1.208920770E1;-4.748443604E0;2.707742119E1;-1.959300232E1
1.210725592E1;2.909298897E0;-3.965272522E1;1.882084465E1
1.212529193E1;-2.026088238E0;3.562866211E1;-2.775251007E1
1.214332898E1;1.819792747E0;-3.342942810E1;7.790692329E0
1.216136981E1;-1.979781628E0;8.408644676E0;5.988240242E0
1.217940484E1;-4.348619461E0;-8.565366745E0;-3.228312302E1
1.219744250E1;2.168609142E0;1.669414711E1;3.427687645E0
1.221548034E1;-9.372193813E-1;-1.424571419E1;5.153611183E0
1.223351873E1;4.666131496E0;1.310692501E1;1.926562691E1
1.225155542E1;-3.967762470E0;-3.667971849E0;-1.144949532E1
1.226959344E1;-1.611571431E0;-7.465040684E-1;1.005766869E1
1.228763189E1;-1.954736114E-1;3.757017612E0;1.181997299E0
1.230566931E1;-7.505446672E-1;1.120439243E1;-5.196543694E0
1.232369757E1;-1.690919518E0;-1.704855728E1;-1.276025105E1
1.234174536E1;-3.548436642E0;9.048788071E0;9.687850952E0
1.235978106E1;2.986957073E0;-1.032052326E1;1.471715927E1
1.237781952E1;6.548267603E-1;1.298503780E1;-1.818642426E1
1.239585595E1;-1.694288254E0;-1.766420174E1;2.551596069E1
1.241389447E1;3.230446339E0;2.198777008E1;-9.132904053E0
1.243193127E1;1.518264771E0;-1.275720501E1;-6.604242325E-1
1.244997015E1;1.701117516E0;9.181743622E0;2.408449173E0
1.246800122E1;-1.582118034E0;1.189048290E0;-1.395574570E1
1.248604534E1;-3.681642056E0;-3.763288975E0;-8.801321983E0
1.250408111E1;-2.643403530E0;3.498831511E0;-4.092152596E0
1.252212030E1;-2.034518242E0;-9.392725945E0;2.468766212E0
1.254015655E1;-6.657378674E-1;7.436134338E0;-1.145332241E1
1.255818328E1;-3.039696217E0;2.615351486E1;-1.360120773E0
1.257623199E1;2.526950598E0;-1.544921398E1;1.205259991E1
1.259427044E1;3.480475426E0;-8.288088799E0;8.279786110E0
1.261230694E1;-3.596518517E0;-8.150237083E0;8.542634010E0
1.263034509E1;-3.288909912E0;-2.170635414E1;1.347570419E-1
1.264838244E1;1.674814939E0;1.564967728E1;-1.933707237E0
1.266642083E1;-2.415075779E0;-3.103779030E1;-6.752689838E0
1.268445733E1;-8.561620712E0;3.230991364E1;-3.633440495E0
1.270249743E1;3.417874813E0;-2.439933205E1;-5.045017719E0
1.272053247E1;-4.543954372E0;1.177706623E1;1.304575920E0
1.273857104E1;1.056395292E0;8.037397385E0;-8.414450645E0
1.275660748E1;-5.556807518E-1;5.451507092E0;2.833166122E0
1.277464593E1;-1.459454060E0;-1.256335378E0;-8.649286270E0
1.279267096E1;-4.737612724E0;1.984220505E1;-8.662764549E0
1.281072137E1;-1.448189497E0;-1.557098579E1;2.132221985E1
1.282875757E1;6.050878167E-1;2.231281281E0;-2.473470211E0
1.284679632E1;-3.687697649E-2;-4.843577862E0;-1.348817825E1
1.286483307E1;-3.660854578E0;-4.183973312E0;-3.305845261E-1
1.288287158E1;-3.951298952E0;9.191958904E-1;6.724455833E0
1.290090796E1;2.490795255E-1;-1.981279182E1;-1.015286255E1
1.291894623E1;-5.802280903E0;1.098612213E1;-1.466567802E1
1.293697247E1;9.164577723E-2;1.575815487E1;5.515145302E0
1.295501916E1;1.243310094E0;-1.181670475E1;-9.514272690E0
1.297304248E1;-3.216256857E0;8.263016701E0;-2.438932419E0
1.299109747E1;-1.904191971E0;-2.032489014E1;8.204077721E0
1.300913379E1;-1.974199057E0;2.677710724E1;-7.491539955E0
1.302717230E1;3.128859043E0;-7.673410416E0;4.068176270E0
1.304520855E1;-1.807541609E0;4.380736053E-1;9.956690788E0
1.306324701E1;2.930836201E0;8.341740608E0;-6.142145157E0
1.308128424E1;2.876142740E0;-4.787046432E0;1.128928852E1
1.309931952E1;-1.994055510E0;-1.819817424E0;-1.499509621E1
1.311736139E1;-5.303154945E0;1.335944271E1;-5.851167202E0
1.313539709E1;2.533524275E0;-3.829831839E0;8.957929611E-1
1.315343414E1;-2.159825325E0;6.085179806E0;1.727719307E0
1.317147259E1;3.171270847E0;5.924282074E0;1.538778687E1
1.318950732E1;7.685763240E-1;-2.605273247E1;-2.091537857E1
1.320754583E1;-1.058091640E1;1.608766747E1;8.143051147E0
1.322558423E1;3.107362270E0;-3.396340847E0;-3.508688927E0
1.324362280E1;-1.203140497E0;8.881000519E0;-1.318506336E1
1.326165954E1;-1.109505415E0;-1.749289703E1;3.956434631E1
1.327969763E1;5.536688566E-1;5.946357250E0;-3.429744720E1
1.329773004E1;2.695305824E0;-1.809252548E1;3.800884247E1
1.331577307E1;1.572203755E0;1.981042325E-1;1.370244026E1
1.333380670E1;-3.310328007E0;1.607498169E1;-3.559788513E1
1.335185101E1;-2.250624895E0;-1.674459457E1;4.568641663E0
1.336988489E1;-7.623788357E0;9.305684090E0;4.908512115E0
1.338792315E1;2.701079845E0;-6.020946503E0;-5.339968204E0
1.340595959E1;-4.597609997E0;1.617109656E0;3.257053375E1
1.342399530E1;9.173281670E0;-1.464465618E1;2.250643539E1
1.344203814E1;-2.156975031E0;1.273628807E1;-3.449334717E1
1.346007361E1;-6.332515240E0;-6.700696468E0;3.570528793E1
1.347810992E1;6.643575191E0;1.336251545E1;-1.302890015E1
1.349614837E1;1.344038248E-1;-1.426358891E1;-9.259115219E0
1.351418536E1;-4.247523308E0;-5.765564919E0;1.567453480E1
1.353222375E1;1.288183093E0;1.370834160E1;-2.189473534E1
1.355025989E1;1.045106530E0;-2.180402756E1;-5.897031307E0
1.356829596E1;-6.832863808E0;1.417993736E1;2.371261215E1
1.358633844E1;7.147102356E0;-5.183647633E0;-2.198307610E1
1.360437402E1;1.340416670E-1;-3.931667209E-1;2.244607544E1
1.362241046E1;-1.993396044E0;5.199449539E0;1.231842518E1
1.364043548E1;-1.609050989E0;-3.522593737E0;-3.821722031E1
1.365848449E1;-2.387316227E0;-1.145446682E1;3.531609726E1
1.367652526E1;1.690356612E0;1.396187782E1;-5.674999714E0
1.369456048E1;3.464531183E0;1.297817111E0;-9.979400635E-1
1.371259881E1;1.390024424E-1;-1.112925720E1;-1.425831032E1
1.373063586E1;-3.616420269E0;-7.498325825E0;5.361576080E0
1.374867321E1;-5.541872382E-1;6.911609173E-1;4.636491776E0
1.376671075E1;-2.032476902E0;8.400478363E0;-4.888347626E1
1.378474884E1;8.893231392E0;-4.276573181E1;6.281206512E1
1.380278466E1;-4.492764473E0;2.710084534E1;-9.844427109E0
1.382082598E1;2.423576832E0;-1.241194344E1;-2.747506332E1
1.383886090E1;-6.594382763E0;2.356841326E0;2.617763138E1
1.385689953E1;-5.611328483E-1;1.891210794E0;6.161034584E0
1.387492511E1;1.458600879E0;6.678476334E0;-1.419895840E1
1.389297925E1;-2.636047363E0;9.820164680E0;-1.238180351E1
1.391101294E1;-2.127587795E-2;-5.471751213E0;2.088474464E1
1.392904974E1;-1.782424450E0;-1.900707817E1;3.855680466E0
1.394708642E1;3.369780540E0;1.226053619E1;-2.308786392E1
1.396512500E1;-3.774904728E0;-1.314878464E0;1.326704025E-1
1.398316113E1;-3.803060532E0;-8.665412903E0;-2.838956833E1
1.400119958E1;3.216344118E-1;2.003621101E1;-7.497641563E0
1.401923083E1;-9.594454169E-1;7.106542587E0;-4.506346703E0
1.403727472E1;1.899715424E0;-1.765045929E1;4.170976257E1
1.405531140E1;3.528810740E0;2.084014130E1;-8.346986771E0
1.407334948E1;-1.127438545E-1;-6.794358253E0;-1.971250153E1
1.409138684E1;-2.439999580E-1;2.274526119E0;1.992784882E1
1.410941546E1;9.320317507E-1;-5.164816856E0;-1.464604187E1
1.412745532E1;-3.706202984E0;1.290560365E-1;-6.132843971E0
1.414550281E1;-2.505641460E0;-9.852898598E0;1.675455856E1
1.416353698E1;-2.184222460E0;8.506816626E-1;-1.865998459E1
1.418157507E1;-1.391428828E0;1.409233570E0;6.719826698E0
1.419961163E1;2.105159760E0;2.191746140E1;-2.278799438E1
1.421765002E1;5.304555893E0;-4.541038513E1;5.664100647E1
1.423568707E1;-3.520943642E0;3.167991829E1;-1.098095226E1
1.425371826E1;4.276160717E0;-1.107194138E1;-2.437241554E1
1.427176043E1;-6.929879189E0;5.100442410E0;3.403431320E1
1.428979998E1;1.313461065E0;-2.327734947E1;2.061296463E0
1.430783722E1;-9.201735854E-1;1.735315704E1;-7.824707031E-1
1.432587542E1;-2.972743511E0;-1.245851231E1;8.056429863E0
1.434390771E1;1.916195154E-1;1.621455002E1;-4.952185631E0
1.436195013E1;-9.896719456E-2;-2.165545654E1;-1.016972923E1
1.437998718E1;-6.144896746E-1;3.386231613E1;-3.897580624E0
1.439802527E1;4.912775040E0;-4.242647171E1;2.598818207E1
1.441606207E1;-4.815612316E0;3.624763489E1;-2.784336853E1
1.443410016E1;4.288084984E0;-3.356077957E1;1.682319069E1
1.445213727E1;-7.556396484E0;3.539300442E0;-3.513879776E-1
1.447016089E1;-1.378976226E0;-1.967017746E1;-3.436100483E0
1.448821368E1;-6.211197376E-1;2.753018951E1;-8.269838333E0
1.450625018E1;3.678467512E0;-1.231751156E1;-9.092769623E0
1.452428760E1;-1.798874140E-1;7.232998371E0;5.859272957E0
1.454232580E1;-9.511485100E-1;-4.215496826E1;5.303847313E0
1.456036212E1;-1.149592781E1;4.919105530E1;-2.296215820E1
1.457838885E1;8.238625526E0;-2.844758224E1;-2.081295776E1
1.459643457E1;-1.283101940E1;3.541058350E1;2.665681458E1
1.461447845E1;7.584666729E0;-1.732861519E1;2.651234436E1
1.463251196E1;4.428470612E0;-8.326086998E0;-1.503292084E0
1.465055072E1;-5.044588566E0;1.175862980E1;-1.563875198E1
1.466858740E1;-6.467152119E0;-2.195915031E1;-1.068312168E1
1.468662591E1;6.358683109E-2;1.092407513E1;8.910897255E0
1.470466192E1;-3.618058205E0;7.250455379E0;7.376842499E0
1.472268957E1;3.752179623E0;-1.067153549E1;-1.212615871E1
1.474073877E1;-8.161773682E0;1.694825172E1;1.551106453E0
1.475877441E1;5.826059341E0;9.148002625E0;1.357432365E0
1.477681231E1;-3.725283623E0;-9.088250160E0;2.350963211E1
1.479485071E1;4.765157223E0;-3.635119915E0;1.189111137E1
1.481287610E1;-1.934395075E0;8.090108871E0;-1.336405182E1
1.483092566E1;3.557333946E0;7.899255276E0;1.212985229E1
1.484896222E1;-3.379902363E0;-1.237545013E1;1.070556545E1
1.486700055E1;-2.465191364E0;1.301539326E1;-2.140269089E1
1.488503772E1;5.022981644E0;-3.752377319E1;1.439640713E1
1.490307519E1;-6.656418800E0;3.065778542E1;-3.602830410E0
1.492111346E1;6.868150234E-1;-3.208960342E1;-1.804857254E1
1.493915057E1;-3.758136272E0;1.378927898E1;5.360279083E0
1.495719122E1;1.768877268E0;-1.286156273E1;-1.920256042E1
1.497522510E1;-3.406266689E0;9.816729546E0;1.442917347E1
1.499326336E1;-1.082454562E0;-2.130861664E1;6.737619400E0
1.501130072E1;-2.732322454E0;1.437457561E1;-8.310108185E-1
1.502933740E1;4.605154037E0;-1.057472229E1;1.208424759E1
1.504736438E1;-1.279036999E-1;5.158174992E0;-1.648815727E1
1.506541266E1;-5.414561033E-1;9.000846744E-1;-1.303121853E1
1.508344964E1;-1.495235682E0;-1.977543235E-1;1.557666969E1
1.510148877E1;-8.500080705E-1;2.009332180E-2;5.716997147E0
1.511952606E1;-3.510048389E0;4.943677425E0;-8.573065758E0
1.513755932E1;3.374985218E0;-1.527862310E0;2.000791550E1
1.515560101E1;-2.862390518E0;1.053803921E1;-2.245129395E1
1.517363775E1;-3.881064892E0;8.297441483E0;6.881120682E0
1.519167596E1;2.784721851E0;-1.822955132E1;1.978506851E1
1.520971234E1;-3.702567816E-1;8.526030540E0;-1.196530533E1
1.522775085E1;-7.803166509E-1;2.132797623E1;-1.152396393E1
1.524578772E1;-2.525331736E0;-2.102476692E1;2.745854187E1
1.526382342E1;5.318637848E0;2.496762657E1;-2.480120659E0
1.528186529E1;4.478254795E0;4.613729477E0;-1.941407967E1
1.529990100E1;-4.124603271E0;-2.141754913E1;5.485209465E0
1.531793774E1;8.309683800E-1;8.884790421E0;1.029480934E0
1.533597625E1;5.616656542E-1;-4.385756969E0;-1.504308128E1
1.535400952E1;-1.023895621E0;1.529775238E1;7.539747238E0
1.537205365E1;-2.888985276E-1;5.646615028E0;5.058765411E-2
1.539008752E1;-1.928155184E0;1.052341461E0;5.928605080E0
1.540812610E1;-2.573920012E0;-2.592462301E-1;-1.506143379E1
1.542615936E1;4.020328045E0;-2.544760513E1;2.136654282E1
1.544419922E1;-1.205778241E0;1.466462326E1;-5.684175491E-1
1.546223926E1;3.443206549E0;1.226050258E0;-1.408454037E1
1.548027606E1;-2.675223589E0;-3.137002373E1;4.588828278E1
1.549830029E1;-5.066477656E-1;2.081494331E1;-2.468434525E1
1.551635070E1;6.944102764E0;-8.030328751E0;1.699777985E1
1.553438781E1;-2.742630005E0;1.897009659E1;3.929799080E0
1.555242590E1;2.542530775E0;8.761745691E-1;-2.134506989E1
1.557046246E1;3.262436867E0;-1.295582962E1;3.829319382E1
1.558850000E1;-1.000250578E0;-3.081874847E0;1.183042336E1
1.560653827E1;-2.787385464E0;2.933484554E0;-1.483588314E1
1.562457605E1;2.980221033E0;-2.768480110E1;3.859662628E1
1.564261236E1;-1.491780877E0;4.078540039E1;-1.582373810E1
1.566064789E1;-5.818072557E-1;-1.824238968E1;-1.871821594E1
1.567868853E1;4.115073204E0;3.988852978E0;2.789336777E1
1.569672497E1;3.526313066E0;3.718553543E0;-1.692547798E0
1.571476220E1;-1.745795727E0;-7.567635059E0;-4.438478470E0
1.573280066E1;-1.559419632E0;-2.051308060E1;3.249430847E1
1.575083746E1;-3.439851761E0;7.531056404E-1;-2.794211197E1
1.576887317E1;-1.226435423E0;-3.383648396E0;-1.216437721E1
1.578691504E1;1.577949047E0;1.971973991E1;-1.852788162E1
1.580495062E1;3.590237617E0;-7.983751297E0;-9.481857300E0
1.582298608E1;5.662405968E0;9.052303314E0;2.944400787E1
1.584102734E1;-8.990428448E-1;-4.029046059E0;7.115297318E0
1.585906207E1;-1.579930305E0;-8.521635056E0;-2.574544525E1
1.587710064E1;4.169845104E0;2.291224480E1;-1.718862915E1
1.589511969E1;2.210974216E0;-9.063857079E0;4.633148193E0
1.591317279E1;-6.233607292E0;-1.824700928E1;2.020100021E1
1.593121490E1;-3.874115944E0;3.656989288E1;-2.926240158E1
1.594925012E1;9.259670258E0;-4.561838531E1;5.804548645E1
1.596728735E1;-3.388638794E-1;2.460264015E1;4.002625656E1
1.598532562E1;5.790133476E0;1.007036209E1;-3.445997620E1
1.600336212E1;-5.967946529E0;1.272108555E1;-2.485311508E1
1.602140051E1;-2.776958346E-1;-3.792957306E0;-1.190298080E1
1.603942505E1;5.664314270E0;-2.798204613E1;5.847052002E1
1.605747229E1;1.410986137E1;5.940580368E0;1.608283997E1
1.607551178E1;-4.607770920E0;-1.966958618E1;-2.377693367E1
1.609355023E1;-6.848177910E-1;1.186492348E1;-4.091860294E0
1.611158667E1;-3.464989662E0;-4.374216557E0;2.624561310E1
1.612962469E1;-7.097211480E-2;-3.864986897E0;-2.520629120E1
1.614765869E1;-1.362379193E0;-7.270382404E0;1.047643375E1
1.616570330E1;7.781147957E-3;-2.442404556E1;-1.404911232E1
1.618373553E1;5.722849846E0;5.370378113E1;2.762110901E1
1.620177685E1;-7.865758896E0;1.247018623E1;-4.090612411E0
1.621981183E1;3.094359636E-1;-1.559148598E1;-2.589366531E1
1.623784533E1;4.794154644E0;-7.054265022E0;4.699469757E1
1.625588696E1;-1.806340933E0;-3.983307362E0;-2.044503021E1
1.627392474E1;2.971894503E0;-4.917893410E0;2.464137077E0
1.629196142E1;7.994947433E-1;-1.364627838E1;9.199075699E0
1.630999963E1;-2.239106894E0;4.122313499E0;-9.623474121E0
1.632803698E1;-1.336534023E-1;-2.363376379E0;4.967150688E0
1.634607525E1;1.312160492E-1;-9.829580307E0;1.608456802E1
1.636409527E1;-7.768107653E-1;-4.926005840E0;-1.477835274E1
1.638214984E1;2.778676748E0;6.963375092E0;-4.496762753E0
1.640018652E1;-5.177419186E0;-6.178078651E0;8.689232826E0
1.641821209E1;-1.931826591E0;6.346577644E0;-9.793848038E0
1.643626123E1;2.332375526E0;-8.691781998E0;1.432631207E1
1.645429968E1;-4.832197189E0;5.293932915E0;-5.044460773E0
1.647233624E1;1.117245436E0;-5.344461441E0;8.636550903E-1
1.649037494E1;-2.996450901E0;1.527265930E1;-5.443184376E0
1.650841211E1;-3.263715267E0;-6.820633888E0;-4.560673237E0
1.652644934E1;1.061760664E0;-1.260926247E1;1.831070900E0
1.654448584E1;4.066295624E-1;1.255367994E0;-4.211327553E0
1.656252557E1;-2.733983517E0;-3.516342878E0;-6.298246861E0
1.658056109E1;9.764467478E-1;-6.139729023E-1;7.700958252E0
1.659858734E1;-3.670208931E0;-4.116059780E0;-5.053376675E0
1.661663623E1;-2.330683470E-1;3.077437878E-1;8.341270447E0
1.663467444E1;-4.537943363E0;-5.503879547E0;-2.070037842E0
1.665271094E1;-3.377245903E0;-2.263489008E0;-1.736065865E0
1.667074896E1;-4.660081863E-2;-2.178399801E0;7.631433487E0
1.668878296E1;-2.052530766E0;-3.977036238E0;-1.566129303E1
1.670682733E1;-3.370110989E0;3.052220583E0;8.950560570E0
1.672486090E1;-7.825121880E-1;-5.874557018E0;8.762443542E0
1.674289880E1;-3.200888634E-3;5.154151917E0;-1.230014801E1
1.676093573E1;1.356215835E0;-2.485138178E-1;4.940572739E0
1.677897436E1;-3.635479212E-1;-1.213160276E0;2.236388206E0
1.679701050E1;1.113751292E0;2.163824797E0;8.804435730E-1
1.681504895E1;-1.695185542E0;4.454455376E0;-7.165750027E0
1.683308471E1;1.347183347E0;-4.068673134E0;4.214103699E0
1.685112524E1;-1.817911744E0;4.453301430E-1;-2.156117439E0
1.686914837E1;-4.446346760E-1;-3.515775681E0;-2.682746887E0
1.688719867E1;-1.702846408E0;2.197551250E0;3.629660606E0
1.690523376E1;-1.961507916E0;-2.956626415E0;-7.384913445E0
1.692327569E1;-9.496321082E-1;1.589212656E0;4.635228157E0
1.694131012E1;-5.045306683E-2;-3.278935909E0;-1.787562847E0
1.695934820E1;7.063477039E-1;-5.446092129E0;3.675285339E0
1.697737335E1;-1.632739902E0;-6.145715714E-2;-1.388864517E0
1.699542267E1;-1.099323273E0;1.517252922E0;-3.377537251E0
1.701346106E1;-1.885313749E0;-3.507934093E0;2.509396553E0
1.703149792E1;-2.537253618E0;4.106607437E-1;-9.276008606E-2
1.704953521E1;-2.871592283E0;-4.362240314E0;-8.599843979E-1
1.706757013E1;-1.961007953E0;-4.402220726E0;4.240728378E0
1.708560992E1;-1.819484711E0;4.649865627E-1;-1.290616989E-1
1.710364807E1;-2.173629284E0;5.734169483E-2;-4.954518795E0
1.712168487E1;1.346993685E0;1.496785402E0;6.391569138E0
1.713972326E1;1.384112835E-1;-5.384315491E0;-1.947212219E-2
1.715776373E1;-2.327704430E-2;3.376150608E0;1.216427803E0
1.717579773E1;3.905307055E-1;-1.673681021E0;-1.311520576E0
1.719383203E1;-1.525057435E0;4.738241196E0;2.493233681E0
1.721187347E1;1.235076547E0;-5.580768585E-1;-1.804923058E0
1.722990625E1;7.984911203E-1;-1.254787445E-1;4.704237938E0
1.724795056E1;1.001281977E0;-3.701943398E0;1.269618988E0
1.726598462E1;-1.798228741E0;3.704838753E0;-4.125308990E0
1.728402289E1;-8.811636567E-1;-3.379857540E-2;-7.796344757E-1
1.730205914E1;-7.960638404E-1;-3.793027163E0;3.680387497E0
1.732009729E1;-1.296353340E-2;4.126837730E0;2.584309578E0
1.733813434E1;-1.320398450E0;-2.895584583E0;-7.336247444E0
1.735616736E1;-5.087671280E-1;-1.742397547E-1;1.042234707E1
1.737420868E1;-2.707853317E0;-2.606302738E0;1.018169403E0
1.739224725E1;-2.470829725E0;-1.673069000E0;-1.230323792E0
1.741028399E1;-3.341092348E0;-3.080939531E0;3.037243843E0
1.742831018E1;-5.546317101E0;3.317196369E-1;-4.013232231E0
1.744634332E1;-3.330013752E0;-6.755566597E-1;3.442327499E0
1.746439489E1;-3.215998411E0;-2.200263739E-1;-3.227806091E0
1.748243609E1;-5.771015882E-1;-4.143009186E0;1.010775948E1
1.750047210E1;-3.062703133E0;-1.327811956E0;-1.367557526E0
1.751850824E1;-1.439209223E0;3.198687077E0;-1.196845055E0
1.753654675E1;-2.197665215E0;-2.099617958E0;5.098865509E0
1.755458355E1;-2.338328123E0;-1.390308261E0;-5.915682316E0
1.757262170E1;7.309334278E-1;-2.661097527E0;1.071876431E1
1.759065429E1;-2.547000170E0;8.163063526E-1;-3.593944550E0
1.760869348E1;1.393469810E0;-5.997589827E-1;1.925691605E0
1.762673608E1;-2.758244038E0;9.409983158E-1;6.607445717E0
1.764475873E1;1.865354776E-1;4.043818474E0;-1.073688412E1
1.766281060E1;1.180415392E0;-2.157152414E0;6.587288857E0
1.768083679E1;-2.927522659E-1;1.214632750E0;-2.007073402E0
1.769887817E1;1.624848366E0;-6.245035172E0;-4.623996258E0
1.771692566E1;5.459718704E-1;1.176552534E0;8.299352646E0
1.773495758E1;5.321339369E-1;-1.788294315E-1;-8.236690521E0
1.775299481E1;-4.294103384E-1;5.733565331E0;-1.302306938E1
1.777103369E1;3.527581215E0;-6.713574409E0;2.551103783E1
1.778907068E1;-4.576022625E0;7.712745667E-2;-1.089785862E1
1.780710718E1;2.756849289E0;1.574869156E-1;4.539805412E0
1.782514532E1;-3.345569849E0;-2.608325243E0;3.332040787E0
1.784318268E1;7.752256393E-1;-2.506028175E0;-6.908933640E0
1.786122064E1;-4.744247794E-1;1.238158464E0;4.072227478E0
1.787925714E1;7.673478127E-1;-5.033546925E0;-2.111351967E0
1.789729522E1;-2.750717402E-1;4.174989700E0;-2.228161812E0
1.791532354E1;-1.313812494E0;-2.150135517E0;-8.406877518E-1
1.793335608E1;-3.790156245E-1;-3.400843620E0;-1.952629089E-1
1.795140948E1;2.897897959E-1;-5.004367828E0;-2.123449326E0
1.796944494E1;-3.623344898E-1;-2.915214300E-1;-2.443118572E0
1.798747821E1;-5.025175214E-1;-2.459202766E0;-1.194705963E-1
1.800552020E1;-9.366332889E-1;8.999710083E-1;-1.917330265E0
1.802355670E1;1.309187055E0;-2.487424374E0;2.200848579E0
1.804159478E1;-4.361165762E-1;-4.387137890E-1;-3.582715034E0
1.805963147E1;5.874860883E-1;1.283625841E0;-2.427478790E0
1.807766675E1;-7.190762758E-1;-2.379393578E0;9.511060715E-1
1.809570910E1;8.510434628E-1;2.788143873E0;4.669951439E0
1.811374133E1;-6.727156043E-1;-6.646489143E0;-1.001219749E0
1.813178393E1;2.453956604E-1;4.160872459E0;3.866910934E0
1.814980560E1;-4.934779108E-1;6.595220566E-1;-6.103922844E0
1.816785302E1;-1.123290062E-1;2.728918791E-1;1.912518501E0
1.818589654E1;6.325595975E-1;-1.899229050E0;6.032829285E0
1.820393097E1;-5.322144032E-1;2.189633369E0;-1.066335678E1
1.822196911E1;2.341564655E0;-4.710721493E0;5.189646721E0
1.824000543E1;5.271611214E-1;4.312937737E0;2.709490776E0
1.825804382E1;-1.216716051E0;-2.960084677E0;-9.626241684E0
1.827608056E1;2.449361086E0;-3.670358658E0;1.369709015E1
1.829411853E1;8.624521494E-1;-1.479162097E0;-1.084756851E0
1.831215478E1;-5.245836377E-1;-2.128868580E0;-6.211718559E0
1.833019330E1;-4.561486244E-1;1.300459623E0;6.058702469E-1
1.834824078E1;1.637105823E0;-4.558632851E0;1.155655861E0
1.836626837E1;2.890656233E0;1.032420158E0;3.167702675E0
1.838429913E1;-7.895363569E-1;-8.473864794E-1;-5.234784603E0
1.840234308E1;1.528987527E0;2.723307610E0;7.079708099E0
1.842037970E1;6.689538956E-1;2.849593163E-1;-5.996817589E0
1.843840618E1;1.494864672E-1;7.435563803E-1;-3.956387043E0
1.845645434E1;8.938657641E-1;-2.659577370E0;4.445513725E0
1.847449255E1;1.239008665E0;-1.294529915E0;-1.655235291E0
1.849252954E1;-1.688181758E0;-2.885750771E0;1.731416702E0
1.851056750E1;1.359961033E-1;1.250790715E0;-4.403429031E-1
1.852859326E1;3.835927248E-1;-1.180050135E0;-2.370968819E0
1.854663824E1;9.464174509E-1;-6.932437420E-1;5.904525757E0
1.856468200E1;-1.389047146E0;-4.354321957E-1;-6.186809540E-1
1.858271740E1;6.376301050E-1;-1.901639462E0;3.080396652E-1
1.860075366E1;-1.857509851E0;3.399026394E-2;1.732967377E0
1.861877990E1;-1.362584829E0;-1.160427570E0;6.569671631E-1
1.863682867E1;-2.090072185E-1;-5.243321657E-1;-1.769585609E0
1.865486712E1;-1.023561478E0;1.597121239E0;-2.341309547E0
1.867290301E1;7.558391690E-1;-4.876050949E0;9.984197617E-1
1.869094152E1;-1.091513991E0;2.131173134E0;3.423261642E0
1.870896484E1;9.626020193E-1;-6.446619034E-1;-3.336462498E0
1.872701654E1;1.335004568E0;1.980635881E0;1.535317421E0
1.874505298E1;1.746114373E0;-2.019300222E0;1.641111374E-1
1.876308984E1;-4.795891047E-1;3.484865189E0;-2.528077126E0
1.878112878E1;1.101048470E0;-4.403898716E0;2.743159294E0
1.879916620E1;-1.064252496E0;1.573371768E0;-2.644499779E0
1.881720239E1;3.117348850E-1;-3.682095051E0;-4.353364468E0
1.883524084E1;6.564857960E-1;7.129009962E-1;4.867253304E0
1.885326031E1;9.892913103E-1;-3.005911827E0;-1.448663712E0
1.887131549E1;7.993179560E-1;-5.325752497E-1;1.731843948E-1
1.888935211E1;-1.209784508E0;-1.216087580E0;1.142042160E0
1.890739019E1;5.006324053E-1;-1.236010551E0;5.446100235E-1
1.892542730E1;-4.291301072E-1;-9.566895366E-1;2.156971931E0
1.894346527E1;-6.616348028E-1;-7.505420446E-1;-1.700465202E0
1.896150165E1;-5.017691851E-2;-4.223440170E0;1.559578896E0
1.897953991E1;-1.615352631E-1;4.453753471E0;3.378533363E0
1.899756817E1;-2.540746331E-1;-3.534904480E0;-7.148357868E0
1.901561236E1;-7.396614552E-1;2.553532839E0;-2.072392464E0
1.903365368E1;1.433002591E0;-3.599872589E0;2.642543793E0
1.905168927E1;-2.574534714E-1;2.894521952E-1;3.033642769E0
1.906972613E1;-1.381775379E0;-1.118774772E0;-1.772888660E0
1.908776452E1;5.927212238E-1;-1.351979136E0;-3.716354370E-1
1.910580072E1;-3.908409476E-1;-1.491003990E0;4.238961220E0
1.912383606E1;-2.359212875E0;6.145285130E0;-5.375251770E0
1.914187896E1;-4.912255406E-1;-4.789639950E0;3.131731987E0
1.915991235E1;-1.528989792E0;-5.110741854E-1;2.787720680E0
1.917795233E1;-1.134284139E0;1.047107220E0;-5.505075932E0
1.919598883E1;7.447289824E-1;1.217122078E0;4.228337288E0
1.921402539E1;4.373378754E-1;3.368403435E0;-2.507213593E0
1.923205145E1;1.261156797E0;-2.127254009E0;-2.341382504E0
1.925009826E1;1.582489252E0;-1.034411192E0;4.753379822E0
1.926813958E1;-5.238341093E-1;-2.725725651E0;-5.776501656E0
1.928617505E1;1.491224289E0;4.168400764E-1;1.312038422E0
1.930421338E1;-1.458319187E0;-2.921739340E0;8.164043427E-1
1.932224951E1;-1.007085800E0;2.383520603E-1;-2.307415009E-2
1.934028766E1;-1.155415297E0;-3.021223068E0;-1.962592125E0
1.935831256E1;-1.581790745E-1;-3.264968395E-1;2.388469696E0
1.937636261E1;-8.085671067E-2;2.103379726E0;-2.748022556E0
1.939439624E1;1.012776136E0;-1.409162164E0;1.586790085E0
1.941244012E1;9.757359624E-1;2.119627953E0;-1.212560654E0
1.943047394E1;1.205524087E0;-2.430301666E0;2.532399178E0
1.944851367E1;2.380329609E0;-4.862491608E0;1.484833050E1
1.946654327E1;-6.640956402E-1;6.846963882E0;-1.260563374E1
1.948458288E1;1.150656462E0;-1.467512608E0;-8.550708771E0
1.950262750E1;-1.022478580E0;-3.403155327E0;4.159961700E0
1.952066174E1;1.378509104E-1;1.056729078E0;-7.411946297E0
1.953869800E1;1.286326170E0;-4.757370472E0;3.053947449E0
1.955673645E1;2.126720190E0;1.283771992E-1;6.295095444E0
1.957477319E1;1.062075853E0;2.578192234E0;-6.465679169E0
1.959281146E1;-2.897475660E-2;1.688586235E0;2.482476234E0
1.961084759E1;3.161383569E-1;-4.886428833E0;1.250133514E0
1.962888580E1;9.472115338E-2;-6.199862480E0;3.366701126E0
1.964692273E1;-2.307160050E-1;1.751840115E-1;8.074417114E-1
1.966496075E1;-1.245537758E0;2.117883682E0;9.640598297E-1
1.968299633E1;-2.371507883E-2;-2.107306242E0;1.395428658E0
1.970103582E1;-1.044399858E0;5.553822994E0;-3.728763103E0
1.971907074E1;-1.991125941E-2;-9.745425224E0;4.455970764E0
1.973711151E1;-4.133115113E-1;1.008462238E1;-2.100868225E-1
1.975514673E1;2.125688791E0;-6.010733604E0;-8.613692284E0
1.977317370E1;-1.274401546E0;2.211822271E0;8.781140327E0
1.979122168E1;5.775775313E-1;-4.055173874E0;4.876954079E0
1.980925970E1;-7.453988791E-1;8.035995960E-1;-5.507421494E0
1.982729608E1;-1.526716650E-1;-4.987804413E0;5.657769203E0
1.984533435E1;8.075839281E-1;-9.572174549E-1;-5.528469086E-1
1.986336944E1;-3.204110265E-1;9.221184254E-1;-8.773975372E-1
1.988141101E1;6.614145041E-1;3.693246126E0;-1.347400665E0
1.989944555E1;-1.473114610E0;-6.021354675E0;2.033990860E0
1.991748028E1;-2.627283633E-1;-8.028303385E-1;-7.243471146E-1
1.993551642E1;-4.952425063E-1;-3.887764215E-1;-1.824992657E0
1.995355566E1;4.344559312E-1;-2.384826422E0;7.985427856E0
1.997159826E1;1.772016883E-1;2.244516134E0;-5.881221771E0
1.998963293E1;-2.594086230E-1;-1.117930651E0;-7.282104492E-1
2.000766992E1;6.897954941E-1;-5.618357658E-1;4.426081657E0
2.002570837E1;1.214128137E0;-2.608262539E0;5.494489670E-1
2.004374170E1;-2.020214796E-1;4.705667496E-3;-9.616432190E-1
2.006178576E1;1.050613642E0;-2.291769028E0;-9.803962708E-2
2.007981964E1;5.800998211E-2;2.177550554E0;6.225461960E-1
2.009785791E1;-1.239279270E0;-8.078453541E-1;-4.468688488E0
2.011589392E1;-1.159314275E0;-2.331224680E-1;3.732829094E0
2.013393219E1;-5.276219845E-1;-3.861148596E0;-2.154935360E0
2.015196875E1;-5.693048835E-1;5.378781557E-1;7.940816879E-1
2.016999432E1;-3.665413260E-1;-1.738209724E0;-1.109759331E0
2.018803888E1;-7.538473010E-1;2.954484224E-1;3.645043373E0
2.020608618E1;-8.674603701E-1;-2.676773548E0;-3.670599461E0
2.022411847E1;5.940520763E-2;-1.071039081E0;5.582955360E0
2.024215661E1;-1.527630568E0;-2.965061188E0;-3.861999512E-1
2.026019287E1;-1.263963580E-1;7.910283804E-1;-6.148548126E-1
2.027824151E1;4.505589604E-1;-2.284130096E0;4.571717262E0
2.029626812E1;-1.920034647E0;3.453003883E0;-6.399741173E0
2.031429895E1;1.020131588E0;-1.406342030E0;7.129077911E-1
2.033234246E1;3.497197628E-1;7.916836739E-1;4.959497452E0
2.035038055E1;-9.462134242E-1;-1.516554117E0;-4.319951057E0
2.036841723E1;1.195769548E0;-4.692182541E-1;2.410699844E0
2.038645562E1;6.417429447E-2;-3.364399672E-1;-3.737236023E0
2.040448663E1;5.865300298E-1;-1.154697061E0;5.494147301E0
2.042252832E1;1.385565996E-1;-2.952003479E-2;-2.462572098E0
2.044056848E1;7.058081627E-1;3.838918686E0;-8.358488083E-1
2.045860492E1;7.844521403E-1;-7.240362644E0;2.967728615E0
2.047664105E1;2.443102598E-1;2.472702503E0;4.284450531E0
2.049466760E1;-1.433375120E0;-1.098256588E0;-6.558630943E0
2.051271582E1;2.629195213E0;4.961717129E-2;8.496667862E0
2.053075427E1;-6.910802126E-1;-7.932751179E-1;-1.488375664E0
2.054877881E1;1.573681593E0;1.698931575E0;1.638469696E0
2.056682867E1;5.479600430E-1;-2.258933067E0;2.853199959E0
2.058486548E1;-1.065501124E-1;3.047745228E0;-4.447571754E0
2.060290374E1;9.325875044E-1;-5.348272324E0;4.024098396E0
2.062093994E1;-3.096752763E-1;3.473886967E0;-8.639621735E-1
2.063897790E1;2.397389710E-2;-1.416670322E0;-3.607716084E0
2.065701306E1;3.013882041E-1;8.028857708E-1;4.854718208E0
2.067505542E1;1.453990221E0;-5.603717804E0;-5.582227707E-1
2.069307910E1;-8.473304510E-1;2.455838919E0;2.789621353E0
2.071112854E1;4.896047711E-1;-4.720829964E0;-3.317131519E0
2.072916430E1;2.638711035E-2;1.229366183E0;5.952301979E0
2.074720251E1;4.456408322E-2;-2.992813110E0;-2.343613148E0
2.076523877E1;1.251045942E0;-2.830046415E-1;-1.077260971E-1
2.078327722E1;5.951005816E-1;-1.684241652E0;6.951751709E-1
2.080131195E1;7.708008885E-1;-2.142675877E0;8.778533936E-1
2.081934076E1;8.440231085E-1;-2.460515499E-1;-8.209218979E-1
2.083739111E1;3.908681571E-1;-4.981752634E-1;2.696498871E0
2.085542639E1;-4.331265390E-1;1.206732273E0;-2.116080761E0
2.087345343E1;1.836244822E0;-3.225476265E0;2.025584221E0
2.089149987E1;-1.001835823E0;4.112964153E0;-3.591068268E0
2.090953876E1;2.633627176E0;8.429867029E-1;-2.548891544E0
2.092757238E1;6.942928433E-1;-1.808732867E0;2.696626663E0
2.094561248E1;7.378585339E-1;-8.905113935E-1;7.985124588E-1
2.096365057E1;6.514616013E-1;5.689713955E-1;-1.418417931E0
2.098168695E1;7.235811353E-1;-3.533998966E0;-2.841510773E-1
2.099972528E1;1.117683500E-1;2.144807577E-1;2.661925316E0
2.101776190E1;-6.841118634E-2;2.162674665E-1;-3.786775589E0
2.103579956E1;7.858443260E-2;-9.832524061E-1;2.628275871E0
2.105383441E1;2.528241158E0;-3.263194561E-1;3.101196289E-1
2.107187677E1;-6.595908403E-1;-6.083827019E-1;-4.453592300E-1
2.108991113E1;9.283653498E-1;7.011436224E-1;-7.508697510E-1
2.110794024E1;2.487215698E-1;5.804351568E-1;1.179606438E0
2.112598614E1;-5.939190984E-1;-2.833500862E0;-2.576786041E0
2.114402331E1;1.016006112E0;-1.054030657E-1;4.827676773E0
2.116206054E1;-1.375460625E-2;-2.618248224E0;-3.342547894E0
2.118009875E1;-4.069147706E-1;2.022176743E0;2.825438499E0
2.119813501E1;-4.157646596E-1;-7.145382166E-1;2.736616135E-1
2.121617315E1;-6.229329109E-1;1.446081996E0;1.658707619E0
2.123421002E1;9.610155225E-1;-9.350067973E-1;-8.402948380E-1
2.125224816E1;1.317122936E0;-5.572383404E-1;3.803558350E-1
2.127028412E1;1.794683933E-2;-4.549480915E0;1.686223984E0
2.128831073E1;1.139953136E-1;2.482213974E0;-1.956477165E0
2.130635931E1;-5.030928254E-1;-3.424821377E0;6.162776947E-1
2.132439734E1;-1.913162470E0;-1.884979367E0;1.357984543E0
2.134243341E1;-1.426490545E0;-1.263203621E0;-1.921266556E0
2.136047039E1;-1.908419371E0;-3.088682890E-1;1.006716728E0
2.137850988E1;-3.669380844E-1;-3.413140297E0;-8.942661285E-1
2.139653241E1;-9.315673113E-1;2.323782921E0;2.428976059E0
2.141458587E1;-1.144060731E0;-3.713298321E0;-2.436614037E0
2.143262121E1;5.827665329E-3;-5.007829666E-1;4.104363441E0
2.145065796E1;-1.547472477E-1;-7.752791643E-1;-4.978630543E0
2.146869610E1;-6.445288658E-1;-4.437234402E-1;3.796985626E0
2.148673242E1;-7.850307226E-2;-1.302757740E0;8.380079269E-1
2.150477044E1;-1.007539749E0;1.748649359E0;-8.394861221E-1
2.152280755E1;-7.856258750E-1;1.666158438E-1;-7.561244965E-1
2.154084533E1;-2.480161190E-2;-3.785092354E0;5.320214272E0
2.155888165E1;-1.402743697E0;4.225934029E0;-2.623583794E0
2.157690771E1;-7.105933428E-1;-2.102941513E0;-3.637845993E0
2.159495379E1;-5.456567407E-1;7.943797112E-1;6.155390739E0
2.161298468E1;-2.461806297E0;-7.584241629E-1;-7.518683910E0
2.163103167E1;-5.737904906E-1;-4.427989721E-1;4.599662781E0
2.164906890E1;4.918409586E-1;-2.527942419E0;2.278636932E0
2.166709417E1;-1.158951163E0;5.460364819E-1;-6.335582733E-1
2.168514398E1;-2.757446766E-1;-1.107937574E0;-1.328674316E0
2.170318017E1;-2.528641820E-1;1.034612060E0;1.039335251E0
2.172121832E1;-9.328516722E-1;-2.045061588E0;3.400993347E-1
2.173925213E1;-5.690631866E-1;-5.874168873E-1;-1.863924980E0
2.175729632E1;-7.238590121E-1;6.586515903E-2;1.055053711E0
2.177532940E1;-1.175820708E0;4.480990171E-1;1.535618782E0
2.179336743E1;-1.357649088E0;1.141031504E0;-3.473661423E0
2.181139239E1;-8.878932595E-1;-2.974817753E-1;1.886967659E0
2.182943853E1;6.221488714E-1;-6.456447840E-1;1.132962227E0
2.184747125E1;5.503896475E-1;1.317580938E-1;-2.024258614E0
2.186551684E1;3.089303970E-1;-2.686387300E0;5.754673958E0
2.188355383E1;-1.373745918E0;1.600316763E-1;-2.693609715E0
2.190159167E1;-1.185771465E0;-4.540584087E-1;-2.270413876E0
2.191962787E1;-1.264402866E-1;-6.527653933E-1;4.979018211E0
2.193766150E1;6.056318879E-1;-1.675018787E0;-2.011028767E0
2.195570288E1;2.053458095E-1;-2.161418676E0;8.671951294E-1
2.197373810E1;7.450065017E-1;-1.399230361E0;-4.407863617E-1
2.199178027E1;3.423231840E-2;-5.698462725E-1;-1.113548279E-1
2.200981530E1;-3.431854844E-1;-2.647565365E0;1.515995026E0
2.202785199E1;7.447805405E-1;-1.228974581E0;2.792491913E-1
2.204589123E1;1.042964697E0;-6.952657700E-1;1.150854111E0
2.206392242E1;-1.158332825E0;-5.485106707E-1;-1.713189125E0
2.208196881E1;1.838933825E-1;-5.095839500E-3;2.059088707E0
2.210000171E1;-1.106553316E0;2.667227268E0;-3.126300335E0
2.211803973E1;-1.080672860E0;-2.902337074E0;2.147085190E0
2.213607562E1;-3.792500496E-1;2.631902218E0;1.099443436E-1
2.215411383E1;-4.099217355E-1;-1.412815809E0;-3.848390579E0
2.217215045E1;2.357819676E-1;8.109583855E-1;2.338353157E0
2.219018853E1;3.823067546E-1;-1.914904237E0;1.205224037E0
2.220821118E1;-1.523261309E0;-9.560566545E-1;-9.697866440E-1
2.222626294E1;8.052811027E-1;-5.970866680E-1;-1.232000351E0
2.224429986E1;-1.452203274E0;-1.656381369E0;3.846749306E0
2.226233807E1;-3.599416018E-1;-7.872557640E-2;-3.467210770E0
2.228037402E1;4.619157910E-1;-1.695636988E0;1.846071243E0
2.229840857E1;-1.135670662E0;1.154261112E0;-5.580129623E-1
2.231645282E1;2.325165272E-2;-1.169118166E0;2.860927582E-1
2.233448718E1;-9.618935585E-1;2.656327248E0;-2.114828110E0
2.235252319E1;4.609522820E-1;-1.236784220E0;2.758483887E-1
2.237056158E1;1.230245590E0;-1.276460171E0;3.976411819E-1
2.238859814E1;-7.277423143E-2;4.828798771E-1;9.209489822E-1
2.240663635E1;-1.015580654E0;1.886522770E-2;-9.243974686E-1
2.242467254E1;2.221441269E-2;1.284854650E0;8.848533630E-1
2.244271075E1;-1.165531874E-1;-1.165362000E0;-1.929950714E-2
2.246074762E1;1.409100533E0;1.214862466E0;2.098868370E0
2.247878546E1;1.100075722E0;-2.819854975E0;-8.181285858E-1
2.249682184E1;1.903585196E-1;2.366827011E0;-4.844379425E-2
2.251485968E1;-5.535693169E-1;-3.945209503E0;-7.723159790E-1
2.253289209E1;-1.587600112E-1;6.902024746E-1;6.017169952E-1
2.255093933E1;-4.423151910E-1;-3.357453346E0;-3.355247021E0
2.256897094E1;-2.277556658E-1;7.924858332E-1;4.060580254E0
2.258700903E1;-8.537971973E-1;-2.695879221E0;-3.793547630E0
2.260504602E1;-8.365858793E-1;-8.179919720E-1;2.509323120E0
2.262308282E1;-8.546704054E-2;-9.565746784E-1;4.227676392E-1
2.264112109E1;-1.932421207E0;-2.403825521E-1;-1.903237820E0
2.265915826E1;2.158986330E-1;-2.050882578E0;2.796979904E0
2.267719482E1;-1.219135880E0;1.155804396E-1;-2.934826374E0
2.269523047E1;-1.331501007E-1;7.769012451E-1;2.742056847E0
2.271327179E1;-1.238970160E-1;4.957094193E-1;-2.896384239E0
2.273130749E1;2.572791576E-1;-1.108123422E0;3.321729660E0
2.274932959E1;-1.088257432E0;2.657312870E0;-1.871766567E0
2.276737964E1;1.679055810E0;-1.079585552E0;1.431872368E0
2.278542096E1;-1.359848976E0;2.038466692E0;-1.902579784E0
2.280345666E1;2.321775556E-1;-2.378037214E0;1.512979507E0
2.282149322E1;-1.459769607E0;2.938527584E0;-2.347575188E0
2.283953131E1;1.559962630E-1;-3.940497875E0;1.055031776E0
2.285756421E1;-1.929468632E0;1.864315391E0;-3.177242279E-1
2.287560577E1;-8.332799673E-1;-4.201275110E-1;-6.153605461E0
2.289364233E1;-1.188698411E-1;4.150886536E-1;4.404771805E0
2.291168023E1;5.986834764E-1;-2.704987764E0;-2.442359924E-3
2.292971686E1;-1.057283998E0;8.270391226E-1;-2.586517811E0
2.294775470E1;1.006633520E0;-6.759653091E-1;4.188673973E0
2.296579150E1;-5.565288067E-1;1.767760992E0;-2.084281921E0
2.298382666E1;-3.978939354E-1;-1.423613310E0;-1.053037643E-1
2.300186602E1;-6.880585551E-1;2.144537926E0;-8.583364487E-1
2.301990661E1;3.629147410E-1;-3.007859230E0;2.928562164E-1
2.303794067E1;-1.027293086E0;2.333871126E0;1.469206810E0
2.305597882E1;-6.450909376E-1;-1.762296438E0;-4.236586571E0
2.307401489E1;-1.043759227E0;6.522065401E-1;1.699073792E0
2.309205310E1;7.192836404E-1;-1.910475969E0;9.183406830E-1
2.311008960E1;-1.724494934E0;2.397005558E-1;-3.109258175E0
2.312812774E1;8.519477844E-1;-3.992023468E0;4.904088020E0
2.314616424E1;-3.229372025E0;2.409367561E0;-5.832808018E0
2.316420227E1;-2.362717390E-1;-4.968054771E0;-9.039669037E-1
2.318223883E1;-1.034545660E0;2.121387482E0;3.105336189E0
2.320027691E1;-1.363911390E0;-4.087410927E0;-7.108058453E0
2.321830761E1;7.082377672E-1;-6.512880325E-1;6.598151207E0
2.323634674E1;-1.572067976E0;-2.361857891E0;-3.655076981E0
2.325439258E1;-3.145501018E-1;2.201174736E0;7.985315323E-1
2.327242584E1;3.119607210E0;-1.311384082E0;1.318853378E0
2.329046240E1;-1.798214912E0;5.059392452E-1;4.117201805E0
2.330849804E1;2.608141184E0;1.299591899E0;-3.895872116E0
2.332653717E1;1.282639027E0;3.786878109E0;-1.279163361E0
2.334457531E1;-8.247941732E-2;-1.466296077E0;2.564574242E0
2.336261133E1;2.210943460E0;1.115284324E0;-1.443655014E0
2.338065069E1;-1.068301797E-1;-3.919292450E0;-1.438650131E0
2.339868512E1;-6.255114079E-2;2.219858170E0;2.690872192E0
2.341672418E1;4.169238806E-1;-4.386972904E0;-1.688213348E0
2.343476050E1;-1.959481239E0;3.178490639E0;1.929094315E0
2.345278082E1;-7.751755118E-1;-4.241245270E0;-2.680502415E0
2.347083172E1;-1.664304018E0;8.144756556E-1;5.110660553E0
2.348887689E1;-1.120586634E0;-3.056761742E0;-4.444757938E0
2.350690960E1;-1.095272660E0;2.115024090E0;5.184612274E0
2.352494757E1;-3.980344832E-1;1.155040026E0;-4.376950741E0
2.354298352E1;-1.640625596E-1;-1.405912161E0;1.961876869E0
2.356102319E1;1.551715732E-1;7.359998226E-1;1.862250328E0
2.357905859E1;-4.664194584E-1;1.465345502E0;-6.653636456E0
2.359709674E1;-4.950846434E-1;-2.649500370E0;5.403532028E0
2.361513354E1;-2.343375087E-1;2.253806591E0;9.067754745E-1
2.363317144E1;-8.637946248E-1;-1.484208822E0;-3.505513191E0
2.365120758E1;-8.933936954E-1;2.775249481E0;2.279819489E0
2.366924560E1;1.446497440E-1;-2.012505054E0;-1.489541054E0
2.368728229E1;-2.153121829E-1;1.589033484E0;1.959758759E0
2.370531762E1;2.055609941E0;-2.445026159E0;-1.542067528E0
2.372335852E1;1.546493053E0;-7.991758585E-1;4.214535713E0
2.374139599E1;2.733455181E0;-2.995945930E0;-1.895326614E0
2.375943164E1;1.244891405E0;1.003293395E0;1.384829521E0
2.377746643E1;6.759094596E-1;-2.979829550E0;1.570920944E0
2.379550580E1;-1.731491089E-1;1.730001330E0;-1.961585522E0
2.381354376E1;3.687494993E-2;-4.082605362E0;-4.562940598E-1
2.383158032E1;-2.223904133E-1;-2.050978899E0;3.390399933E0
2.384961853E1;-5.898480415E-1;2.789174080E0;-2.492170334E0
2.386765472E1;3.428156376E-1;-2.473860741E0;-8.188867569E-1
2.388569275E1;-8.807527423E-1;3.228584528E-1;1.515951157E0
2.390372979E1;7.846304774E-1;9.623324871E-2;-1.239174843E0
2.392176001E1;7.557564974E-2;1.782948971E-1;1.468963623E-1
2.393979980E1;-2.730210423E-1;-2.273763180E0;1.571898460E0
2.395784600E1;-7.599319220E-1;-7.617613077E-1;2.587846756E0
2.397587866E1;-1.970448971E0;8.497251272E-1;-2.710494518E0
2.399390637E1;-7.433786988E-1;9.770622253E-1;4.883508682E0
2.401195282E1;8.271050453E-1;5.807487965E-1;-6.188821793E0
2.402999054E1;-9.029253721E-1;-1.500793576E0;1.592769623E-1
2.404802374E1;4.727968574E-1;4.237531424E-1;4.390710831E0
2.406606543E1;-1.100160480E-1;-2.792502403E0;-2.140306473E0
2.408410186E1;-7.981268167E-1;8.805649281E-1;6.304416656E-1
2.410213995E1;2.269850969E-1;-1.088898182E-1;1.597118378E-2
2.412017676E1;-6.731736660E-1;1.329673648E0;-1.623975754E0
2.413821197E1;1.637145281E-1;-3.038764000E-3;1.289431572E0
2.415624853E1;4.354274273E-1;-1.807313442E0;7.328176498E-1
2.417428882E1;-1.533780098E-1;-5.325795412E-1;-3.280591011E0
2.419232550E1;3.040465117E-1;2.147734165E0;1.986780167E-1
2.421036364E1;2.430733740E-1;-2.020354748E0;3.929940224E0
2.422839978E1;4.380984902E-1;2.566910028E0;-4.122095585E0
2.424643786E1;-6.070936918E-1;-2.929578304E0;2.120739937E0
2.426447680E1;-2.341583222E-1;1.667071581E-1;5.083789825E-1
2.428251037E1;-7.986982465E-1;-1.526557446E0;-6.684036255E-1
2.430054876E1;2.899048626E-1;3.458798885E0;-1.781410217E0
2.431858673E1;-7.231925726E-1;-5.080153465E0;-3.820514679E-2
2.433662359E1;3.677838743E-1;3.980299234E0;1.279838562E0
2.435466168E1;5.060021877E-1;-3.973161459E0;-4.576554298E0
2.437269781E1;1.219501495E0;-3.405689001E-1;4.846574783E0
2.439073510E1;1.038715601E0;-2.507322788E0;-1.523828506E-1
2.440876947E1;6.854382753E-1;1.482374907E0;-4.018726349E-1
2.442681353E1;1.219947934E0;-7.336261749E0;2.829105377E0
2.444484674E1;-3.557007611E-1;6.402035236E0;-3.589633942E0
2.446288482E1;-1.582916230E-1;-3.525540352E0;-5.438655376E0
2.448092163E1;-9.265296459E-1;2.835551977E0;2.794784546E0
2.449895959E1;8.825742006E-1;-6.789379120E-1;-6.362193108E0
2.451699554E1;6.680871248E-1;-2.218439817E0;4.943512917E0
2.453503375E1;-7.276403308E-1;1.130657911E0;-1.238155365E0
2.455306915E1;4.861218333E-1;4.856352806E-1;1.522863388E0
2.457110943E1;-1.734411240E0;-4.317998886E-1;-1.043164253E0
2.458913251E1;-3.973530531E-1;9.219688177E-1;-1.209058762E-1
2.460718268E1;-3.838519156E-1;-1.044531107E0;2.255110741E0
2.462520355E1;-2.094691098E-1;1.439103484E0;-5.038411140E0
2.464325360E1;-3.637432754E-1;-4.049009323E0;4.937233925E0
2.466129754E1;-7.659909129E-1;4.486197472E0;1.048205376E0
2.467933160E1;-9.717532992E-1;-2.678386688E0;-8.076314926E0
2.469736841E1;-7.659261227E-1;-7.945662141E-1;6.104847908E0
2.471540606E1;-3.693776727E-1;-1.093152046E0;-2.353686810E0
2.473343969E1;-7.734757066E-1;3.359178305E-1;-1.550482750E0
2.475148028E1;-5.119716525E-1;-2.704221249E0;1.144969940E0
2.476951733E1;-1.698903084E0;1.797727585E0;-2.251176834E-1
2.478755304E1;1.801644564E-1;-3.712219715E0;-1.837197781E0
2.480559033E1;-8.924295902E-1;3.436243057E0;1.939303398E0
2.482362945E1;-6.685590744E-2;-2.189233303E0;-5.021015644E0
2.484166601E1;3.336310387E-2;-1.087355971E0;4.306411743E-1
2.485970373E1;-4.335057735E-2;1.688644886E-1;-1.757316589E-1
2.487773272E1;-2.976589799E-1;-8.776147962E-1;3.958376884E0
2.489578119E1;2.012383938E-1;-2.406078577E0;-4.255264282E0
2.491381195E1;-1.473720670E0;7.987898588E-1;8.762889862E0
2.493185583E1;1.258666754E0;-2.083730221E0;1.071545601E0
2.494987744E1;-1.255801797E0;6.744920731E0;-4.520376682E0
2.496792730E1;3.559434414E-2;-9.175525665E0;8.060037613E0
2.498596380E1;-1.047999978E0;5.670493603E0;-1.394928932E0
2.500400207E1;-5.774317980E-1;-4.574830055E0;-3.409758091E0
2.502203772E1;-1.044961929E0;3.408819675E0;1.435669899E0
2.504007635E1;6.093358994E-2;-4.464610100E0;-6.050298691E0
2.505811279E1;-8.061332107E-1;3.912924290E0;7.196407318E-1
2.507615094E1;-1.594914198E-1;-3.339638710E0;-3.678679943E0
2.509418945E1;-1.357307553E0;-1.451732039E0;-2.567052841E-1
2.511222180E1;-1.461441398E0;-2.567933559E0;1.894258499E0
2.513026459E1;-5.757502913E-1;1.103944898E0;-9.433116913E-1
2.514829937E1;-1.312453866E0;2.874765396E-1;7.960128784E-2
2.516633587E1;-1.037856817E0;-2.211951017E-1;-1.610634804E0
2.518437408E1;-2.780297995E-1;-2.815703869E0;3.046262741E0
2.520241070E1;-4.984825253E-1;1.527876973E0;-5.738258362E-3
2.522044854E1;-6.901656985E-1;-3.520544529E0;2.094531059E0
2.523848456E1;-1.339286804E0;2.192049980E0;7.163429260E-2
2.525652136E1;-1.619948626E0;1.111962438E0;-5.600710869E0
2.527456073E1;-1.561809778E0;6.961097717E-1;2.040126801E0
2.529259747E1;-9.374819994E-1;-1.573808312E0;-1.804065704E-2
2.531063330E1;-4.685025811E-1;2.598151207E0;5.870389938E-1
2.532866912E1;-6.898057461E-1;-3.472087860E0;6.306400299E-1
2.534670910E1;-4.239717126E-1;2.307415247E0;2.424487114E0
2.536474786E1;-1.041107416E0;6.859949827E-1;-7.281898499E0
2.538278222E1;-1.585244417E0;-2.653666496E0;7.751834869E0
2.540082037E1;4.074914455E-1;-2.552247047E0;2.335287094E0
2.541885693E1;-7.694456577E-1;5.303984880E-1;1.982234001E0
2.543689526E1;-1.012992740E0;3.010869980E0;-2.598800659E0
2.545493115E1;-6.580651999E-1;-1.182933450E0;-4.821822643E0
2.547296826E1;-1.114422560E0;-6.929897070E-1;4.221953392E0
2.549100323E1;-2.150241733E-1;-9.149792790E-1;-3.709884644E0
2.550904626E1;-4.797148108E-1;-8.025057912E-1;2.845972061E0
2.552708001E1;-7.341194153E-1;-1.276470900E0;-9.910421371E-1
2.554511816E1;-7.179712057E-1;1.884951472E0;1.757402420E-1
2.556313849E1;-1.134654284E-1;-8.126969337E-1;-1.375770569E-1
2.558119098E1;-8.344671130E-1;1.105550528E-1;-1.093196869E-2
2.559923065E1;4.610634446E-1;-4.010408878E0;-3.643131256E-2
2.561726690E1;3.468660116E-1;1.600568652E0;-4.890346527E-1
2.563530371E1;1.730528831E0;-1.737142920E0;2.640238762E0
2.565334387E1;8.183909059E-1;-1.967084408E-1;-2.287173748E0
2.567137738E1;3.437527418E-1;-2.692546844E0;2.226212502E0
2.568941552E1;8.934878707E-1;1.912120938E0;-1.140564919E0
2.570744897E1;-1.937186718E-1;-1.324416876E0;-2.201901913E0
2.572548761E1;-8.175885677E-1;4.043626785E-1;2.797973633E0
2.574352954E1;3.217712641E-1;-2.093904257E0;-2.223811150E0
2.576156451E1;-1.139573216E0;6.912320852E-1;2.969913483E0
2.577960107E1;-8.294897079E-1;-4.617607594E-2;-2.538296223E0
2.579762756E1;2.355868816E-1;1.439840078E0;-1.240015984E0
2.581567700E1;6.793772578E-1;-1.879502535E0;-6.635580063E-1
2.583370868E1;-4.707390368E-1;7.013006210E-1;4.650973320E0
2.585175323E1;-6.221950054E-2;-6.386694908E-1;-3.781146526E0
2.586978766E1;-1.242742658E0;-2.134585142E0;4.131981850E0
2.588782416E1;-6.826997995E-1;1.255342603E0;-1.267189026E0
2.590586212E1;1.535098553E-1;-3.430114269E0;3.802595139E-1
2.592389868E1;-7.985725999E-1;3.441051006E0;-2.923043251E0
2.594193658E1;1.033935070E0;-4.346431732E0;9.974756241E-1
2.595997015E1;1.778721809E-1;3.118532658E0;-5.947790146E-1
2.597801349E1;6.932865381E-1;-2.918663979E0;-4.362153530E0
2.599604760E1;-1.111587644E0;3.798153877E0;5.022559166E0
2.601408557E1;3.945623040E-1;-1.223251224E0;-5.381117821E0
2.603212762E1;-9.470636845E-1;1.210266471E0;3.824689865E0
2.605016089E1;1.472990513E0;-3.567767620E0;7.934570312E-2
2.606819506E1;2.909488082E-1;2.718536377E0;-9.180049896E-1
2.608623425E1;2.016854763E0;-3.241615772E0;-8.835363388E-1
2.610426959E1;8.080584407E-1;3.190504313E0;1.416407585E0
2.612230926E1;-6.608992815E-2;-3.626740456E0;-3.080093384E0
2.614034497E1;1.068373084E0;1.525639296E0;3.344648361E0
2.615838287E1;-5.735549331E-1;2.158614397E-1;-4.747642994E0
2.617641913E1;6.515366435E-1;-3.829732180E0;6.186625481E0
2.619445709E1;-1.068076968E0;2.257342815E0;-2.097326756E0
2.621249365E1;-1.113814831E0;-4.506668091E0;-1.748880863E0
2.623053155E1;-8.242759109E-1;-3.516147137E-1;4.094423294E0
2.624856402E1;-1.324815989E0;-8.384625912E-1;-4.872535706E0
2.626660956E1;-3.257533610E-1;-2.430291176E0;6.514594078E0
2.628464251E1;-3.070672452E-1;-4.930733442E-1;-1.903381824E0
2.630268054E1;-1.279910207E0;1.819766760E-1;-1.931161880E-1
2.632071655E1;-1.269206762E0;1.182032228E0;-1.417550087E0
2.633875445E1;-3.945212364E-1;-1.070645452E0;-5.691080093E-1
2.635677929E1;-6.318061352E-1;-1.007530689E0;3.011959076E0
2.637482916E1;-4.828313589E-1;7.896139622E-1;-4.944153786E0
2.639286548E1;-4.811196029E-1;-1.700749397E-1;4.015425682E0
2.641090332E1;-6.619889736E-1;4.255775213E-1;-2.475618839E0
2.642893988E1;1.037721634E-1;-3.538370132E-3;4.056807518E0
2.644697815E1;4.735437632E-1;3.406610250E0;-3.054640293E0
2.646501404E1;3.302819729E-1;-2.987918377E0;-2.295870304E0
2.648305133E1;7.042620778E-1;-5.175629854E-1;6.418360710E0
2.650108233E1;-3.761819601E-1;2.889074326E0;-7.946796417E0
2.651912353E1;-8.901882172E-1;-3.566406250E0;4.368572235E0
2.653715460E1;3.987526298E-1;1.321697354E0;4.621314049E0
2.655520068E1;-3.483037055E-1;2.549267292E0;-8.222578049E0
2.657322802E1;-1.272466779E-1;-2.118381023E0;6.518195152E0
2.659125964E1;1.005392313E0;5.446869135E-1;6.223087311E-1
2.660930993E1;-3.681859076E-1;-1.210346103E0;-4.018011093E-1
2.662735083E1;1.198570132E-1;5.294131041E-1;-2.182590008E0
2.664538635E1;-7.447698712E-2;-1.263813853E0;2.543233871E0
2.666342407E1;3.221498728E-1;8.407260180E-1;-1.418228149E0
2.668146020E1;2.324131727E-1;1.654794216E-1;-2.985944748E-1
2.669949804E1;3.076195717E-1;1.446464062E-1;2.024387360E0
2.671753100E1;-5.860227942E-1;1.333223581E-1;-2.953880787E0
2.673557208E1;1.254529715E0;4.269325733E-1;2.642687798E0
2.675360882E1;5.750699043E-1;-1.107711554E0;4.029722214E-1
2.677164679E1;5.758273602E-1;4.656791687E-3;-3.576107025E-1
2.678968310E1;1.876863480E0;-1.427209377E0;-1.671919823E0
2.680772149E1;-6.845936179E-1;-2.113232851E0;4.812392235E0
2.682574597E1;9.617255330E-1;-1.139567494E0;-3.530828476E0
2.684379260E1;-5.930842757E-1;-5.063476562E-1;2.475302696E0
2.686183490E1;1.152236581E0;-8.941456676E-1;7.179260254E-2
2.687986999E1;1.438957691E0;-6.571846008E-1;-3.327932358E-1
2.689790625E1;5.347909927E-1;2.945902348E0;-1.709166050E0
2.691594409E1;9.754168391E-1;-3.041936874E0;-8.151693344E-1
2.693398071E1;8.097570539E-1;5.253264904E-1;9.959897995E-1
2.695201861E1;-7.147544026E-1;-2.472922802E-1;-1.598427773E0
2.697005462E1;2.477272972E-2;7.171273232E-2;3.440246582E-1
2.698808911E1;4.102457166E-1;1.331530809E-1;-5.166158676E-1
2.700613312E1;-4.643605947E-1;3.772348166E-1;-6.205892563E-1
2.702416729E1;9.510990977E-1;-1.995414376E0;1.705523491E0
2.704220355E1;3.836467266E-1;2.587129116E0;2.096090317E-1
2.706023303E1;1.150864482E0;-2.232496738E0;-2.343550205E0
2.707825885E1;-3.216137290E-1;-1.643881917E0;6.349015236E0
2.709631708E1;1.662061810E-1;3.522890091E0;-5.131196976E0
2.711435193E1;9.952781200E-1;-2.153405666E0;-1.356942177E0
2.713239019E1;-2.526750863E-1;-1.354601860E0;5.483160973E0
2.715042651E1;5.689836144E-1;2.563555241E-1;-5.030264854E0
2.716846295E1;-1.925371587E-2;2.715995312E-1;1.823403358E0
2.718650238E1;1.706290990E-2;-9.950482845E-2;6.051788330E-1
2.720453790E1;-7.662606984E-2;-1.902901292E0;1.319433212E0
2.722257538E1;6.435041428E-1;2.363037109E0;-4.866142273E-1
2.724061340E1;2.014360726E-1;-2.497400522E0;-5.873508453E-1
2.725864941E1;1.489564627E-1;-1.164257050E0;1.664623260E0
2.727668725E1;-5.303871632E-2;-3.736113310E-1;-1.709949017E0
2.729471966E1;-4.580021501E-1;9.398247004E-1;1.181865692E0
2.731275726E1;7.024213076E-1;-2.611220360E0;-4.338588715E-1
2.733080261E1;3.292764425E-1;1.573596716E0;-4.080867767E-2
2.734883593E1;-1.153834343E0;-2.236560822E0;-2.067947388E-1
2.736687237E1;5.695064068E-1;2.966384888E-1;8.123331070E-1
2.738491034E1;4.359015226E-1;1.594834328E-1;-7.685623169E-1
2.740294568E1;-1.636683941E-2;-2.718729973E0;1.510016441E0
2.742098535E1;2.351762056E-1;2.061049461E0;-1.327486038E0
2.743902118E1;-1.714592874E-1;-2.497544050E0;-2.558892727E0
2.745705627E1;-1.345116138E0;-1.623715520E0;3.621023178E0
2.747509784E1;-4.091141224E-1;-2.383862257E0;-6.449031830E-1
2.749311840E1;-7.187461257E-1;2.690455914E-1;4.613523483E-1
2.751116937E1;-1.128339529E0;-1.896713018E0;2.075395584E-1
2.752919537E1;-3.303133845E-1;9.809668064E-1;-1.207056046E-1
2.754724273E1;-2.197480798E-1;-3.802645206E-2;9.717941284E-2
2.756528241E1;1.154726982E0;-2.112801075E-1;-1.822319031E0
2.758331836E1;2.227334380E-1;-1.375501990E0;3.812977791E0
2.760135602E1;3.747821450E-1;3.368790627E0;-3.407363415E0
2.761939233E1;3.301846385E-1;-2.261523962E0;3.008466721E0
2.763743066E1;1.532895565E-1;3.505250931E0;7.774066925E-2
2.765546673E1;-6.353531480E-1;-5.687820911E-1;-3.202766418E0
2.767350470E1;-1.532073021E-1;9.965643883E-1;1.706411362E0
2.769154071E1;-2.318183780E-1;-3.178339005E-1;-1.224769592E0
2.770957867E1;-1.307862997E-2;-1.044054389E0;9.518671036E-1
2.772761114E1;-1.616550684E-1;-6.821575761E-1;2.476595879E0
2.774565326E1;-9.753293991E-1;2.854047298E0;-3.159719467E0
2.776368927E1;-2.781387568E-1;-2.373613596E0;2.476062775E-1
2.778172558E1;-5.225374699E-1;2.092754841E0;2.523109436E0
2.779976532E1;-4.850015044E-1;-1.025163889E0;-4.639445782E0
2.781780188E1;4.014903307E-2;-1.990790009E0;4.163014412E0
2.783583801E1;1.936819553E-1;-2.431060791E0;2.948160172E-1
2.785387286E1;-4.180801511E-1;1.743388295E0;7.952184677E-1
2.787191211E1;2.338475585E-1;2.020041943E0;-2.360725403E-1
2.788995025E1;-1.648112237E-1;-3.459771872E0;-2.216345310E0
2.790798651E1;-1.034423709E-2;-1.562416553E-2;5.792448044E0
2.792602148E1;-2.783906460E-2;2.476911545E0;-5.276350975E0
2.794406378E1;-4.274960160E-1;-2.402441740E0;4.147281647E0
2.796209887E1;6.875258684E-1;1.842152834E0;1.206130028E0
2.798013501E1;7.430781126E-1;8.785293102E-1;-2.482414722E0
2.799816577E1;-5.744239688E-2;1.359900713E0;1.356563568E-1
2.801620831E1;1.641663671E0;-5.829850435E-1;-1.935606956E0
2.803424878E1;7.688325644E-1;-3.071882248E0;-1.913738728E0
2.805228332E1;7.732491493E-1;-2.437762022E0;3.763977051E0
2.807032141E1;1.434242606E0;-8.159064651E-1;-8.582096100E-1
2.808834619E1;-2.134887129E-1;-2.712960243E0;-1.116479874E0
2.810639575E1;8.673794866E-1;-7.619090080E-1;2.776417732E0
2.812443206E1;6.610110998E-1;-1.963888407E-1;-1.846418381E0
2.814246972E1;2.195276618E-1;1.267110109E-1;-2.905845642E-3
2.816050634E1;1.717182547E-1;-4.556832314E-1;1.049095154E0
2.817854425E1;4.139499366E-2;-1.193163395E-1;9.178199768E-1
2.819658050E1;-5.904665589E-1;1.258029819E0;-8.701677322E-1
2.821461847E1;-1.192144752E-1;8.256194592E-1;1.159578323E0
2.823263812E1;-7.666888237E-1;1.151767969E0;-3.788892746E0
2.825069128E1;-4.919515252E-1;-6.948721409E-2;2.085362434E0
2.826873010E1;1.241473854E-1;-7.543981075E-2;-7.824678421E-1
2.828676690E1;3.894323111E-2;-1.634014010E0;5.483589172E-1
2.830480340E1;1.327552557E0;8.775259256E-1;-7.137794495E-1
2.832283404E1;-7.644134760E-1;-1.289365292E0;3.921970367E0
2.834087744E1;1.113412023E0;1.950885057E-1;-2.091975212E0
2.835891528E1;-6.412816644E-1;-3.135759354E0;5.080022812E-1
2.837695190E1;-9.426722527E-1;-9.333062172E-2;2.208231926E0
2.839498980E1;-3.595890999E-1;-8.117008209E-2;-2.100586891E0
2.841302496E1;-3.677838147E-1;1.200723886E0;-8.742952347E-1
2.843106433E1;2.089663744E-1;-1.425153255E0;-4.845485687E-1
2.844910034E1;1.063370228E0;2.241470814E-1;4.180398941E0
2.846713794E1;9.542651176E-1;9.269411564E-1;-3.744148254E0
2.848517126E1;-1.052331626E-1;-9.450361729E-1;4.436340332E-1
2.850321521E1;1.125302672E0;-2.792201042E-1;1.447977066E0
2.852124878E1;9.283679724E-1;-9.831740856E-1;-6.576623917E-1
2.853928668E1;5.014522076E-1;-1.036164165E0;1.654338837E-2
2.855730780E1;3.871275187E-1;1.010744691E0;2.209064484E0
2.857535760E1;1.249101639E0;2.637085915E-1;-2.289425373E0
2.859339898E1;3.927527070E-1;1.750881672E-1;-4.293622971E-1
2.861143634E1;5.698809028E-1;6.272379160E-1;-5.300912857E-1
2.862947113E1;1.102398872E0;-1.976316333E0;5.353584290E-1
2.864750586E1;1.119586825E-1;-2.387415171E-1;-4.557189941E-1
2.866553778E1;2.655441761E-1;-2.127848625E0;1.289713860E0
2.868358362E1;-1.832434535E-1;-1.760599971E0;-7.696866989E-1
2.870161956E1;-1.086662412E-1;-1.486679196E0;1.500219345E0
2.871965326E1;-1.028325319E0;-4.766384363E-1;1.553936958E0
2.873769830E1;-4.640906453E-1;-1.442211866E0;-1.113987923E0
2.875573199E1;-8.366596699E-1;-9.641141295E-1;1.637463570E0
2.877376751E1;2.825140953E-2;7.376326323E-1;7.809839249E-1
2.879181256E1;-1.730190217E-1;1.594402909E0;-1.718285084E0
2.880983996E1;-8.830775023E-1;-8.237402439E-1;3.766908646E-1
2.882788312E1;-1.558914185E-1;1.358101487E0;-7.352914810E-1
2.884591644E1;-4.857665300E-2;-1.480343580E0;1.086278915E0
2.886395440E1;-1.107358932E0;1.505202174E0;-4.502706528E-1
2.888199096E1;-1.116949201E0;-9.416983128E-1;-7.081298828E-1
2.890002880E1;-1.223443151E-1;-1.223961830E0;2.609443665E0
2.891806030E1;-1.262696981E0;6.830404997E-1;-1.784756660E0
2.893610272E1;-1.294231534E0;-2.333507061E0;2.981760979E0
2.895413940E1;1.045289636E-1;4.121708870E-2;5.420302391E0
2.897217730E1;-2.152466059E0;2.667634487E0;-6.194435120E0
2.899021313E1;-2.014641285E0;-9.021271467E-1;-3.193256378E0
2.900824170E1;-1.176626086E0;-2.603975534E-1;3.009322166E0
2.902628753E1;-1.715538502E-1;1.012089729E0;3.475790024E-1
2.904432415E1;1.130144835E0;-4.304925203E-1;1.534078598E0
2.906236334E1;9.465794563E-1;3.123875618E0;1.685826302E0
2.908039972E1;-1.830904484E-1;-6.092783213E-1;-5.471013546E0
2.909843597E1;-2.847158909E-1;3.993966579E-1;3.163520813E0
2.911647418E1;-4.068903029E-1;-1.807733893E0;6.454849243E-1
2.913451019E1;-7.066836357E-1;-2.450665236E0;-4.324898243E0
2.915254791E1;-3.956629932E-1;-4.407438278E0;7.589041710E0
2.917058465E1;2.014439106E-1;6.206585884E0;6.279039383E-1
2.918862219E1;-1.534156203E0;-6.467397213E-1;-6.805996895E0
2.920665857E1;1.346982718E-1;-1.198041677E0;4.928642273E0
2.922469623E1;-1.644012332E-1;1.016844869E0;-1.486131668E0
2.924273297E1;-2.813851833E-2;-3.204741478E0;-2.353228092E0
2.926076269E1;-5.203549862E-1;1.051486373E0;1.263271332E0
2.927880414E1;-7.182693481E-2;-3.744546413E0;-1.615774155E0
2.929684753E1;-1.603254080E-1;-1.059728622E0;4.473990440E0
2.931488122E1;1.217186213E0;-4.510002136E-1;2.449703217E-2
2.933291937E1;5.569985509E-1;-2.417220592E0;4.790265083E0
2.935095514E1;8.141325712E-1;-1.467967629E0;-3.618452072E0
2.936899060E1;-5.455672145E-1;2.131015062E-1;4.926213264E0
2.938703204E1;2.313593030E-1;-1.010133028E-1;-2.148840904E0
2.940506744E1;-1.669236660E0;2.259618759E0;-2.173498154E0
2.942310235E1;-1.318352580E0;3.710871935E-1;1.060161591E-1
2.944114251E1;-2.150548935E0;2.598102570E0;-5.502719879E-1
2.945917792E1;-4.925785065E-1;-6.148046255E-1;-1.130332947E0
2.947721588E1;-8.898508549E-2;2.239348888E0;2.334459305E0
2.949525165E1;5.669480562E-2;-2.367709398E0;-2.240265369E0
2.951328711E1;3.463018537E-1;-3.480031252E0;1.654846191E0
2.953132861E1;-2.871437669E-1;-8.451083899E-1;9.187269211E-1
2.954936383E1;1.531026363E-1;-7.153094411E-1;1.618645668E0
2.956740033E1;6.177328229E-1;-1.543752670E0;-1.311450005E0
2.958542620E1;-8.302146196E-1;2.141723633E-1;6.522397995E-1
2.960347467E1;1.955181360E-1;2.450925112E-1;-8.478507996E-1
2.962151245E1;1.661158204E-1;3.019179344E0;1.243041992E0
2.963954858E1;1.925846934E-1;-1.247231007E0;-2.568206310E0
2.965758301E1;-5.189114809E-1;-1.625672698E0;4.772085190E0
2.967562280E1;-6.496596336E-2;1.772464991E0;-2.930387497E0
2.969366089E1;-1.663227081E-1;1.524000168E0;1.295924187E0
2.971169647E1;2.522398829E-1;-8.297106624E-1;2.306644440E0
2.972973437E1;-3.194016814E-1;3.170249939E0;-3.916812420E0
2.974776403E1;9.263843894E-1;-2.616312981E0;8.772678375E-1
2.976581140E1;-1.230269074E-1;7.854092121E-2;2.170993805E0
2.978384546E1;-4.647076130E-2;-2.105745316E0;-2.791825771E0
2.980188257E1;-8.596006632E-1;1.009713888E0;2.407167435E0
2.981992474E1;-1.774394512E-2;-3.156473637E-1;-1.712942600E0
2.983795733E1;-6.341874599E-1;-4.769830704E-1;1.832109451E0
2.985599334E1;-6.801391840E-1;1.089573860E0;-2.012222290E0
2.987403125E1;-2.849153280E-1;-1.086844802E0;2.468919754E-1
2.989206787E1;-2.746683359E-2;-7.796587348E-1;9.606418610E-1
2.991010571E1;-4.957354069E-2;-2.161024809E-1;-7.411003113E-1
2.992814154E1;-8.175484538E-1;-1.913447380E0;1.209497452E-1
2.994617938E1;-6.747955084E-1;7.760164738E-1;-7.466125488E-2
2.996421002E1;-1.257183075E0;-1.119872928E0;-1.272764206E0
2.998225384E1;-1.425906301E0;-2.110025644E0;1.865601540E0
3.000029010E1;-7.000925541E-1;3.214759827E0;-4.962060928E0
3.001831592E1;6.811693907E-1;-5.128246307E0;6.148222923E0
3.003636444E1;4.717566371E-1;4.430405617E0;-5.596933365E-1
3.005439575E1;4.678732753E-1;-1.476047993E0;-3.199781418E0
3.007243542E1;-4.921192527E-1;-3.689305782E-1;1.445275307E0
3.009047864E1;-2.530702353E-1;-1.988650322E0;1.974392891E0
3.010851263E1;-4.553932548E-1;7.800037861E-1;-5.564279556E-1
3.012655060E1;-1.090906978E0;4.961383343E-2;5.492506027E-1
3.014458655E1;-3.381206393E-1;-8.049830198E-1;1.844637871E0
3.016262457E1;-1.324703813E0;-1.828355789E-1;-1.234415054E0
3.018066089E1;-3.823726177E-1;6.690051556E-1;-5.912847519E-1
3.019869073E1;-2.441667914E-1;-1.084942937E0;4.593963623E-1
3.021673474E1;-8.136555552E-1;1.337158561E0;2.022944450E0
3.023477270E1;-5.210112333E-1;4.843672514E-1;-3.320108414E0
3.025280932E1;-1.750411272E0;-7.845699191E-1;3.684247017E0
3.027084674E1;-1.106640697E0;2.430983543E0;-1.359021187E0
3.028888714E1;1.192353487E0;-3.825548649E0;2.370087624E0
3.030691821E1;2.741662264E0;8.879803419E-1;8.507184982E-1
3.032496008E1;-1.332227230E0;-3.009369373E0;-5.775823593E-1
3.034298120E1;3.274032474E-1;1.045507073E0;4.217395782E-1
3.036103350E1;-7.639045715E-1;-9.197770953E-1;-2.211892605E0
3.037906884E1;-1.053522229E0;5.827075243E-1;-1.886367798E-1
3.039710565E1;-4.769656956E-1;1.726296663E0;-9.311981201E-1
3.041514361E1;2.929431796E-1;-2.174247265E0;-1.394639015E0
3.043317914E1;3.711578250E-1;-2.666828632E0;3.535072327E0
3.045121789E1;-1.204445958E-1;1.098825932E-1;-3.267631531E0
3.046925299E1;-2.625563741E-1;-2.912046432E0;2.734540939E0
3.048729181E1;5.017184019E-1;1.671531200E-1;2.132644653E-1
3.050532800E1;4.109007120E-2;9.316992760E-2;-1.332044601E-1
3.052335852E1;7.192227840E-1;7.254842520E-1;1.862289429E0
3.054139746E1;1.350905180E0;-2.508126259E0;-3.266952515E0
3.055944433E1;2.059041262E-1;5.791847706E-1;3.615750313E0
3.057747253E1;-2.327953577E-1;-3.078372478E-1;-3.789116859E0
3.059551367E1;-1.357449293E0;-5.556482077E-1;2.913503647E0
3.061355047E1;-1.213890910E-1;1.036782980E0;-1.158761024E0
3.063158795E1;-3.855199814E-1;-9.662421346E-1;4.700049400E0
3.064962396E1;-3.519324064E-1;-1.666250229E-1;-2.873796463E0
3.066766693E1;4.985010028E-1;1.110831738E0;1.036883354E0
3.068569549E1;1.167436242E-1;-1.178222895E-1;-2.701807022E-1
3.070373767E1;3.192300797E-1;-4.379658699E-1;1.032481194E0
3.072177386E1;-1.511094093E0;1.235644341E0;-1.091763496E0
3.073981006E1;1.341710329E0;3.524720669E-1;-2.165201664E0
3.075784179E1;-2.185054123E-1;-1.615019917E0;2.776465416E0
3.077588604E1;1.876852512E-1;-4.522291422E-1;-1.797204018E0
3.079391900E1;1.120343208E-1;7.525590658E-1;-2.513704300E-1
3.081195855E1;4.715713263E-1;-2.375999212E0;9.852094650E-1
3.082999457E1;3.922143579E-1;-1.021212697E0;1.467760086E0
3.084803277E1;5.237707496E-1;9.855703115E-1;-1.438654900E0
3.086606854E1;8.541863561E-1;-3.869034052E-1;3.302419662E0
3.088410644E1;2.113014460E0;-5.328243971E-1;-4.131932259E0
3.090214282E1;3.920669556E-1;-1.880144358E0;5.946931839E0
3.092018066E1;1.113625765E0;3.522943974E0;-2.623311520E0
3.093821112E1;7.273296714E-1;-1.843030214E0;-2.472100735E0
3.095625464E1;-5.452847481E-1;2.205661297E0;2.764121056E0
3.097429120E1;3.987634182E-2;-1.979823828E0;-2.948828220E0
3.099231689E1;2.119317353E-1;7.601393461E-1;1.149785995E0
3.101036401E1;4.490988851E-1;-2.262922525E0;-4.319143295E-1
3.102840350E1;-3.885470331E-1;-8.040144444E-1;-4.256000519E-1
3.104643945E1;-4.283892512E-1;-3.373350143E0;7.273025513E-1
3.106447821E1;-1.448700786E0;-3.632466793E-1;1.061140060E0
3.108251196E1;-1.392463923E0;-3.888065815E-1;-3.321619511E0
3.110055102E1;-1.170463085E0;-3.715863228E0;1.659351349E0
3.111858740E1;-4.816417992E-1;-2.036578655E-1;1.146574020E-1
3.113662530E1;-4.620385170E-2;-1.108759761E0;1.416466713E0
3.115466125E1;-1.921144605E0;5.347483158E-1;-1.686374664E0
3.117269922E1;2.792966366E-2;-9.778734446E-1;2.844505310E0
3.119073529E1;1.959487200E-1;1.583621502E0;1.638088226E-1
3.120875878E1;-7.694005966E-2;7.464033365E-1;-3.657472134E0
3.122681219E1;-3.904987574E-1;-1.677726984E0;3.271959305E0
3.124484717E1;-1.330093145E-1;1.490078807E0;9.423255920E-3
3.126288360E1;-1.270472288E0;7.176052332E-1;-3.945340157E0
3.128092138E1;-6.885594130E-1;-2.777717113E-1;2.216045380E0
3.129895740E1;-3.304679692E-1;6.218053102E-1;4.088068008E-1
3.131698346E1;-6.595410109E-1;-1.702468395E0;-2.354583740E-1
3.133502874E1;-6.061173677E-1;2.818341017E0;4.517669678E-1
3.135307171E1;1.459870934E-1;-3.017592430E-1;-2.570826530E0
3.137110370E1;-9.291769862E-1;-4.646791220E-1;3.154993057E-1
3.138913415E1;-1.487953663E-1;-2.755583763E0;-1.993635654E0
3.140717981E1;-1.062063456E0;1.116058946E0;9.573673248E0
3.142521777E1;-1.231205463E-2;1.521500230E0;-9.417529106E0
3.144325372E1;3.541154861E-1;-1.757753730E0;6.690470695E0
3.146129217E1;4.470711946E-2;6.920133829E-1;4.868664742E0
3.147932464E1;-8.223825693E-2;2.864965677E0;-7.091009617E0
3.149736944E1;-1.313513517E-2;-3.762051582E0;5.248732567E0
3.151540149E1;-3.622698188E-1;-1.454611063E0;-1.013383865E0
3.153342730E1;-5.029923916E-1;1.020878673E0;-9.956455231E-2
3.155146533E1;5.323906541E-1;-1.281812191E-1;-1.009308815E0
3.156951007E1;5.484393835E-1;-5.786067247E-1;1.324564934E0
3.158755029E1;1.044245958E0;1.584488153E-1;2.053625107E0
3.160558795E1;2.038961411E0;-1.954952955E0;-2.500998020E0
3.162362420E1;1.298669696E0;-7.303483486E-1;1.772552490E0
3.164166192E1;1.328784823E0;-1.188250661E0;-2.498528004E0
3.165969793E1;2.703352869E-1;-1.635495424E-1;1.873325348E0
3.167773584E1;6.220778227E-1;6.160953045E-1;-2.498836040E0
3.169577240E1;2.919496000E-1;5.643415451E-1;2.682647705E0
3.171380713E1;-4.391002059E-1;1.386423230E0;-1.996097088E0
3.173184906E1;-5.698659420E-1;3.025122881E-1;1.697113037E0
3.174988360E1;-3.582176566E-2;1.301212430E0;-1.435490608E0
3.176792035E1;5.422387123E-1;4.955801964E-1;-3.786355495E0
3.178594769E1;-1.012973547E0;-2.802268028E0;3.248898506E0
3.180399127E1;-1.096490860E0;1.022856832E0;2.297840118E0
3.182203485E1;9.266347885E-1;-1.383165836E0;-5.242665291E0
3.184006830E1;-1.043784618E0;-2.927553654E-1;4.941408157E0
3.185810626E1;-6.103086472E-2;-1.143350005E0;-2.070500374E0
3.187614221E1;4.616947770E-1;8.819180727E-1;3.769531250E-1
3.189417987E1;-4.983650744E-1;-1.312417150E0;-4.414262772E-1
3.191221631E1;-5.371695161E-1;-1.676228642E0;-2.065898895E0
3.193025421E1;-1.758519709E-1;-4.033757448E-1;4.061320305E0
3.194827356E1;-4.116111100E-1;2.597606182E0;-2.426975727E0
3.196633087E1;2.281640470E-1;-8.540935516E-1;4.874515533E-1
3.198436462E1;2.323711216E-1;1.200021148E0;2.026840210E0
3.200240240E1;1.202383280E0;-1.234760284E-1;-1.831674099E0
3.202043261E1;1.000265598E0;8.467062712E-1;1.529636383E0
3.203847308E1;9.037054181E-1;-2.382678986E-1;-2.289361954E-1
3.205651532E1;1.243592978E0;6.265666485E-1;-2.256627083E0
3.207454254E1;7.360656857E-1;-1.238813281E0;2.870316505E0
3.209258630E1;6.857194304E-1;1.390417814E-1;-8.611793518E-1
3.211062426E1;3.985791802E-1;4.604668617E-1;-6.148414612E-1
3.212866119E1;3.399202228E-1;-3.955281973E-1;1.723841667E0
3.214669787E1;-7.930940390E-1;-4.113626480E-2;-8.786935806E-1
3.216472235E1;-1.056310415E0;-2.444153547E0;9.528284073E-1
3.218277215E1;-1.932706833E0;-5.505363941E-1;-1.810672760E0
3.220080865E1;-1.442302942E0;-2.846769094E0;3.041688919E0
3.221884649E1;-1.048889399E0;-1.218957186E0;-4.004564285E-1
3.223688244E1;-8.544954658E-1;-9.408543110E-1;1.130744934E0
3.225491015E1;1.102415800E0;-2.294369221E0;4.130369186E0
3.227295263E1;1.144608378E0;3.557462454E0;-3.879286289E0
3.229099829E1;-2.356520176E0;-7.927142382E-1;-7.402684212E0
3.230901843E1;-6.715208292E-2;-4.547061443E0;8.933280945E0
3.232706811E1;-1.097943544E0;-9.631145000E-2;-4.421787262E-1
3.234510461E1;-2.379753113E0;-1.228116751E-1;-3.640387535E0
3.236314123E1;-6.020385027E-2;7.738730907E-1;3.271199226E0
3.238117956E1;-4.294431806E-1;-1.451595187E0;1.010722160E0
3.239921655E1;8.880648613E-1;1.779861331E0;-3.836668491E0
3.241725262E1;8.083450794E-2;-1.733882546E0;3.137166023E0
3.243529034E1;4.282629490E-1;-2.125471592E0;1.768332481E0
3.245331463E1;6.451582313E-1;-3.618512154E-1;-4.402354717E0
3.247136401E1;1.612232924E0;1.508186221E0;2.209801674E0
3.248939734E1;8.897690773E-1;6.013401747E-1;1.678301811E0
3.250743762E1;-1.659116745E-1;-1.089755297E-1;-5.744240761E0
3.252547888E1;-1.648114920E0;-1.444216013E0;5.040063858E0
3.254351214E1;-2.875630617E0;3.308484077E0;-4.373922348E-1
3.256154834E1;-1.322932363E0;-1.062613726E0;-3.542175293E-1
3.257958642E1;-7.496775985E-1;-1.053816319E0;2.063715935E0
3.259762689E1;9.318109155E-1;9.346555471E-1;-5.004568100E-1
3.261565985E1;-4.064322412E-1;-1.641370535E0;3.516928673E0
3.263368866E1;1.489162445E-1;1.417479277E0;-4.313137531E0
3.265173443E1;-3.209153712E-1;-2.146485329E0;1.889438629E0
3.266976990E1;2.344866395E-1;5.103118420E-1;-6.751699448E-1
3.268780328E1;1.012598515E0;-3.354971170E0;3.421121597E0
3.270584442E1;2.992844582E-2;3.018826485E0;-3.800067902E-1
3.272387103E1;-6.251448393E-1;-1.955907941E0;1.412049294E0
3.274191772E1;-5.935190320E-1;6.046430111E0;-8.612848282E0
3.275995654E1;-1.271776915E0;1.072337389E0;-5.406700611E0
3.277799231E1;8.087903857E-1;-4.604550600E-1;6.099818230E0
3.279603009E1;-3.541165590E-1;5.271669626E-1;-1.838555813E0
3.281406946E1;1.034936190E0;4.649404287E-1;-1.725169182E0
3.283210382E1;-1.483199120E0;-1.767470956E0;3.519478798E0
3.285014026E1;4.434388876E-2;2.037310123E0;-3.600934029E0
3.286817804E1;-4.061748385E-1;-6.186153889E-1;-2.766418457E-2
3.288621399E1;-9.145652652E-1;1.206299186E0;1.176459312E0
3.290425171E1;4.347381592E-1;-4.994067192E0;1.270433426E0
3.292228656E1;1.526079416E0;1.367989182E0;-1.686333656E0
3.294032769E1;1.615527272E-1;1.873708010E0;-2.861710072E0
3.295835339E1;1.360540271E0;-2.948325157E0;2.962403297E0
3.297639544E1;1.582698107E0;1.078320622E0;-1.961201668E0
3.299444043E1;1.587444544E0;1.182536483E0;-1.573408127E0
3.301247418E1;1.133949995E0;-3.090687275E0;3.263747215E0
3.303050970E1;2.034054756E0;1.880113363E0;-2.721107483E0
3.304854748E1;8.586581945E-1;-1.134851456E0;6.270141602E-1
3.306658423E1;1.478075504E0;2.804003239E0;-4.198160172E-1
3.308462207E1;1.964899302E-1;-1.065844655E0;-2.356963634E0
3.310265790E1;1.648261547E0;-3.841053247E-1;1.094560623E0
3.312069555E1;3.357635438E-1;-1.570294619E0;2.029256821E0
3.313873187E1;6.185630560E-1;-1.176960468E0;-1.944017410E-1
3.315676953E1;-4.483893514E-2;-1.288444161E0;-2.872476578E0
3.317480554E1;-1.097346544E-1;-3.072408438E-1;3.543502808E0
3.319284301E1;5.925076008E-1;-5.466035604E-1;-1.950070858E0
3.321087982E1;-8.595523834E-1;-2.687380314E0;2.145380020E0
3.322891760E1;-5.946700573E-1;-6.682866812E-1;5.048332214E-1
3.324695367E1;-1.772093058E0;-1.509946346E0;4.917631149E-1
3.326499115E1;-1.890470624E0;-1.489060163E0;-1.080994606E0
3.328301532E1;-1.463380098E0;2.832405806E0;1.954013824E0
3.330106628E1;-1.637875319E0;-1.712568998E0;-2.260283470E0
3.331910119E1;-4.664157033E-1;1.235641599E0;1.457735062E0
3.333713916E1;-1.325984478E0;2.414305210E-1;-3.075827599E0
3.335517541E1;-8.329347968E-1;-1.922725916E0;1.265176773E0
3.337321814E1;-2.032527924E-1;1.166745186E0;1.593545914E0
3.339124908E1;-4.378211498E-2;-3.813517094E-2;-1.325428009E0
3.340928692E1;1.879046559E-1;-4.490767717E-1;2.712658882E0
3.342731140E1;9.385420084E-1;-1.679159403E0;1.195423126E0
3.344535834E1;-5.497970581E-1;3.739560604E0;-2.301098824E0
3.346340014E1;-7.118738890E-1;-2.487104654E0;1.072587013E0
3.348143506E1;-6.947774291E-1;-9.917935133E-1;1.912577629E0
3.349947113E1;-1.277382731E0;2.791417599E0;-4.951445580E0
3.351749524E1;-1.473449469E-1;-2.745049953E0;1.101064682E-1
3.353554791E1;2.419130802E-1;2.746486664E-1;7.547236443E0
3.355358276E1;-8.247004151E-1;7.295030355E-1;-7.622343540E0
3.357161908E1;-3.735153079E-1;7.712907791E-1;3.709654808E0
3.358965674E1;-3.254499435E-1;3.547595739E-1;1.101064682E-1
3.360769275E1;-1.115140557E0;-1.612709880E0;4.532451630E-1
3.362573047E1;-2.969855070E-1;9.869698286E-1;3.343667984E-1
3.364376269E1;-7.366449833E-1;-2.385619164E0;1.522655487E-1
3.366180877E1;-1.107819319E0;7.203172445E-1;3.801221848E-1
3.367984045E1;-1.175806165E0;-2.512612820E0;1.140664101E0
3.369787842E1;-1.096961498E0;2.814049482E0;-1.143026352E0
3.371591504E1;-5.357092023E-1;-1.831553102E0;1.431650162E0
3.373395239E1;-1.877813339E-1;8.651610613E-1;1.979742050E-1
3.375198352E1;-1.470534801E-1;8.937776089E-1;-2.832409859E0
3.377002484E1;7.637460232E-1;-1.606161952E0;3.399861336E0
3.378806390E1;-4.296368361E-2;9.858452082E-1;-1.259183884E0
3.380610040E1;5.347802639E-1;-3.303406954E0;5.598945618E-1
3.382413641E1;9.421725869E-1;6.042826176E-2;1.690434456E0
3.384217407E1;6.041198969E-1;5.155527592E-2;-3.010971546E0
3.386021032E1;1.134722233E-1;-1.712238431E0;3.067986488E0
3.387824176E1;1.738923192E-1;7.306718826E-1;-4.824743271E-1
3.389628357E1;3.316493034E-1;-1.080185652E0;1.295452118E-1
3.391431872E1;-4.399277270E-1;1.205921173E0;-2.245203495E0
3.393236108E1;-1.024102211E0;7.685256004E-2;1.158986092E0
3.395039581E1;4.782080650E-4;2.976452112E-1;-9.307155609E-1
3.396843182E1;-5.332338810E-1;-1.805971861E-1;1.729722023E0
3.398647522E1;-1.234195352E0;1.849258184E0;-3.093988419E0
3.400450293E1;-2.173823714E-1;-2.888401031E0;2.500228882E0
3.402254687E1;-1.547459960E-1;1.520727873E0;1.135719299E0
3.404057953E1;-4.757098854E-1;-2.980996847E0;-3.665617943E0
3.405861737E1;-2.025008202E-2;5.423656702E-1;2.549052238E0
3.407665374E1;2.509463429E-1;-6.024941206E-1;-1.947852135E0
3.409469146E1;5.527108908E-2;1.370671511E0;8.693561554E-1
3.411272717E1;-3.508635163E-1;1.286509991E0;-1.396008492E0
3.413076489E1;3.892581463E-1;1.320159197E0;3.458099365E0
3.414880053E1;1.501376390E0;-2.098689556E0;-3.721761703E0
3.416684002E1;6.899382472E-1;7.021443844E-1;2.145497322E0
3.418487506E1;1.156861067E0;-1.716362119E0;-5.950393677E-1
3.420291290E1;8.604448438E-1;4.070125580E0;-8.415327072E-1
3.422094183E1;4.425638914E-2;-2.793595076E0;-2.574020863E0
3.423897076E1;3.438782692E-2;7.618749142E-1;4.387281418E0
3.425702740E1;-6.897279620E-1;2.958600521E-1;-5.512651443E0
3.427506030E1;-1.191075563E0;-1.109068632E0;3.834517479E0
3.429307983E1;1.046755910E-1;-9.520096779E-1;-1.739566326E0
3.431113592E1;-1.902980208E-1;-5.323458910E-1;2.164810181E0
3.432917059E1;-8.666964173E-1;-2.502618074E0;-2.802852631E0
3.434720813E1;-5.917838812E-1;-1.764315009E0;1.603592873E0
3.436524951E1;-1.866543055E0;-1.433798552E0;1.539926529E0
3.438328241E1;-2.464210987E0;-1.806472540E0;1.873664856E-1
3.440131830E1;-2.354187489E0;-1.314663053E0;4.463148117E-1
3.441935595E1;-3.949431777E-1;1.519675970E0;1.334569931E0
3.443739221E1;-1.115589499E0;5.348585844E-1;-9.038801193E-1
3.445541266E1;-1.338458657E0;1.330902576E-1;-1.625185966E0
3.447346270E1;-1.880970001E-1;-3.431326151E-1;5.154776573E0
3.449150665E1;-2.558790445E-1;6.946414709E-1;-2.170629501E0
3.450953998E1;-3.068643808E-1;-2.296503782E-1;3.150648117E0
3.452757446E1;4.915367365E-1;1.999039769E0;-2.583469868E0
3.454561358E1;1.049934626E-1;5.231821537E-2;7.324848175E-1
3.456365149E1;-3.285326958E-1;-8.157076240E-1;-2.760166168E0
3.458168786E1;-8.969104290E-1;-1.519607544E0;3.640497208E0
3.459972534E1;-5.582523346E-1;-8.170762062E-1;-4.625234604E-1
3.461776074E1;-4.142357707E-1;-2.258408070E-1;1.460001945E0
3.463579968E1;-4.911375046E-2;-2.401691675E-1;-1.647896767E0
3.465383331E1;-3.310768604E-1;3.912143230E0;-3.992921829E0
3.467187536E1;-3.122718096E0;-1.137489891E1;-2.727508545E-3
3.468990881E1;1.788720489E0;4.956730366E0;2.234154320E1
3.470794268E1;-2.157130241E-1;2.908297062E0;-2.200632858E1
3.472598791E1;1.972161531E-1;-1.695206165E-1;3.322906494E0
3.474402099E1;-2.758600712E0;-3.718412876E0;2.329564095E0
3.476205676E1;-2.089714527E0;3.155443668E0;-1.707759857E1
3.478009448E1;3.790691495E-1;-1.310544491E0;1.402585220E1
3.479813080E1;-6.323543787E-1;1.278138995E0;2.933820724E0
3.481616864E1;-1.246408939E0;-1.292104602E0;-7.059217453E0
3.483420446E1;7.715624571E-1;-2.060876846E0;9.270013809E0
3.485224218E1;4.009494781E-1;-7.293214321E0;-2.973211765E0
3.487027856E1;-8.196209073E-1;2.267585278E0;1.756287575E0
3.488830414E1;-4.085005522E-1;-4.117722511E0;5.015730858E0
3.490635217E1;7.997950315E-1;-6.358033419E-1;-6.771658897E0
3.492437793E1;3.465896249E-1;-1.470282197E0;2.666732788E0
3.494242505E1;3.190822601E-1;4.252948761E-1;2.843492508E0
3.496046508E1;2.956210613E0;2.081180811E-1;-3.040099144E0
3.497849957E1;-6.981916428E-1;1.214120388E-1;5.243434906E-1
3.499653735E1;-9.442469478E-2;4.856551170E0;-5.207395554E-1
3.501456195E1;9.277513623E-1;-2.662742138E0;-1.257219315E0
3.503261133E1;-1.513206065E-1;1.988462567E0;2.309994698E0
3.505064709E1;7.600302696E-1;-4.943417311E-1;-1.861734390E0
3.506868506E1;-2.613965869E-1;5.430980921E-1;1.741262436E0
3.508672137E1;6.335257292E-1;5.336861610E-1;-4.154938221E0
3.510475921E1;-7.744081020E-1;1.056771517E0;1.566622734E0
3.512279510E1;-1.353422403E-1;-2.268646717E0;-1.706836700E0
3.514083246E1;6.261496544E-1;-1.942137480E-1;5.389156342E0
3.515886883E1;-9.921398163E-1;1.403639913E0;-4.576904297E0
3.517690667E1;1.148273349E-1;-2.468653679E0;4.241125107E0
3.519494262E1;-1.740028560E-1;2.713687420E0;-6.984653473E-1
3.521298004E1;1.607627571E-1;-1.620331645E0;-1.994031906E0
3.523101715E1;-6.848971248E-1;4.096075296E-1;2.600268364E0
3.524904248E1;1.224704981E0;-3.317593336E-1;-4.545074940E0
3.526709045E1;1.055720806E0;-3.428577185E-1;-3.906373978E-1
3.528512786E1;7.008318901E-1;-8.010739684E-1;2.158679962E0
3.530316424E1;1.882019758E0;4.282426834E0;-3.197811127E0
3.532120196E1;1.256245613E0;-3.011283398E0;8.723440170E-1
3.533923767E1;-7.093694806E-2;2.265218258E0;8.173847198E-1
3.535727533E1;1.140113115E0;-3.954783678E-1;-3.211022377E0
3.537531195E1;1.227082253E0;-4.370385408E-1;2.240950584E0
3.539334936E1;-7.525448799E-1;-7.006785870E-1;-8.042278290E-1
3.541138122E1;1.120594382E0;-2.588522434E0;5.022592545E-1
3.542942675E1;9.037247300E-2;3.453965187E-1;2.804483414E0
3.544745617E1;5.014930964E-1;-1.848639011E0;-2.543452740E0
3.546549707E1;-3.198095858E-1;-9.151387811E-1;2.481803894E-1
3.548352087E1;-5.630388856E-2;-1.652754307E0;1.505016327E0
3.550156762E1;-8.015498519E-2;-1.371417046E-1;-2.211032867E0
3.551960980E1;-5.537443161E-1;1.286632061E0;2.188884735E0
3.553764477E1;3.042262495E-1;-6.255244613E-1;-1.903820038E-1
3.555568030E1;-3.620310724E-1;4.235889435E0;-2.574772358E0
3.557371374E1;-1.070423573E-1;-1.168512702E0;2.926177979E-1
3.559175879E1;6.642322540E-1;1.674636364E0;1.987269402E0
3.560979223E1;7.830334306E-1;3.038814068E-1;-3.200906277E0
3.562782776E1;3.249230683E-1;-9.694654346E-1;7.488937378E-1
3.564586279E1;9.461858869E-1;-7.691502571E-2;2.162556648E0
3.566390490E1;2.071936429E-1;-1.338984251E0;-7.803792953E-1
3.568193969E1;-4.837511182E-1;1.509087443E0;-2.158168793E0
3.569997577E1;1.824472547E-1;1.206719875E-2;1.997912407E0
3.571799749E1;3.348172307E-1;-1.216467857E0;9.072294235E-1
3.573604681E1;4.937612414E-1;2.081134319E-1;5.883131027E-1
3.575409033E1;7.077925801E-1;3.402400017E-1;-4.024247169E0
3.577212292E1;-3.876933455E-1;9.969116449E-1;2.284364700E0
3.579016058E1;4.511395097E-1;1.727221012E0;-4.289191723E0
3.580819720E1;-1.136251464E-1;-9.291515946E-1;2.756346703E0
3.582623492E1;3.983830810E-1;9.327781200E-1;8.074159622E-1
3.584427057E1;4.053397775E-1;4.516482353E-3;-7.982740402E-1
3.586229638E1;-1.122294515E-1;8.101193905E-1;-1.924324036E-2
3.588034454E1;-4.081840217E-1;-1.386732340E0;4.944057465E-1
3.589838214E1;4.447221756E-2;1.131571293E0;1.065490723E0
3.591641809E1;-8.206910640E-2;-3.085270405E0;-1.604321480E0
3.593445581E1;8.226872683E-1;-6.968849301E-1;3.658390045E0
3.595248895E1;6.329934597E-1;-3.724414349E0;-1.175722122E0
3.597052679E1;7.222127914E-1;-5.511879921E-2;2.888641357E-1
3.598856848E1;-9.763710499E-1;2.568160295E-1;-2.812767029E-1
3.600660333E1;4.323805571E-1;-3.497430086E-1;1.802961349E0
3.602463647E1;5.397490859E-1;-3.883328438E-1;-2.783411026E0
3.604268023E1;1.707316637E0;-6.826654077E-1;1.008777618E0
3.606071307E1;2.096473694E0;-1.378445387E0;1.259641647E0
3.607875067E1;1.618506670E0;5.189756155E-1;4.474611282E-1
3.609679120E1;7.617303133E-1;2.124170780E0;-4.244383812E0
3.611482489E1;-1.798417866E-1;-2.800966024E0;5.262690544E0
3.613286053E1;9.990671873E-1;3.636996508E0;6.236324310E-1
3.615089819E1;8.469680548E-1;1.122840643E-1;-3.623451233E0
3.616893512E1;1.533652186E0;3.307892084E-1;2.499160767E0
3.618696924E1;6.097582579E-1;2.789087296E-1;-5.331897736E-1
3.620500342E1;1.226581812E0;9.978793859E-1;-6.399898529E-1
3.622304956E1;-4.732506871E-1;-1.404221654E0;2.198753357E-1
3.624108331E1;1.642444283E-1;-8.561012745E-1;1.746711731E0
3.625911963E1;6.810329556E-1;5.468158722E-1;-3.936836243E0
3.627715564E1;2.567265630E-1;3.425956964E-1;2.715080261E0
3.629519311E1;8.319842070E-2;2.449786663E-2;4.974622726E-1
3.631322937E1;1.131115079E0;9.430712461E-1;-4.298415661E0
3.633126532E1;1.256972998E-1;-1.336186528E0;4.258465767E0
3.634930389E1;1.619201303E0;1.584663868E0;-2.533928394E0
3.636734173E1;6.481163502E-1;-6.779014468E-1;-4.194116592E-1
3.638537707E1;1.077037692E0;1.153190851E0;5.402708054E-1
3.640341461E1;1.001500249E0;-7.363013029E-1;3.098602295E-1
3.642144641E1;1.285088539E0;1.185259104E0;-2.248859406E-2
3.643948333E1;6.859730482E-1;8.677649498E-1;-3.182878494E-1
3.645752551E1;2.021432161E0;-2.557086945E0;-7.727823257E-1
3.647556201E1;4.001235664E-1;-2.045915604E0;5.709474564E0
3.649359808E1;1.398275733E0;2.274188757E0;-5.964389801E0
3.651163543E1;-1.275146902E-1;-2.710894585E0;3.054236412E0
3.652966882E1;8.079960346E-1;1.746936679E0;7.840347290E-2
3.654771240E1;1.630605757E-1;-1.894903183E0;-1.791648865E-1
3.656574548E1;8.336725831E-2;-6.489065886E-1;2.039313316E0
3.658377875E1;-5.275037289E-1;-1.628265619E0;-1.116813660E0
3.660182342E1;-8.778186440E-1;1.745002270E-1;5.064945221E-1
3.661985693E1;-1.052094460E0;2.340047359E-1;-2.299381256E0
3.663789270E1;-4.203574657E-1;-6.948627234E-1;3.231624603E0
3.665593011E1;-7.648327351E-1;2.927986145E0;-2.130888462E0
3.667396276E1;-5.416904688E-1;-7.716748118E-1;-1.687530041E0
3.669199701E1;5.645263195E-1;-9.692969918E-1;1.999738693E0
3.671003979E1;-3.317481875E-1;-2.093132973E0;-1.380319595E0
3.672807782E1;-8.142451048E-1;3.359401703E0;-1.658343315E0
3.674610229E1;-5.066698790E-2;-2.927735090E0;3.608103752E0
3.676415130E1;5.374531150E-1;2.035416126E0;8.174314499E-1
3.678218762E1;-4.720100760E-1;-4.896923304E-1;-6.303434849E0
3.680022503E1;-9.660649300E-2;8.863538504E-1;2.256216049E0
3.681824939E1;4.017502069E-2;-4.762042761E-1;8.680524826E-1
