"Time (s)","Acceleration x (m/s^2)","Acceleration y (m/s^2)","Acceleration z (m/s^2)"
4.864445300E-2,-2.696075439E-1,9.614135742E0,-7.039733887E0
5.367985400E-2,-2.807617188E-1,9.609680176E0,-7.052017212E0
5.871525400E-2,-2.812194824E-1,9.613082886E0,-7.061264038E0
6.375065400E-2,-2.577514648E-1,9.634078979E0,-7.063720703E0
6.878605500E-2,-2.507019043E-1,9.632156372E0,-7.066192627E0
7.382145500E-2,-2.671508789E-1,9.600219727E0,-7.056930542E0
7.885685600E-2,-2.751770020E-1,9.619125366E0,-7.047378540E0
8.389225600E-2,-2.695617676E-1,9.639678955E0,-7.058731079E0
8.892765600E-2,-2.639770508E-1,9.618789673E0,-7.083190918E0
9.396305700E-2,-2.663269043E-1,9.617523193E0,-7.074188232E0
9.899845700E-2,-2.803039551E-1,9.616943359E0,-7.016571045E0
1.040338580E-1,-2.866516113E-1,9.626419067E0,-7.026992798E0
1.090692580E-1,-2.670440674E-1,9.623809814E0,-7.059005737E0
1.141046580E-1,-2.791900635E-1,9.639328003E0,-7.060668945E0
1.191400590E-1,-2.854156494E-1,9.602447510E0,-7.056991577E0
1.241754590E-1,-2.810974121E-1,9.591262817E0,-7.073852539E0
1.292108590E-1,-2.711944580E-1,9.610290527E0,-7.098403931E0
1.342462600E-1,-2.305450439E-1,9.600173950E0,-7.086227417E0
1.392816600E-1,-2.269744873E-1,9.589111328E0,-7.079071045E0
1.443170610E-1,-2.515716553E-1,9.613739014E0,-7.067642212E0
1.493524610E-1,-2.638549805E-1,9.615631104E0,-7.046340942E0
1.543878610E-1,-2.763061523E-1,9.589935303E0,-7.054580688E0
1.594232620E-1,-2.756805420E-1,9.609893799E0,-7.065719604E0
1.644586620E-1,-2.800750732E-1,9.616653442E0,-7.023010254E0
1.694940630E-1,-2.815093994E-1,9.620635986E0,-7.006561279E0
1.745294630E-1,-2.850036621E-1,9.614685059E0,-7.028060913E0
1.795648630E-1,-2.651977539E-1,9.608596802E0,-7.046997070E0
1.846002640E-1,-2.585754395E-1,9.609512329E0,-7.057327271E0
1.896356640E-1,-2.791442871E-1,9.605560303E0,-7.033508301E0
1.946710650E-1,-2.734680176E-1,9.607955933E0,-7.054138184E0
1.997064650E-1,-2.636718750E-1,9.617248535E0,-7.061614990E0
2.047418650E-1,-2.535247803E-1,9.627426147E0,-7.017944336E0
2.097772660E-1,-2.526702881E-1,9.613494873E0,-7.014526367E0
2.148126660E-1,-2.660675049E-1,9.591873169E0,-7.027175903E0
2.198480660E-1,-2.890625000E-1,9.605285645E0,-7.019989014E0
2.248834670E-1,-2.887725830E-1,9.595275879E0,-7.002197266E0
2.299188670E-1,-2.681427002E-1,9.617050171E0,-7.020233154E0
2.349542680E-1,-2.658386230E-1,9.620666504E0,-7.033721924E0
2.399896680E-1,-2.739105225E-1,9.604492188E0,-7.015487671E0
2.450250680E-1,-2.675170898E-1,9.616928101E0,-7.035934448E0
2.500604690E-1,-2.806854248E-1,9.602630615E0,-7.038024902E0
2.550958690E-1,-2.739715576E-1,9.597595215E0,-7.031082153E0
2.601312700E-1,-2.771301270E-1,9.623641968E0,-6.996109009E0
2.651666700E-1,-2.884674072E-1,9.644653320E0,-7.034133911E0
2.702020700E-1,-2.637176514E-1,9.622299194E0,-7.064468384E0
2.752374710E-1,-2.697296143E-1,9.604141235E0,-7.039474487E0
2.802728710E-1,-2.610778809E-1,9.608337402E0,-7.028793335E0
2.853082720E-1,-2.773742676E-1,9.601516724E0,-7.003311157E0
2.903436720E-1,-2.801971436E-1,9.605346680E0,-7.026214600E0
2.953790720E-1,-2.815856934E-1,9.607299805E0,-6.999725342E0
3.004144730E-1,-2.702484131E-1,9.596481323E0,-6.993728638E0
3.054498730E-1,-2.544860840E-1,9.594009399E0,-7.039367676E0
3.104852740E-1,-2.675170898E-1,9.601531982E0,-7.048889160E0
3.155206740E-1,-2.811431885E-1,9.625061035E0,-7.058380127E0
3.205560740E-1,-2.731781006E-1,9.620483398E0,-7.038284302E0
3.255914750E-1,-2.676544189E-1,9.640899658E0,-7.049026489E0
3.306268750E-1,-2.938232422E-1,9.599456787E0,-7.036102295E0
3.356622750E-1,-2.811584473E-1,9.580993652E0,-6.979156494E0
3.406976760E-1,-2.723846436E-1,9.613067627E0,-7.022766113E0
3.457330760E-1,-2.772979736E-1,9.630569458E0,-7.019500732E0
3.507684770E-1,-3.010711670E-1,9.643829346E0,-7.036849976E0
3.558038770E-1,-2.573547363E-1,9.647064209E0,-7.060546875E0
3.608392770E-1,-2.863159180E-1,9.630203247E0,-7.025939941E0
3.658746780E-1,-2.942199707E-1,9.619979858E0,-6.996398926E0
3.709100780E-1,-2.721862793E-1,9.605102539E0,-6.997207642E0
3.759454790E-1,-2.361602783E-1,9.603759766E0,-7.035278320E0
3.809808790E-1,-2.931518555E-1,9.615875244E0,-7.034103394E0
3.860162790E-1,-2.683258057E-1,9.606735229E0,-7.049560547E0
3.910516800E-1,-3.092651367E-1,9.582489014E0,-7.013870239E0
3.960870800E-1,-2.842712402E-1,9.597549438E0,-6.972549438E0
4.011224810E-1,-2.705535889E-1,9.625930786E0,-7.025527954E0
4.061578810E-1,-2.532806396E-1,9.602111816E0,-6.933685303E0
4.111932810E-1,-3.113555908E-1,9.637710571E0,-6.986404419E0
4.162286820E-1,-3.115692139E-1,9.591461182E0,-7.039535522E0
4.212640820E-1,-2.748565674E-1,9.617828369E0,-6.994689941E0
4.262994830E-1,-2.611236572E-1,9.608718872E0,-6.982543945E0
4.313348830E-1,-3.017120361E-1,9.600326538E0,-7.017471313E0
4.363702830E-1,-2.715148926E-1,9.610031128E0,-7.016052246E0
4.414056840E-1,-2.521209717E-1,9.598556519E0,-7.049407959E0
4.464410840E-1,-2.718658447E-1,9.631439209E0,-7.025421143E0
4.514764840E-1,-2.698669434E-1,9.587570190E0,-7.000778198E0
4.565118850E-1,-2.716064453E-1,9.639389038E0,-7.022552490E0
4.615472850E-1,-2.827758789E-1,9.587692261E0,-7.020401001E0
4.665826860E-1,-3.035736084E-1,9.596023560E0,-7.055328369E0
4.716180860E-1,-2.607269287E-1,9.612609863E0,-7.033691406E0
4.766534860E-1,-2.798767090E-1,9.611495972E0,-7.025222778E0
4.816888870E-1,-2.926483154E-1,9.624938965E0,-7.047424316E0
4.867242870E-1,-2.750091553E-1,9.605117798E0,-7.012130737E0
4.917596880E-1,-2.718963623E-1,9.592742920E0,-7.021972656E0
4.967950880E-1,-2.602691650E-1,9.592315674E0,-6.957794189E0
5.018304880E-1,-2.854614258E-1,9.592315674E0,-7.039352417E0
5.068658890E-1,-2.487030029E-1,9.615676880E0,-7.029769897E0
5.119012890E-1,-2.973937988E-1,9.641983032E0,-7.027191162E0
5.169366900E-1,-2.956237793E-1,9.599716187E0,-7.003509521E0
5.219720900E-1,-2.956085205E-1,9.611358643E0,-7.012893677E0
5.270074900E-1,-2.859802246E-1,9.625503540E0,-7.019683838E0
5.320428910E-1,-2.667846680E-1,9.604507446E0,-6.963684082E0
5.370782910E-1,-2.461547852E-1,9.627838135E0,-7.027740479E0
5.421136910E-1,-2.742462158E-1,9.618438721E0,-7.058807373E0
5.471490920E-1,-2.764282227E-1,9.615966797E0,-7.085159302E0
5.521844920E-1,-2.727813721E-1,9.611694336E0,-7.038360596E0
5.572198930E-1,-2.957000732E-1,9.620300293E0,-7.078018188E0
5.622552930E-1,-2.510070801E-1,9.607528687E0,-7.003036499E0
5.672906930E-1,-2.636566162E-1,9.577102661E0,-7.046127319E0
5.723260940E-1,-2.515258789E-1,9.601043701E0,-7.007965088E0
5.773614940E-1,-2.998504639E-1,9.622726440E0,-7.011840820E0
5.823968950E-1,-2.919158936E-1,9.614410400E0,-7.088684082E0
5.874322950E-1,-2.757568359E-1,9.596115112E0,-7.080642700E0
5.924676950E-1,-2.698822021E-1,9.611999512E0,-7.046463013E0
5.975030960E-1,-2.910308838E-1,9.619186401E0,-7.090621948E0
6.025384960E-1,-2.297973633E-1,9.624145508E0,-7.031921387E0
6.075738970E-1,-2.575225830E-1,9.610565186E0,-6.982574463E0
6.126092970E-1,-2.630767822E-1,9.607543945E0,-7.078750610E0
6.176446970E-1,-3.017883301E-1,9.629425049E0,-7.031204224E0
6.226800980E-1,-2.783203125E-1,9.605636597E0,-6.999908447E0
6.277154980E-1,-2.761993408E-1,9.595443726E0,-7.038742065E0
6.327508990E-1,-2.867279053E-1,9.575408936E0,-7.038436890E0
6.377862990E-1,-2.776641846E-1,9.603637695E0,-7.052581787E0
6.428216990E-1,-2.780609131E-1,9.612976074E0,-7.072509766E0
6.478571000E-1,-2.542724609E-1,9.608581543E0,-7.070297241E0
6.528925000E-1,-2.832489014E-1,9.606185913E0,-7.111465454E0
6.579279000E-1,-2.753295898E-1,9.609680176E0,-7.061599731E0
6.629633010E-1,-2.962188721E-1,9.634719849E0,-7.031555176E0
6.679987010E-1,-2.670440674E-1,9.628723145E0,-7.057998657E0
6.730341020E-1,-2.670440674E-1,9.610885620E0,-6.997619629E0
6.780695020E-1,-2.650756836E-1,9.610946655E0,-7.008789062E0
6.831049020E-1,-2.544860840E-1,9.612899780E0,-7.024475098E0
6.881403030E-1,-2.510833740E-1,9.586044312E0,-7.010971069E0
6.931757030E-1,-2.794952393E-1,9.576629639E0,-7.018264771E0
6.982111040E-1,-2.840881348E-1,9.613143921E0,-6.990036011E0
7.032465040E-1,-3.000335693E-1,9.592636108E0,-7.017425537E0
7.082819040E-1,-3.026428223E-1,9.618255615E0,-6.996170044E0
7.133173050E-1,-2.563323975E-1,9.644683838E0,-7.005157471E0
7.183527050E-1,-2.876892090E-1,9.627777100E0,-7.020874023E0
7.233881060E-1,-2.721557617E-1,9.595703125E0,-7.042236328E0
7.284235060E-1,-2.868499756E-1,9.585174561E0,-7.034881592E0
7.334589060E-1,-2.746887207E-1,9.595687866E0,-7.076660156E0
7.384943070E-1,-2.789306641E-1,9.625976562E0,-7.062881470E0
7.435297070E-1,-2.600250244E-1,9.627197266E0,-7.062179565E0
7.485651080E-1,-2.831878662E-1,9.615158081E0,-7.046981812E0
7.536005080E-1,-3.171539307E-1,9.620666504E0,-7.033401489E0
7.586359080E-1,-3.078002930E-1,9.616012573E0,-7.057754517E0
7.636713090E-1,-2.556762695E-1,9.594696045E0,-7.026062012E0
7.687067090E-1,-2.693634033E-1,9.599304199E0,-7.030609131E0
7.737421090E-1,-2.828216553E-1,9.605056763E0,-7.001907349E0
7.787775100E-1,-3.051605225E-1,9.602661133E0,-6.985153198E0
7.838129100E-1,-3.000335693E-1,9.599105835E0,-7.010848999E0
7.888483110E-1,-2.577514648E-1,9.578323364E0,-7.034927368E0
7.938837110E-1,-2.432098389E-1,9.597396851E0,-7.031402588E0
7.989191110E-1,-2.637939453E-1,9.605712891E0,-7.052139282E0
8.039545120E-1,-2.791137695E-1,9.595352173E0,-7.063262939E0
8.089899120E-1,-3.030242920E-1,9.605606079E0,-7.032135010E0
8.140253130E-1,-3.029327393E-1,9.633346558E0,-7.030258179E0
8.190607130E-1,-3.090820312E-1,9.610427856E0,-7.046966553E0
8.240961130E-1,-2.928314209E-1,9.628784180E0,-7.027664185E0
8.291315140E-1,-2.765502930E-1,9.640762329E0,-7.028625488E0
8.341669140E-1,-2.752685547E-1,9.601089478E0,-7.035278320E0
8.392023150E-1,-2.906188965E-1,9.608444214E0,-7.027801514E0
8.442377150E-1,-2.843475342E-1,9.611633301E0,-7.042312622E0
8.492731150E-1,-2.551727295E-1,9.579330444E0,-7.060226440E0
8.543085160E-1,-2.539215088E-1,9.596038818E0,-7.038452148E0
8.593439160E-1,-2.816314697E-1,9.593627930E0,-7.042770386E0
8.643793160E-1,-2.879028320E-1,9.592315674E0,-7.022354126E0
8.694147170E-1,-2.823028564E-1,9.609466553E0,-7.011474609E0
8.744501170E-1,-2.770385742E-1,9.625976562E0,-7.065780640E0
8.794855180E-1,-2.650604248E-1,9.608581543E0,-7.103775024E0
8.845209180E-1,-2.687683105E-1,9.603744507E0,-7.080352783E0
8.895563180E-1,-2.632598877E-1,9.610290527E0,-7.047973633E0
8.945917190E-1,-2.682647705E-1,9.607757568E0,-7.023803711E0
8.996271190E-1,-2.835083008E-1,9.604263306E0,-7.018798828E0
9.046625200E-1,-2.777557373E-1,9.624450684E0,-6.998611450E0
9.096979200E-1,-2.527465820E-1,9.632568359E0,-7.004913330E0
9.147333200E-1,-2.589721680E-1,9.591583252E0,-7.040435791E0
9.197687210E-1,-2.670440674E-1,9.580993652E0,-7.036224365E0
9.248041210E-1,-2.783508301E-1,9.584777832E0,-7.015869141E0
9.298395220E-1,-2.986450195E-1,9.594543457E0,-7.018447876E0
9.348749220E-1,-3.113861084E-1,9.610260010E0,-6.988204956E0
9.399103220E-1,-2.963714600E-1,9.594375610E0,-7.023910522E0
9.449457230E-1,-2.813262939E-1,9.598892212E0,-7.066070557E0
9.499811230E-1,-2.893981934E-1,9.627166748E0,-7.034545898E0
9.550165240E-1,-2.942504883E-1,9.630706787E0,-7.033676147E0
9.600519240E-1,-2.601470947E-1,9.639419556E0,-7.032806396E0
9.650873240E-1,-2.597961426E-1,9.617385864E0,-7.052658081E0
9.701227250E-1,-2.667236328E-1,9.582015991E0,-7.048461914E0
9.751581250E-1,-2.727966309E-1,9.589004517E0,-7.051971436E0
9.801935250E-1,-2.914886475E-1,9.602355957E0,-7.052185059E0
9.852289260E-1,-3.185272217E-1,9.605682373E0,-7.024780273E0
9.902643260E-1,-2.883911133E-1,9.597702026E0,-7.005477905E0
9.952997270E-1,-2.652740479E-1,9.598281860E0,-7.039855957E0
1.000335127E0,-2.866821289E-1,9.630508423E0,-7.026641846E0
1.005370527E0,-2.720947266E-1,9.633346558E0,-7.039276123E0
1.010405928E0,-2.836914062E-1,9.607177734E0,-7.055038452E0
1.015441328E0,-2.886810303E-1,9.573776245E0,-7.011413574E0
1.020476729E0,-2.868652344E-1,9.588180542E0,-7.055328369E0
1.025512129E0,-2.884674072E-1,9.625625610E0,-7.054153442E0
1.030547529E0,-2.964630127E-1,9.592834473E0,-7.057449341E0
1.035582930E0,-2.665405273E-1,9.586990356E0,-7.069244385E0
1.040618330E0,-2.763977051E-1,9.610946655E0,-6.995239258E0
1.045653731E0,-2.917480469E-1,9.638168335E0,-7.026123047E0
1.050689131E0,-2.816467285E-1,9.625549316E0,-7.107025146E0
1.055724531E0,-2.782440186E-1,9.587738037E0,-7.092803955E0
1.060759932E0,-2.772674561E-1,9.579010010E0,-7.048538208E0
1.065795332E0,-3.022003174E-1,9.580413818E0,-7.012771606E0
1.070830733E0,-2.777404785E-1,9.601135254E0,-7.027542114E0
1.075866133E0,-2.786102295E-1,9.605484009E0,-7.038436890E0
1.080901533E0,-2.731781006E-1,9.590164185E0,-7.037307739E0
1.085936934E0,-2.676544189E-1,9.579849243E0,-7.068557739E0
1.090972334E0,-2.581176758E-1,9.578033447E0,-7.052764893E0
1.096007734E0,-2.749481201E-1,9.597824097E0,-7.033035278E0
1.101043135E0,-2.813262939E-1,9.609649658E0,-7.013214111E0
1.106078535E0,-2.447509766E-1,9.585754395E0,-7.031906128E0
1.111113936E0,-2.687530518E-1,9.581710815E0,-7.046447754E0
1.116149336E0,-2.696685791E-1,9.595794678E0,-7.000289917E0
1.121184736E0,-2.558135986E-1,9.576980591E0,-6.994186401E0
1.126220137E0,-3.002319336E-1,9.618347168E0,-7.030395508E0
1.131255537E0,-2.662963867E-1,9.597824097E0,-7.006500244E0
1.136290938E0,-2.995452881E-1,9.587997437E0,-6.983154297E0
1.141326338E0,-2.573852539E-1,9.618667603E0,-7.035964966E0
1.146361738E0,-2.691345215E-1,9.574691772E0,-7.027038574E0
1.151397139E0,-2.880096436E-1,9.579528809E0,-7.042144775E0
1.156432539E0,-2.888641357E-1,9.592727661E0,-7.060134888E0
1.161467940E0,-2.664489746E-1,9.624740601E0,-7.046844482E0
1.166503340E0,-2.985992432E-1,9.598114014E0,-7.015579224E0
1.171538740E0,-2.629852295E-1,9.582275391E0,-7.024551392E0
1.176574141E0,-2.837371826E-1,9.641677856E0,-7.016952515E0
1.181609541E0,-2.575531006E-1,9.618835449E0,-7.031753540E0
1.186644941E0,-3.007965088E-1,9.599121094E0,-7.084426880E0
1.191680342E0,-2.675323486E-1,9.565505981E0,-7.057769775E0
1.196715742E0,-2.538146973E-1,9.601623535E0,-7.034286499E0
1.201751143E0,-2.847747803E-1,9.619384766E0,-7.055404663E0
1.206786543E0,-2.798767090E-1,9.590805054E0,-6.987228394E0
1.211821943E0,-3.070678711E-1,9.617828369E0,-7.014160156E0
1.216857344E0,-2.685394287E-1,9.590393066E0,-7.080780029E0
1.221892744E0,-2.887725830E-1,9.580978394E0,-7.064758301E0
1.226928145E0,-2.798309326E-1,9.624526978E0,-7.023162842E0
1.231963545E0,-3.079986572E-1,9.596740723E0,-7.058013916E0
1.236998945E0,-2.806549072E-1,9.614929199E0,-7.096496582E0
1.242034346E0,-2.880096436E-1,9.609313965E0,-7.041976929E0
1.247069746E0,-2.839202881E-1,9.602127075E0,-7.036788940E0
1.252105147E0,-3.181152344E-1,9.615585327E0,-7.057327271E0
1.257140547E0,-2.501831055E-1,9.641494751E0,-7.051193237E0
1.262175947E0,-2.874908447E-1,9.656234741E0,-7.039367676E0
1.267211348E0,-2.861328125E-1,9.593490601E0,-7.062438965E0
1.272246748E0,-3.072509766E-1,9.608764648E0,-7.011138916E0
1.277282149E0,-2.979888916E-1,9.587554932E0,-6.981948853E0
1.282317549E0,-3.050384521E-1,9.613739014E0,-7.001312256E0
1.287352949E0,-2.886505127E-1,9.616226196E0,-7.055709839E0
1.292388350E0,-3.024139404E-1,9.625595093E0,-7.052825928E0
1.297423750E0,-2.835998535E-1,9.623718262E0,-7.024902344E0
1.302459150E0,-2.783050537E-1,9.641708374E0,-7.030349731E0
1.307494551E0,-2.580566406E-1,9.621505737E0,-7.054428101E0
1.312529951E0,-2.726287842E-1,9.576965332E0,-7.022872925E0
1.317565352E0,-2.896881104E-1,9.606475830E0,-7.082946777E0
1.322600752E0,-2.693786621E-1,9.605087280E0,-7.014572144E0
1.327636152E0,-3.043365479E-1,9.617538452E0,-7.077316284E0
1.332671553E0,-2.928924561E-1,9.601776123E0,-7.075531006E0
1.337706953E0,-2.913055420E-1,9.571823120E0,-7.022903442E0
1.342742354E0,-3.221435547E-1,9.586441040E0,-7.001800537E0
1.347777754E0,-2.971038818E-1,9.619094849E0,-7.011154175E0
1.352813154E0,-2.658386230E-1,9.560028076E0,-7.016479492E0
1.357848555E0,-2.765655518E-1,9.613479614E0,-7.011169434E0
1.362883955E0,-2.736968994E-1,9.611083984E0,-7.054977417E0
1.367919356E0,-2.528686523E-1,9.614212036E0,-7.027618408E0
1.372954756E0,-2.726898193E-1,9.651580811E0,-7.023620605E0
1.377990156E0,-2.820129395E-1,9.629714966E0,-7.090530396E0
1.383025557E0,-2.980804443E-1,9.605300903E0,-7.018356323E0
1.388060957E0,-2.711791992E-1,9.584869385E0,-7.006042480E0
1.393096358E0,-2.816925049E-1,9.600341797E0,-6.994201660E0
1.398131758E0,-2.852172852E-1,9.610946655E0,-6.998107910E0
1.403167158E0,-2.877502441E-1,9.573623657E0,-7.013214111E0
1.408202559E0,-2.696685791E-1,9.587554932E0,-7.028915405E0
1.413237959E0,-3.060913086E-1,9.585861206E0,-6.985031128E0
1.418273359E0,-2.590942383E-1,9.581085205E0,-7.014007568E0
1.423308760E0,-2.807464600E-1,9.596084595E0,-7.031875610E0
1.428344160E0,-3.023376465E-1,9.605209351E0,-7.046752930E0
1.433379561E0,-3.097686768E-1,9.613418579E0,-7.055435181E0
1.438414961E0,-2.726287842E-1,9.597824097E0,-7.023574829E0
1.443450361E0,-2.777862549E-1,9.612197876E0,-7.054977417E0
1.448485762E0,-3.085937500E-1,9.617736816E0,-7.009429932E0
1.453521162E0,-2.828216553E-1,9.598876953E0,-7.023895264E0
1.458556563E0,-2.704772949E-1,9.591842651E0,-7.008651733E0
1.463591963E0,-2.866821289E-1,9.580413818E0,-7.018844604E0
1.468627363E0,-2.782897949E-1,9.597122192E0,-7.007171631E0
1.473662764E0,-2.638854980E-1,9.596817017E0,-6.985717773E0
1.478698164E0,-2.566528320E-1,9.584899902E0,-7.040481567E0
1.483733565E0,-2.931671143E-1,9.610687256E0,-7.014450073E0
1.488768965E0,-3.125915527E-1,9.606918335E0,-7.033660889E0
1.493804365E0,-2.885589600E-1,9.608062744E0,-7.051574707E0
1.498839766E0,-2.955017090E-1,9.619766235E0,-7.027511597E0
1.503875166E0,-2.858428955E-1,9.599975586E0,-7.005218506E0
1.508910566E0,-2.893981934E-1,9.595031738E0,-7.034835815E0
1.513945967E0,-2.883300781E-1,9.626052856E0,-7.048904419E0
1.518981367E0,-2.963104248E-1,9.586700439E0,-7.056030273E0
1.524016768E0,-2.933502197E-1,9.606384277E0,-7.052368164E0
1.529052168E0,-2.709960938E-1,9.635925293E0,-7.061950684E0
1.534087568E0,-2.589874268E-1,9.619888306E0,-7.010330200E0
1.539122969E0,-2.587585449E-1,9.613311768E0,-7.015258789E0
1.544158369E0,-2.932586670E-1,9.627029419E0,-7.037506104E0
1.549193770E0,-3.031463623E-1,9.609741211E0,-7.018875122E0
1.554229170E0,-2.776794434E-1,9.590805054E0,-7.001678467E0
1.559264570E0,-2.881622314E-1,9.602996826E0,-6.978317261E0
1.564299971E0,-3.056793213E-1,9.621780396E0,-7.004486084E0
1.569335371E0,-3.097229004E-1,9.603744507E0,-6.989776611E0
1.574370772E0,-3.059539795E-1,9.577041626E0,-7.018951416E0
1.579406172E0,-3.126525879E-1,9.589492798E0,-7.055358887E0
1.584441572E0,-2.913970947E-1,9.587783813E0,-7.054260254E0
1.589476973E0,-3.005523682E-1,9.590621948E0,-7.041336060E0
1.594512373E0,-3.015136719E-1,9.619491577E0,-7.075775146E0
1.599547774E0,-2.769775391E-1,9.613754272E0,-7.050735474E0
1.604583174E0,-2.769165039E-1,9.618728638E0,-7.041183472E0
1.609618574E0,-2.850036621E-1,9.617401123E0,-7.074783325E0
1.614653975E0,-2.674255371E-1,9.595535278E0,-7.068328857E0
1.619689375E0,-2.776641846E-1,9.605987549E0,-7.047424316E0
1.624724775E0,-2.679290771E-1,9.586151123E0,-7.037445068E0
1.629760176E0,-2.551422119E-1,9.581039429E0,-7.027069092E0
1.634795576E0,-2.732696533E-1,9.601165771E0,-7.014923096E0
1.639830977E0,-2.875061035E-1,9.602539062E0,-7.007507324E0
1.644866377E0,-2.650756836E-1,9.612625122E0,-7.028625488E0
1.649901777E0,-2.645721436E-1,9.625534058E0,-7.033325195E0
1.654937178E0,-2.765197754E-1,9.624221802E0,-7.058837891E0
1.659972578E0,-2.742309570E-1,9.599319458E0,-7.055816650E0
1.665007979E0,-2.814788818E-1,9.592315674E0,-7.017074585E0
1.670043379E0,-2.898406982E-1,9.614776611E0,-7.031692505E0
1.675078779E0,-2.793426514E-1,9.647781372E0,-7.039794922E0
1.680114180E0,-2.657775879E-1,9.628311157E0,-7.033096313E0
1.685149580E0,-2.917938232E-1,9.617324829E0,-7.044769287E0
1.690184981E0,-3.068237305E-1,9.626480103E0,-7.037597656E0
1.695220381E0,-3.083038330E-1,9.614013672E0,-7.010238647E0
1.700255781E0,-3.025665283E-1,9.621368408E0,-7.033645630E0
1.705291182E0,-2.891387939E-1,9.620498657E0,-7.027435303E0
1.710326582E0,-2.888488770E-1,9.614105225E0,-7.046737671E0
1.715361983E0,-2.866821289E-1,9.613327026E0,-7.041336060E0
1.720397383E0,-2.837066650E-1,9.608535767E0,-6.993713379E0
1.725432783E0,-2.993621826E-1,9.622238159E0,-7.001358032E0
1.730468184E0,-2.840270996E-1,9.593978882E0,-7.026275635E0
1.735503584E0,-2.670440674E-1,9.586029053E0,-7.015869141E0
1.740538984E0,-2.522430420E-1,9.619277954E0,-7.022033691E0
1.745574385E0,-2.641754150E-1,9.638748169E0,-7.016983032E0
1.750609785E0,-2.931823730E-1,9.604553223E0,-7.020202637E0
1.755645186E0,-2.966613770E-1,9.588882446E0,-7.002777100E0
1.760680586E0,-2.947692871E-1,9.606155396E0,-7.002929688E0
1.765715986E0,-2.707672119E-1,9.596649170E0,-7.022933960E0
1.770751387E0,-2.763366699E-1,9.603225708E0,-7.070297241E0
1.775786787E0,-2.876739502E-1,9.619262695E0,-7.070877075E0
1.780822188E0,-2.458801270E-1,9.598022461E0,-7.082580566E0
1.785857588E0,-2.403259277E-1,9.593231201E0,-7.077697754E0
1.790892988E0,-2.775268555E-1,9.597076416E0,-7.019165039E0
1.795928389E0,-2.643737793E-1,9.615264893E0,-6.991256714E0
1.800963789E0,-2.978363037E-1,9.604888916E0,-7.055847168E0
1.805999190E0,-2.715759277E-1,9.607177734E0,-7.094406128E0
1.811034590E0,-2.629547119E-1,9.596069336E0,-7.056121826E0
1.816069990E0,-2.773895264E-1,9.600265503E0,-7.039077759E0
1.821105391E0,-2.691345215E-1,9.612915039E0,-7.061706543E0
1.826140791E0,-2.822265625E-1,9.603820801E0,-7.005035400E0
1.831176191E0,-2.831573486E-1,9.631317139E0,-7.008499146E0
1.836211592E0,-2.706146240E-1,9.610168457E0,-7.055145264E0
1.841246992E0,-2.580566406E-1,9.594055176E0,-7.019042969E0
1.846282393E0,-2.587738037E-1,9.583236694E0,-7.037841797E0
1.851317793E0,-2.727050781E-1,9.627960205E0,-7.039443970E0
1.856353193E0,-2.986907959E-1,9.610961914E0,-6.999816895E0
1.861388594E0,-2.509307861E-1,9.585006714E0,-7.030212402E0
1.866423994E0,-2.681884766E-1,9.586059570E0,-7.028244019E0
1.871459395E0,-2.917785645E-1,9.598953247E0,-7.011474609E0
1.876494795E0,-2.726287842E-1,9.599914551E0,-7.023452759E0
1.881530195E0,-2.844238281E-1,9.597518921E0,-7.038757324E0
1.886565596E0,-3.118133545E-1,9.595123291E0,-7.027832031E0
1.891600996E0,-2.739257812E-1,9.608398438E0,-7.062011719E0
1.896636397E0,-2.448120117E-1,9.575607300E0,-7.056106567E0
1.901671797E0,-2.588958740E-1,9.590530396E0,-7.081390381E0
1.906707197E0,-2.379302979E-1,9.578445435E0,-7.044052124E0
1.911742598E0,-2.828369141E-1,9.598159790E0,-7.005996704E0
1.916777998E0,-2.578735352E-1,9.636871338E0,-7.029846191E0
1.921813399E0,-2.963562012E-1,9.621536255E0,-7.005249023E0
1.926848799E0,-2.734985352E-1,9.601776123E0,-7.053237915E0
1.931884199E0,-2.610168457E-1,9.643646240E0,-7.054183960E0
1.936919600E0,-2.874603271E-1,9.613418579E0,-7.038513184E0
1.941955000E0,-2.567138672E-1,9.602569580E0,-7.062286377E0
1.946990400E0,-2.635040283E-1,9.606124878E0,-7.007247925E0
1.952025801E0,-2.167968750E-1,9.595703125E0,-7.033630371E0
1.957061201E0,-2.733001709E-1,9.631713867E0,-7.091156006E0
1.962096602E0,-2.679290771E-1,9.610900879E0,-7.041076660E0
1.967132002E0,-2.670440674E-1,9.613388062E0,-7.021240234E0
1.972167402E0,-2.937011719E-1,9.589309692E0,-6.980056763E0
1.977202803E0,-2.397308350E-1,9.641189575E0,-7.026351929E0
1.982238203E0,-2.968444824E-1,9.604187012E0,-7.016052246E0
1.987273604E0,-2.573547363E-1,9.642593384E0,-7.035644531E0
1.992309004E0,-2.665405273E-1,9.596817017E0,-6.997955322E0
1.997344404E0,-2.739715576E-1,9.620071411E0,-7.021606445E0
2.002379805E0,-2.811584473E-1,9.595321655E0,-7.003829956E0
2.007415205E0,-2.696533203E-1,9.594696045E0,-7.038421631E0
2.012450606E0,-2.459259033E-1,9.622909546E0,-7.003799438E0
2.017486006E0,-2.669219971E-1,9.578308105E0,-7.086166382E0
2.022521406E0,-2.670440674E-1,9.592315674E0,-7.077163696E0
2.027556807E0,-2.622680664E-1,9.585174561E0,-7.024902344E0
2.032592207E0,-2.572937012E-1,9.585403442E0,-7.043838501E0
2.037627608E0,-2.389221191E-1,9.604171753E0,-7.043487549E0
2.042663008E0,-2.628784180E-1,9.602523804E0,-7.023620605E0
2.047698408E0,-2.841796875E-1,9.629699707E0,-6.979095459E0
2.052733809E0,-2.356567383E-1,9.610839844E0,-7.029037476E0
2.057769209E0,-2.779083252E-1,9.598632812E0,-7.017532349E0
2.062804609E0,-2.587127686E-1,9.583175659E0,-7.015914917E0
2.067840010E0,-2.783660889E-1,9.591674805E0,-7.029052734E0
2.072875410E0,-2.697448730E-1,9.615783691E0,-7.060348511E0
2.077910811E0,-2.759399414E-1,9.582550049E0,-7.090225220E0
2.082946211E0,-2.976226807E-1,9.640472412E0,-7.071792603E0
2.087981611E0,-2.932281494E-1,9.642974854E0,-7.035446167E0
2.093017012E0,-2.913818359E-1,9.593002319E0,-7.017242432E0
2.098052412E0,-2.769012451E-1,9.598464966E0,-6.994171143E0
2.103087813E0,-2.969818115E-1,9.592010498E0,-7.022094727E0
2.108123213E0,-2.683258057E-1,9.611724854E0,-7.055633545E0
2.113158613E0,-2.616577148E-1,9.626968384E0,-7.036987305E0
2.118194014E0,-2.705383301E-1,9.587295532E0,-7.038772583E0
2.123229414E0,-2.481842041E-1,9.601516724E0,-7.036056519E0
2.128264815E0,-2.700500488E-1,9.600799561E0,-7.028900146E0
2.133300215E0,-2.955017090E-1,9.606796265E0,-7.010513306E0
2.138335615E0,-2.581634521E-1,9.593551636E0,-7.007492065E0
2.143371016E0,-2.777252197E-1,9.593429565E0,-6.994598389E0
2.148406416E0,-2.874908447E-1,9.619186401E0,-7.014968872E0
2.153441816E0,-2.539062500E-1,9.601135254E0,-7.033325195E0
2.158477217E0,-2.826385498E-1,9.602874756E0,-7.018524170E0
2.163512617E0,-2.785797119E-1,9.586441040E0,-7.040405273E0
2.168548018E0,-2.486419678E-1,9.631851196E0,-7.090225220E0
2.173583418E0,-2.941131592E-1,9.621749878E0,-6.990676880E0
2.178618818E0,-2.663879395E-1,9.605194092E0,-7.041793823E0
2.183654219E0,-2.614135742E-1,9.623138428E0,-7.032745361E0
2.188689619E0,-2.901611328E-1,9.591690063E0,-7.023941040E0
2.193725020E0,-2.984924316E-1,9.629837036E0,-7.008468628E0
2.198760420E0,-2.544708252E-1,9.622924805E0,-7.003463745E0
2.203795820E0,-2.633972168E-1,9.614715576E0,-7.042434692E0
2.208831221E0,-2.753753662E-1,9.626235962E0,-7.058120728E0
2.213866621E0,-2.728576660E-1,9.594924927E0,-7.033813477E0
2.218902022E0,-2.564086914E-1,9.627014160E0,-7.022979736E0
2.223937422E0,-2.657470703E-1,9.620651245E0,-6.967224121E0
2.228972822E0,-2.741088867E-1,9.580245972E0,-6.999343872E0
2.234008223E0,-2.694702148E-1,9.597076416E0,-7.024795532E0
2.239043623E0,-2.842407227E-1,9.597122192E0,-7.031814575E0
2.244079024E0,-2.444000244E-1,9.574188232E0,-7.030700684E0
2.249114424E0,-2.694244385E-1,9.594085693E0,-7.037597656E0
2.254149824E0,-2.635040283E-1,9.608230591E0,-7.014724731E0
2.259185225E0,-2.654876709E-1,9.594512939E0,-7.059509277E0
2.264220625E0,-2.803039551E-1,9.581588745E0,-7.046859741E0
2.269256025E0,-2.612762451E-1,9.606613159E0,-7.031585693E0
2.274291426E0,-2.932128906E-1,9.599441528E0,-7.066711426E0
2.279326826E0,-2.959136963E-1,9.599563599E0,-7.019973755E0
2.284362227E0,-3.028717041E-1,9.608978271E0,-7.015274048E0
2.289397627E0,-2.743377686E-1,9.612335205E0,-7.022842407E0
2.294433027E0,-2.910156250E-1,9.614181519E0,-7.037551880E0
2.299468428E0,-3.025360107E-1,9.613677979E0,-7.040847778E0
2.304503828E0,-2.807006836E-1,9.610336304E0,-7.021331787E0
2.309539229E0,-2.809600830E-1,9.582427979E0,-7.000778198E0
2.314574629E0,-2.946929932E-1,9.579879761E0,-7.034606934E0
2.319610029E0,-2.847442627E-1,9.588439941E0,-7.051864624E0
2.324645430E0,-2.746887207E-1,9.598022461E0,-7.070068359E0
2.329680830E0,-2.789459229E-1,9.608200073E0,-7.072631836E0
2.334716231E0,-2.651367188E-1,9.597183228E0,-7.048828125E0
2.339751631E0,-2.566375732E-1,9.568756104E0,-7.030059814E0
2.344787031E0,-2.758789062E-1,9.584793091E0,-7.025772095E0
2.349822432E0,-2.937011719E-1,9.612533569E0,-7.024322510E0
2.354857832E0,-3.109436035E-1,9.613967896E0,-7.007080078E0
2.359893233E0,-2.941589355E-1,9.604858398E0,-7.027069092E0
2.364928633E0,-2.729034424E-1,9.636322021E0,-7.028320312E0
2.369964033E0,-2.730865479E-1,9.639602661E0,-7.018585205E0
2.374999434E0,-2.944488525E-1,9.616577148E0,-7.019943237E0
2.380034834E0,-3.148345947E-1,9.604293823E0,-7.021453857E0
2.385070234E0,-3.145446777E-1,9.612274170E0,-7.039306641E0
2.390105635E0,-3.159332275E-1,9.625579834E0,-7.028381348E0
2.395141035E0,-2.899475098E-1,9.619781494E0,-7.044799805E0
2.400176436E0,-2.815093994E-1,9.601715088E0,-7.049621582E0
2.405211836E0,-2.809906006E-1,9.595962524E0,-7.042785645E0
2.410247236E0,-2.892608643E-1,9.598220825E0,-7.054763794E0
2.415282637E0,-3.136596680E-1,9.583251953E0,-7.035369873E0
2.420318037E0,-3.068237305E-1,9.579818726E0,-7.000106812E0
2.425353438E0,-3.070373535E-1,9.605636597E0,-7.022674561E0
2.430388838E0,-3.081207275E-1,9.597366333E0,-7.045745850E0
2.435424238E0,-3.106842041E-1,9.597839355E0,-7.050689697E0
2.440459639E0,-2.851867676E-1,9.648239136E0,-7.032897949E0
2.445495039E0,-2.679290771E-1,9.631561279E0,-7.024902344E0
2.450530440E0,-2.660980225E-1,9.617309570E0,-7.049163818E0
2.455565840E0,-2.612762451E-1,9.628677368E0,-7.065948486E0
2.460601240E0,-2.511901855E-1,9.604827881E0,-7.065856934E0
2.465636641E0,-2.868957520E-1,9.608230591E0,-7.053024292E0
2.470672041E0,-2.857513428E-1,9.626556396E0,-7.031982422E0
2.475707441E0,-2.819213867E-1,9.604522705E0,-7.026718140E0
2.480742842E0,-2.946929932E-1,9.607864380E0,-7.026641846E0
2.485778242E0,-2.970886230E-1,9.609146118E0,-7.061431885E0
2.490813643E0,-2.713470459E-1,9.609237671E0,-7.051727295E0
2.495849043E0,-2.835540771E-1,9.615219116E0,-7.051361084E0
2.500884443E0,-2.943420410E-1,9.608566284E0,-7.056838989E0
2.505919844E0,-2.786560059E-1,9.590499878E0,-7.050308228E0
2.510955244E0,-2.948913574E-1,9.593551636E0,-7.027053833E0
2.515990645E0,-2.857818604E-1,9.605667114E0,-7.066513062E0
2.521026045E0,-2.852325439E-1,9.594772339E0,-7.055969238E0
2.526061445E0,-2.972412109E-1,9.624267578E0,-7.015930176E0
2.531096846E0,-2.890930176E-1,9.627792358E0,-7.000915527E0
2.536132246E0,-2.885894775E-1,9.627380371E0,-7.000228882E0
2.541167647E0,-2.777404785E-1,9.609069824E0,-7.046905518E0
2.546203047E0,-2.718048096E-1,9.639160156E0,-7.067642212E0
2.551238447E0,-2.818298340E-1,9.598159790E0,-7.092666626E0
2.556273848E0,-2.911529541E-1,9.608627319E0,-7.029266357E0
2.561309248E0,-2.966308594E-1,9.602874756E0,-7.068222046E0
2.566344649E0,-2.962799072E-1,9.605026245E0,-7.084136963E0
2.571380049E0,-2.781982422E-1,9.608978271E0,-7.065597534E0
2.576415449E0,-2.841033936E-1,9.615997314E0,-7.039413452E0
2.581450850E0,-2.849273682E-1,9.639739990E0,-7.017761230E0
2.586486250E0,-2.747802734E-1,9.604217529E0,-7.050384521E0
2.591521650E0,-2.574157715E-1,9.613327026E0,-7.014282227E0
2.596557051E0,-2.926788330E-1,9.599105835E0,-6.955062866E0
2.601592451E0,-2.539367676E-1,9.617904663E0,-7.032913208E0
2.606627852E0,-2.606048584E-1,9.621948242E0,-7.053115845E0
2.611663252E0,-3.063049316E-1,9.624618530E0,-7.036010742E0
2.616698652E0,-3.189086914E-1,9.612503052E0,-7.056304932E0
2.621734053E0,-2.967834473E-1,9.631607056E0,-7.036453247E0
2.626769453E0,-2.946777344E-1,9.578231812E0,-7.050598145E0
2.631804854E0,-2.782440186E-1,9.606216431E0,-7.007476807E0
2.636840254E0,-2.625274658E-1,9.586944580E0,-7.042907715E0
2.641875654E0,-3.030242920E-1,9.607833862E0,-7.027877808E0
2.646911055E0,-2.727966309E-1,9.633468628E0,-7.024383545E0
2.651946455E0,-2.805786133E-1,9.609695435E0,-7.060577393E0
2.656981856E0,-2.897186279E-1,9.590194702E0,-7.033584595E0
2.662017256E0,-2.747192383E-1,9.579483032E0,-7.019104004E0
2.667052656E0,-3.144836426E-1,9.578033447E0,-6.997329712E0
2.672088057E0,-3.054351807E-1,9.592346191E0,-7.028640747E0
2.677123457E0,-3.027496338E-1,9.602935791E0,-7.017822266E0
2.682158858E0,-2.819976807E-1,9.624969482E0,-7.013183594E0
2.687194258E0,-2.936706543E-1,9.623809814E0,-7.000274658E0
2.692229658E0,-2.619171143E-1,9.627471924E0,-7.000717163E0
2.697265059E0,-2.743835449E-1,9.594314575E0,-7.011520386E0
2.702300459E0,-2.808685303E-1,9.566329956E0,-7.002166748E0
2.707335859E0,-2.834930420E-1,9.611328125E0,-7.031265259E0
2.712371260E0,-3.054809570E-1,9.613937378E0,-7.012542725E0
2.717406660E0,-2.790222168E-1,9.589630127E0,-6.999542236E0
2.722442061E0,-3.030548096E-1,9.594161987E0,-6.967712402E0
2.727477461E0,-2.673797607E-1,9.610229492E0,-6.994140625E0
2.732512861E0,-2.826690674E-1,9.618103027E0,-7.018707275E0
2.737548262E0,-2.882385254E-1,9.632080078E0,-7.031341553E0
2.742583662E0,-2.975921631E-1,9.623657227E0,-7.004577637E0
2.747619063E0,-2.888183594E-1,9.591140747E0,-7.040054321E0
2.752654463E0,-3.115539551E-1,9.626846313E0,-7.082992554E0
2.757689863E0,-2.820892334E-1,9.593185425E0,-7.026245117E0
2.762725264E0,-3.140563965E-1,9.615676880E0,-7.015441895E0
2.767760664E0,-2.699890137E-1,9.616119385E0,-7.041137695E0
2.772796065E0,-2.765350342E-1,9.618484497E0,-6.977569580E0
2.777831465E0,-2.933197021E-1,9.580734253E0,-7.024719238E0
2.782866865E0,-3.075103760E-1,9.634689331E0,-7.013412476E0
2.787902266E0,-3.078460693E-1,9.597152710E0,-7.055465698E0
2.792937666E0,-3.325347900E-1,9.604385376E0,-7.035354614E0
2.797973066E0,-2.857971191E-1,9.611999512E0,-7.076858521E0
2.803008467E0,-2.777099609E-1,9.633300781E0,-7.063796997E0
2.808043867E0,-3.070068359E-1,9.644821167E0,-6.964111328E0
2.813079268E0,-2.939910889E-1,9.593872070E0,-6.993789673E0
2.818114668E0,-2.629547119E-1,9.577758789E0,-7.038284302E0
2.823150068E0,-2.740325928E-1,9.574539185E0,-7.025909424E0
2.828185469E0,-2.726898193E-1,9.592651367E0,-7.038665771E0
2.833220869E0,-2.848510742E-1,9.599151611E0,-7.002990723E0
2.838256270E0,-2.961578369E-1,9.622848511E0,-7.001266479E0
2.843291670E0,-2.737884521E-1,9.616638184E0,-7.031173706E0
2.848327070E0,-2.502288818E-1,9.600189209E0,-7.044235229E0
2.853362471E0,-2.725677490E-1,9.606323242E0,-7.023773193E0
2.858397871E0,-2.991027832E-1,9.607788086E0,-6.995117188E0
2.863433272E0,-3.043060303E-1,9.629898071E0,-6.994003296E0
2.868468672E0,-2.803802490E-1,9.595184326E0,-7.046524048E0
2.873504072E0,-2.728576660E-1,9.611053467E0,-7.045593262E0
2.878539473E0,-2.664184570E-1,9.597122192E0,-7.028564453E0
2.883574873E0,-2.783813477E-1,9.615341187E0,-7.035598755E0
2.888610274E0,-2.828216553E-1,9.625457764E0,-7.026901245E0
2.893645674E0,-2.590332031E-1,9.566452026E0,-7.023468018E0
2.898681074E0,-2.900390625E-1,9.596374512E0,-7.075119019E0
2.903716475E0,-2.881927490E-1,9.624114990E0,-7.063568115E0
2.908751875E0,-2.893371582E-1,9.647918701E0,-7.046646118E0
2.913787275E0,-2.516937256E-1,9.592330933E0,-6.997909546E0
2.918822676E0,-2.548370361E-1,9.602478027E0,-6.970993042E0
2.923858076E0,-2.516632080E-1,9.560760498E0,-7.012283325E0
2.928893477E0,-2.865905762E-1,9.599395752E0,-7.029693604E0
2.933928877E0,-2.874603271E-1,9.638076782E0,-6.996383667E0
2.938964277E0,-2.926025391E-1,9.606933594E0,-7.006790161E0
2.943999678E0,-3.128967285E-1,9.588699341E0,-7.015335083E0
2.949035078E0,-2.758483887E-1,9.606216431E0,-7.029174805E0
2.954070479E0,-2.762451172E-1,9.597076416E0,-7.016632080E0
2.959105879E0,-2.616577148E-1,9.602874756E0,-7.021423340E0
2.964141279E0,-2.616882324E-1,9.625045776E0,-7.065261841E0
2.969176680E0,-2.444152832E-1,9.624130249E0,-7.055236816E0
2.974212080E0,-2.502288818E-1,9.591415405E0,-7.067642212E0
2.979247481E0,-2.848815918E-1,9.600036621E0,-7.056137085E0
2.984282881E0,-3.002929688E-1,9.591415405E0,-7.032669067E0
2.989318281E0,-2.717895508E-1,9.625274658E0,-7.054718018E0
2.994353682E0,-2.577667236E-1,9.601013184E0,-7.042083740E0
2.999389082E0,-2.848510742E-1,9.580520630E0,-7.016708374E0
3.004424483E0,-2.763061523E-1,9.572906494E0,-7.042953491E0
3.009459883E0,-2.449951172E-1,9.602828979E0,-7.038436890E0
3.014495283E0,-2.767486572E-1,9.617095947E0,-7.047546387E0
3.019530684E0,-2.973785400E-1,9.600509644E0,-7.023254395E0
3.024566084E0,-2.813873291E-1,9.596893311E0,-7.017669678E0
3.029601484E0,-2.838592529E-1,9.618408203E0,-7.026535034E0
3.034636885E0,-3.009033203E-1,9.609176636E0,-7.054183960E0
3.039672285E0,-2.674255371E-1,9.608383179E0,-7.052368164E0
3.044707686E0,-2.529449463E-1,9.601913452E0,-7.026519775E0
3.049743086E0,-2.747192383E-1,9.615417480E0,-6.996688843E0
3.054778486E0,-2.508850098E-1,9.612457275E0,-7.024337769E0
3.059813887E0,-2.700195312E-1,9.624099731E0,-7.053939819E0
3.064849287E0,-2.652282715E-1,9.603668213E0,-7.049148560E0
3.069884688E0,-2.650756836E-1,9.600555420E0,-7.052719116E0
3.074920088E0,-2.618865967E-1,9.616149902E0,-7.039291382E0
3.079955488E0,-2.609863281E-1,9.625350952E0,-7.034210205E0
3.084990889E0,-2.726287842E-1,9.632659912E0,-7.051895142E0
3.090026289E0,-2.690582275E-1,9.595947266E0,-7.012893677E0
3.095061690E0,-2.616577148E-1,9.580062866E0,-7.022033691E0
3.100097090E0,-2.747955322E-1,9.594116211E0,-7.027099609E0
3.105132490E0,-2.900390625E-1,9.605834961E0,-7.009292603E0
3.110167891E0,-2.784423828E-1,9.613479614E0,-7.020858765E0
3.115203291E0,-2.891693115E-1,9.633377075E0,-7.041076660E0
3.120238691E0,-2.737121582E-1,9.612701416E0,-7.003631592E0
3.125274092E0,-2.591552734E-1,9.589233398E0,-7.002029419E0
3.130309492E0,-2.684173584E-1,9.613983154E0,-7.036834717E0
3.135344893E0,-2.610321045E-1,9.612167358E0,-7.027481079E0
3.140380293E0,-2.523040771E-1,9.608566284E0,-7.024673462E0
3.145415693E0,-2.682800293E-1,9.612701416E0,-7.007217407E0
3.150451094E0,-2.480010986E-1,9.599456787E0,-7.025985718E0
3.155486494E0,-2.397766113E-1,9.580169678E0,-7.047149658E0
3.160521895E0,-2.638549805E-1,9.556488037E0,-7.022293091E0
3.165557295E0,-2.703247070E-1,9.581451416E0,-7.025054932E0
3.170592695E0,-2.498016357E-1,9.622695923E0,-7.036926270E0
3.175628096E0,-2.662658691E-1,9.614944458E0,-7.042709351E0
3.180663496E0,-2.793579102E-1,9.599624634E0,-7.039993286E0
3.185698897E0,-2.461853027E-1,9.581161499E0,-7.041854858E0
3.190734297E0,-2.487945557E-1,9.602935791E0,-7.035766602E0
3.195769697E0,-2.630615234E-1,9.620544434E0,-7.069686890E0
3.200805098E0,-2.464141846E-1,9.618423462E0,-7.033142090E0
3.205840498E0,-2.470245361E-1,9.618804932E0,-7.028671265E0
3.210875899E0,-2.716979980E-1,9.613739014E0,-7.074905396E0
3.215911299E0,-2.558441162E-1,9.612335205E0,-7.026184082E0
3.220946699E0,-2.614440918E-1,9.605712891E0,-7.002182007E0
3.225982100E0,-2.618865967E-1,9.598983765E0,-7.037063599E0
3.231017500E0,-2.776947021E-1,9.612869263E0,-7.027481079E0
3.236052900E0,-2.883605957E-1,9.600036621E0,-7.043884277E0
3.241088301E0,-2.573242188E-1,9.602752686E0,-6.990493774E0
3.246123701E0,-2.586364746E-1,9.598922729E0,-6.991226196E0
3.251159102E0,-2.784576416E-1,9.606475830E0,-7.030563354E0
3.256194502E0,-2.882843018E-1,9.614593506E0,-7.044311523E0
3.261229902E0,-2.954711914E-1,9.621429443E0,-7.025512695E0
3.266265303E0,-2.636260986E-1,9.617813110E0,-7.006637573E0
3.271300703E0,-2.804412842E-1,9.597915649E0,-7.030258179E0
3.276336104E0,-2.979888916E-1,9.620269775E0,-7.021484375E0
3.281371504E0,-2.722167969E-1,9.617431641E0,-7.031448364E0
3.286406904E0,-2.647857666E-1,9.628479004E0,-7.044708252E0
3.291442305E0,-2.572174072E-1,9.621139526E0,-7.041290283E0
3.296477705E0,-2.444915771E-1,9.628616333E0,-7.048995972E0
3.301513106E0,-2.608947754E-1,9.603439331E0,-7.053359985E0
3.306548506E0,-2.627716064E-1,9.609893799E0,-7.036712646E0
3.311583906E0,-2.786102295E-1,9.601486206E0,-7.077148438E0
3.316619307E0,-2.584533691E-1,9.620590210E0,-7.051284790E0
3.321654707E0,-2.671661377E-1,9.593811035E0,-7.030822754E0
3.326690108E0,-2.899932861E-1,9.594451904E0,-7.015502930E0
3.331725508E0,-2.743682861E-1,9.627777100E0,-7.056549072E0
3.336760908E0,-2.794799805E-1,9.628662109E0,-7.068847656E0
3.341796309E0,-2.837066650E-1,9.611358643E0,-7.005157471E0
3.346831709E0,-2.981109619E-1,9.595794678E0,-7.007720947E0
3.351867109E0,-2.809906006E-1,9.577789307E0,-7.022521973E0
3.356902510E0,-2.852325439E-1,9.589828491E0,-7.063430786E0
3.361937910E0,-2.903289795E-1,9.568679810E0,-7.076629639E0
3.366973311E0,-2.758789062E-1,9.587570190E0,-7.052810669E0
3.372008711E0,-2.736968994E-1,9.600341797E0,-7.055648804E0
3.377044111E0,-2.551727295E-1,9.603729248E0,-7.063812256E0
3.382079512E0,-2.867889404E-1,9.596542358E0,-7.013519287E0
3.387114912E0,-3.284301758E-1,9.583099365E0,-6.995193481E0
3.392150313E0,-3.223876953E-1,9.590194702E0,-6.993850708E0
3.397185713E0,-2.878417969E-1,9.582443237E0,-7.025421143E0
3.402221113E0,-2.654266357E-1,9.592330933E0,-7.023971558E0
3.407256514E0,-2.562866211E-1,9.590682983E0,-7.022415161E0
3.412291914E0,-2.793579102E-1,9.595977783E0,-6.996185303E0
3.417327315E0,-2.552642822E-1,9.609268188E0,-7.023971558E0
3.422362715E0,-2.647094727E-1,9.631820679E0,-7.056152344E0
3.427398115E0,-2.670440674E-1,9.614547729E0,-7.058425903E0
3.432433516E0,-2.815856934E-1,9.619659424E0,-7.045654297E0
3.437468916E0,-2.690887451E-1,9.576980591E0,-6.987396240E0
3.442504316E0,-2.691650391E-1,9.615356445E0,-7.040969849E0
3.447539717E0,-2.907714844E-1,9.593139648E0,-7.035797119E0
3.452575117E0,-2.781982422E-1,9.602813721E0,-7.010681152E0
3.457610518E0,-2.765655518E-1,9.602050781E0,-7.018936157E0
3.462645918E0,-2.918090820E-1,9.625778198E0,-6.961242676E0
3.467681318E0,-2.735137939E-1,9.630203247E0,-7.043426514E0
3.472716719E0,-2.718048096E-1,9.577438354E0,-7.026702881E0
3.477752119E0,-3.006744385E-1,9.608795166E0,-7.011459351E0
3.482787520E0,-2.847595215E-1,9.609100342E0,-6.999267578E0
3.487822920E0,-2.927703857E-1,9.595382690E0,-7.034835815E0
3.492858320E0,-2.750091553E-1,9.610641479E0,-7.066314697E0
3.497893721E0,-3.223571777E-1,9.558609009E0,-7.083694458E0
3.502929121E0,-2.664794922E-1,9.581985474E0,-7.038146973E0
3.507964522E0,-2.530670166E-1,9.592071533E0,-7.004180908E0
3.512999922E0,-3.135223389E-1,9.643722534E0,-7.075805664E0
3.518035322E0,-2.182617188E-1,9.597656250E0,-7.051284790E0
3.523070723E0,-2.904052734E-1,9.611267090E0,-6.953979492E0
3.528106123E0,-2.646636963E-1,9.630401611E0,-7.124771118E0
3.533141524E0,-2.954406738E-1,9.594711304E0,-7.048156738E0
3.538176924E0,-2.813568115E-1,9.596862793E0,-7.013229370E0
3.543212324E0,-2.832489014E-1,9.580871582E0,-7.040695190E0
3.548247725E0,-2.648162842E-1,9.599227905E0,-7.010574341E0
3.553283125E0,-2.703094482E-1,9.594223022E0,-7.014022827E0
3.558318525E0,-2.932281494E-1,9.641937256E0,-7.043426514E0
3.563353926E0,-2.939300537E-1,9.580291748E0,-7.034194946E0
3.568389326E0,-3.071289062E-1,9.579727173E0,-7.032836914E0
3.573424727E0,-2.976226807E-1,9.608535767E0,-7.047714233E0
3.578460127E0,-2.556304932E-1,9.604064941E0,-7.032226562E0
3.583495527E0,-2.652740479E-1,9.633407593E0,-7.002319336E0
3.588530928E0,-3.005218506E-1,9.609313965E0,-6.993957520E0
3.593566328E0,-2.770080566E-1,9.589294434E0,-7.044464111E0
3.598601729E0,-2.787780762E-1,9.604034424E0,-7.031112671E0
3.603637129E0,-2.586059570E-1,9.581893921E0,-7.065170288E0
3.608672529E0,-2.861480713E-1,9.595718384E0,-7.044860840E0
3.613707930E0,-2.687988281E-1,9.607711792E0,-7.053359985E0
3.618743330E0,-2.857513428E-1,9.629119873E0,-7.053054810E0
3.623778731E0,-2.973327637E-1,9.574295044E0,-7.050979614E0
3.628814131E0,-2.778625488E-1,9.615341187E0,-7.048400879E0
3.633849531E0,-2.888793945E-1,9.623550415E0,-7.029144287E0
3.638884932E0,-3.033294678E-1,9.609893799E0,-7.020507812E0
3.643920332E0,-2.920989990E-1,9.605606079E0,-7.052307129E0
3.648955733E0,-2.876586914E-1,9.622100830E0,-7.003662109E0
3.653991133E0,-2.858581543E-1,9.613143921E0,-7.038604736E0
3.659026533E0,-2.452239990E-1,9.654479980E0,-7.031936646E0
3.664061934E0,-2.717895508E-1,9.641189575E0,-7.055236816E0
3.669097334E0,-2.553405762E-1,9.621582031E0,-7.008712769E0
3.674132734E0,-2.817077637E-1,9.601867676E0,-7.007995605E0
3.679168135E0,-2.953491211E-1,9.596252441E0,-7.030761719E0
3.684203535E0,-2.700958252E-1,9.609832764E0,-6.996444702E0
3.689238936E0,-2.870788574E-1,9.602645874E0,-6.961730957E0
3.694274336E0,-3.010711670E-1,9.591705322E0,-6.995223999E0
3.699309736E0,-2.800598145E-1,9.580993652E0,-7.006469727E0
3.704345137E0,-2.882385254E-1,9.603759766E0,-7.020233154E0
3.709380537E0,-2.975311279E-1,9.602813721E0,-7.062759399E0
3.714415938E0,-2.712097168E-1,9.623260498E0,-7.017654419E0
3.719451338E0,-2.568206787E-1,9.609588623E0,-7.050674438E0
3.724486738E0,-2.970123291E-1,9.610076904E0,-7.031982422E0
3.729522139E0,-2.819824219E-1,9.609863281E0,-7.044403076E0
3.734557539E0,-2.790374756E-1,9.613143921E0,-7.014801025E0
3.739592940E0,-2.725067139E-1,9.596038818E0,-7.039428711E0
3.744628340E0,-2.909698486E-1,9.593124390E0,-7.063690186E0
3.749663740E0,-2.949371338E-1,9.614410400E0,-7.057952881E0
3.754699141E0,-2.758483887E-1,9.627700806E0,-7.015792847E0
3.759734541E0,-2.704925537E-1,9.609451294E0,-7.001678467E0
3.764769941E0,-2.751159668E-1,9.601486206E0,-6.985198975E0
3.769805342E0,-2.880554199E-1,9.616119385E0,-7.026153564E0
3.774840742E0,-2.671051025E-1,9.600143433E0,-6.993133545E0
3.779876143E0,-2.942199707E-1,9.587203979E0,-7.048477173E0
3.784911543E0,-3.090667725E-1,9.615768433E0,-7.070037842E0
3.789946943E0,-3.152313232E-1,9.603546143E0,-6.995285034E0
3.794982344E0,-3.193664551E-1,9.609207153E0,-6.983734131E0
3.800017744E0,-3.009796143E-1,9.630554199E0,-7.010452271E0
3.805053145E0,-3.105163574E-1,9.641967773E0,-7.030456543E0
3.810088545E0,-3.151245117E-1,9.622726440E0,-7.036636353E0
3.815123945E0,-2.921295166E-1,9.621078491E0,-7.012893677E0
3.820159346E0,-3.072814941E-1,9.605834961E0,-7.013351440E0
3.825194746E0,-3.132629395E-1,9.628005981E0,-7.042877197E0
3.830230147E0,-3.110809326E-1,9.628341675E0,-7.033676147E0
3.835265547E0,-3.107757568E-1,9.629348755E0,-6.992797852E0
3.840300947E0,-2.734527588E-1,9.639663696E0,-6.996063232E0
3.845336348E0,-2.649688721E-1,9.624649048E0,-7.034744263E0
3.850371748E0,-2.792663574E-1,9.602401733E0,-7.007492065E0
3.855407149E0,-2.807464600E-1,9.581283569E0,-7.016021729E0
3.860442549E0,-2.702026367E-1,9.583862305E0,-7.012603760E0
3.865477949E0,-2.675781250E-1,9.602432251E0,-6.982955933E0
3.870513350E0,-2.862854004E-1,9.605682373E0,-6.993179321E0
3.875548750E0,-2.814788818E-1,9.617477417E0,-7.017547607E0
3.880584150E0,-2.766876221E-1,9.614776611E0,-7.004257202E0
3.885619551E0,-2.650146484E-1,9.614089966E0,-7.020828247E0
3.890654951E0,-2.679290771E-1,9.621276855E0,-7.037734985E0
3.895690352E0,-2.789764404E-1,9.605392456E0,-7.029724121E0
3.900725752E0,-3.027496338E-1,9.597076416E0,-7.027175903E0
3.905761152E0,-3.060455322E-1,9.594772339E0,-7.016174316E0
3.910796553E0,-2.849426270E-1,9.596923828E0,-7.018371582E0
3.915831953E0,-2.897949219E-1,9.609573364E0,-7.020492554E0
3.920867354E0,-2.982330322E-1,9.615646362E0,-6.992248535E0
3.925902754E0,-2.874298096E-1,9.600204468E0,-6.977935791E0
3.930938154E0,-2.741851807E-1,9.612777710E0,-7.002136230E0
3.935973555E0,-2.820281982E-1,9.622787476E0,-7.029785156E0
3.941008955E0,-2.713012695E-1,9.597366333E0,-7.055709839E0
3.946044356E0,-2.682189941E-1,9.596435547E0,-7.050735474E0
3.951079756E0,-2.765655518E-1,9.621200562E0,-7.010192871E0
3.956115156E0,-2.848510742E-1,9.605575562E0,-6.999359131E0
3.961150557E0,-2.797088623E-1,9.600082397E0,-7.022872925E0
3.966185957E0,-2.605438232E-1,9.601928711E0,-7.039505005E0
3.971221358E0,-2.598876953E-1,9.587112427E0,-7.018692017E0
3.976256758E0,-2.834625244E-1,9.599197388E0,-7.020706177E0
3.981292158E0,-2.810516357E-1,9.606979370E0,-6.986755371E0
3.986327559E0,-2.836151123E-1,9.613052368E0,-6.978790283E0
3.991362959E0,-2.474975586E-1,9.622970581E0,-7.010894775E0
3.996398359E0,-2.595672607E-1,9.612045288E0,-6.980148315E0
4.001433760E0,-2.645721436E-1,9.599639893E0,-6.999954224E0
4.006469160E0,-2.689971924E-1,9.603225708E0,-7.015563965E0
4.011504561E0,-2.874450684E-1,9.600372314E0,-7.001190186E0
4.016539961E0,-2.603149414E-1,9.608047485E0,-7.015029907E0
4.021575361E0,-2.655334473E-1,9.623275757E0,-7.000915527E0
4.026610762E0,-2.636871338E-1,9.600631714E0,-7.032577515E0
4.031646162E0,-2.770385742E-1,9.584289551E0,-7.082611084E0
4.036681563E0,-3.024902344E-1,9.587707520E0,-7.107681274E0
4.041716963E0,-2.933502197E-1,9.608123779E0,-7.018554688E0
4.046752363E0,-2.777557373E-1,9.632797241E0,-6.987197876E0
4.051787764E0,-2.809295654E-1,9.638229370E0,-7.015029907E0
4.056823164E0,-2.633361816E-1,9.601867676E0,-7.001007080E0
4.061858565E0,-2.448730469E-1,9.609817505E0,-6.982894897E0
4.066893965E0,-2.598724365E-1,9.615036011E0,-7.012374878E0
4.071929365E0,-2.513732910E-1,9.594573975E0,-7.024795532E0
4.076964766E0,-2.579193115E-1,9.573501587E0,-6.994934082E0
4.082000166E0,-2.498931885E-1,9.596832275E0,-6.998489380E0
4.087035566E0,-2.688293457E-1,9.599456787E0,-7.030151367E0
4.092070967E0,-2.765655518E-1,9.604309082E0,-7.066238403E0
4.097106367E0,-2.820587158E-1,9.606597900E0,-7.021743774E0
4.102141768E0,-2.910919189E-1,9.591842651E0,-7.014968872E0
4.107177168E0,-2.783660889E-1,9.589401245E0,-7.036224365E0
4.112212568E0,-2.723236084E-1,9.593673706E0,-7.032089233E0
4.117247969E0,-2.774658203E-1,9.630538940E0,-7.020111084E0
4.122283369E0,-2.808532715E-1,9.603790283E0,-6.992935181E0
4.127343487E0,-2.832489014E-1,9.648330688E0,-7.023101807E0
4.132378887E0,-2.875823975E-1,9.655548096E0,-7.049301147E0
4.137414287E0,-2.982025146E-1,9.634750366E0,-6.991119385E0
4.142449688E0,-2.372894287E-1,9.626449585E0,-6.996902466E0
4.147485088E0,-2.699432373E-1,9.615692139E0,-7.042739868E0
4.152520489E0,-2.609252930E-1,9.581680298E0,-6.998901367E0
4.157555889E0,-2.474365234E-1,9.599853516E0,-7.061706543E0
4.162591289E0,-2.679748535E-1,9.622497559E0,-7.023971558E0
4.167626690E0,-2.881774902E-1,9.603118896E0,-7.023452759E0
4.172662090E0,-2.619934082E-1,9.597381592E0,-7.035095215E0
4.177697491E0,-2.741394043E-1,9.611602783E0,-6.999328613E0
4.182732891E0,-2.723999023E-1,9.578201294E0,-7.002197266E0
4.187768291E0,-2.548675537E-1,9.581741333E0,-7.030899048E0
4.192803692E0,-2.698364258E-1,9.619064331E0,-7.017242432E0
4.197839092E0,-2.589263916E-1,9.608215332E0,-7.019561768E0
4.202874492E0,-2.488861084E-1,9.630386353E0,-7.028671265E0
4.207909893E0,-2.806701660E-1,9.611007690E0,-7.001251221E0
4.212945293E0,-2.574157715E-1,9.624313354E0,-7.013946533E0
4.217980694E0,-2.860412598E-1,9.619018555E0,-7.066009521E0
4.223016094E0,-2.621459961E-1,9.583389282E0,-7.021743774E0
4.228051494E0,-2.800140381E-1,9.602737427E0,-6.979675293E0
4.233086895E0,-2.994384766E-1,9.606475830E0,-6.995285034E0
4.238122295E0,-2.411346436E-1,9.604309082E0,-6.989379883E0
4.243157696E0,-2.522430420E-1,9.581283569E0,-7.007431030E0
4.248193096E0,-2.596893311E-1,9.621948242E0,-7.008132935E0
4.253228496E0,-2.692565918E-1,9.606903076E0,-7.066543579E0
4.258263897E0,-2.670745850E-1,9.623046875E0,-6.994750977E0
4.263299297E0,-3.049011230E-1,9.597229004E0,-7.088470459E0
4.268334698E0,-2.194366455E-1,9.639923096E0,-7.015274048E0
4.273370098E0,-2.624206543E-1,9.606475830E0,-7.034500122E0
4.278405498E0,-2.836761475E-1,9.587417603E0,-7.064773560E0
4.283440899E0,-2.811584473E-1,9.581573486E0,-7.039657593E0
4.288476299E0,-2.741851807E-1,9.627288818E0,-7.062072754E0
4.293511700E0,-2.741851807E-1,9.605514526E0,-7.037292480E0
4.298547100E0,-2.743988037E-1,9.639617920E0,-7.053359985E0
4.303582500E0,-2.788391113E-1,9.631851196E0,-7.055099487E0
4.308617901E0,-2.748718262E-1,9.613204956E0,-7.084716797E0
4.313653301E0,-2.483367920E-1,9.604217529E0,-7.011306763E0
4.318688701E0,-2.862701416E-1,9.601242065E0,-7.017349243E0
4.323724102E0,-2.890472412E-1,9.566955566E0,-6.959030151E0
4.328759502E0,-2.931823730E-1,9.605026245E0,-7.026824951E0
4.333794903E0,-2.674865723E-1,9.613510132E0,-7.044692993E0
4.338830303E0,-2.731170654E-1,9.608734131E0,-7.010528564E0
4.343865703E0,-2.851715088E-1,9.584411621E0,-7.052536011E0
4.348901104E0,-2.748413086E-1,9.600936890E0,-7.004714966E0
4.353936504E0,-2.637786865E-1,9.613174438E0,-7.029525757E0
4.358971905E0,-2.897491455E-1,9.610717773E0,-6.981185913E0
4.364007305E0,-2.643737793E-1,9.618988037E0,-7.026565552E0
4.369042705E0,-2.680358887E-1,9.592163086E0,-7.024642944E0
4.374078106E0,-3.051300049E-1,9.606597900E0,-7.033401489E0
4.379113506E0,-3.016510010E-1,9.607986450E0,-7.003479004E0
4.384148907E0,-2.766113281E-1,9.617568970E0,-7.027572632E0
4.389184307E0,-2.549133301E-1,9.621856689E0,-7.007888794E0
4.394219707E0,-2.773742676E-1,9.606170654E0,-7.037841797E0
4.399255108E0,-2.702789307E-1,9.628021240E0,-7.062164307E0
4.404290508E0,-2.750701904E-1,9.628448486E0,-7.029281616E0
4.409325908E0,-2.839050293E-1,9.626342773E0,-6.995773315E0
4.414361309E0,-3.023529053E-1,9.608505249E0,-7.000808716E0
4.419396709E0,-2.846221924E-1,9.611373901E0,-7.021408081E0
4.424432110E0,-2.554626465E-1,9.622985840E0,-7.002410889E0
4.429467510E0,-2.538146973E-1,9.602355957E0,-7.046203613E0
4.434502910E0,-3.056335449E-1,9.621322632E0,-7.017898560E0
4.439538311E0,-2.870788574E-1,9.588851929E0,-7.020767212E0
4.444573711E0,-2.747650146E-1,9.591400146E0,-7.060256958E0
4.449609112E0,-2.730865479E-1,9.610763550E0,-7.055618286E0
4.454644512E0,-2.563323975E-1,9.619094849E0,-6.996231079E0
4.459679912E0,-2.598266602E-1,9.639068604E0,-7.008407593E0
4.464715313E0,-2.943420410E-1,9.607101440E0,-7.041961670E0
4.469750713E0,-2.446899414E-1,9.600540161E0,-7.036697388E0
4.474786114E0,-3.094024658E-1,9.594390869E0,-7.044708252E0
4.479821514E0,-2.768859863E-1,9.603240967E0,-7.055709839E0
4.484856914E0,-2.613067627E-1,9.631851196E0,-7.030532837E0
4.489892315E0,-2.675170898E-1,9.605163574E0,-7.057037354E0
4.494927715E0,-2.662048340E-1,9.599655151E0,-7.098846436E0
4.499963116E0,-2.606658936E-1,9.601394653E0,-7.043991089E0
4.504998516E0,-2.807769775E-1,9.609954834E0,-7.032943726E0
4.510033916E0,-2.717285156E-1,9.608047485E0,-7.009170532E0
4.515069317E0,-2.781066895E-1,9.616027832E0,-7.070632935E0
4.520104717E0,-2.557830811E-1,9.598922729E0,-7.023391724E0
4.525140117E0,-2.644958496E-1,9.611068726E0,-7.041519165E0
4.530175518E0,-2.886810303E-1,9.592315674E0,-7.040451050E0
4.535210918E0,-2.712249756E-1,9.600875854E0,-7.014129639E0
4.540246319E0,-2.938690186E-1,9.615234375E0,-6.995407104E0
4.545281719E0,-2.837219238E-1,9.614624023E0,-7.029205322E0
4.550317119E0,-2.772979736E-1,9.613372803E0,-7.023910522E0
4.555352520E0,-2.879486084E-1,9.612686157E0,-6.995925903E0
4.560387920E0,-2.984008789E-1,9.605285645E0,-7.032516479E0
4.565423321E0,-2.955322266E-1,9.589004517E0,-7.003768921E0
4.570458721E0,-2.751617432E-1,9.585937500E0,-7.013931274E0
4.575494121E0,-2.874298096E-1,9.590042114E0,-7.047424316E0
4.580529522E0,-2.906646729E-1,9.621795654E0,-7.018920898E0
4.585564922E0,-2.814025879E-1,9.615249634E0,-7.013107300E0
4.590600323E0,-2.887725830E-1,9.595443726E0,-7.047714233E0
4.595635723E0,-2.924499512E-1,9.587799072E0,-7.041961670E0
4.600671123E0,-3.003692627E-1,9.589370728E0,-7.057006836E0
4.605706524E0,-2.905731201E-1,9.617675781E0,-7.046127319E0
4.610741924E0,-2.955017090E-1,9.625808716E0,-6.981185913E0
4.615777325E0,-3.057250977E-1,9.633316040E0,-6.983734131E0
4.620812725E0,-2.887878418E-1,9.617340088E0,-7.015487671E0
4.625848125E0,-2.848205566E-1,9.591033936E0,-7.048355103E0
4.630883526E0,-2.943572998E-1,9.595870972E0,-7.036956787E0
4.635918926E0,-2.872772217E-1,9.598266602E0,-7.010513306E0
4.640954326E0,-2.717895508E-1,9.613906860E0,-6.986465454E0
4.645989727E0,-2.730865479E-1,9.621917725E0,-6.967666626E0
4.651025127E0,-2.827453613E-1,9.621047974E0,-6.979995728E0
4.656060528E0,-2.797393799E-1,9.606903076E0,-7.040145874E0
4.661095928E0,-2.743377686E-1,9.591186523E0,-7.061569214E0
4.666131328E0,-2.675781250E-1,9.601303101E0,-7.032455444E0
4.671166729E0,-2.808074951E-1,9.610275269E0,-7.045684814E0
4.676202129E0,-2.636566162E-1,9.603424072E0,-7.060226440E0
4.681237530E0,-2.708282471E-1,9.611755371E0,-7.046096802E0
4.686272930E0,-3.047485352E-1,9.596252441E0,-7.036697388E0
4.691308330E0,-3.058013916E-1,9.587921143E0,-7.028503418E0
4.696343731E0,-3.096466064E-1,9.598449707E0,-7.038955688E0
4.701379131E0,-2.895812988E-1,9.621749878E0,-7.017532349E0
4.706414532E0,-2.872924805E-1,9.599517822E0,-7.006515503E0
4.711449932E0,-2.894134521E-1,9.611907959E0,-7.000961304E0
4.716485332E0,-2.750091553E-1,9.630279541E0,-7.035003662E0
4.721520733E0,-2.635345459E-1,9.618255615E0,-7.074676514E0
4.726556133E0,-2.793426514E-1,9.594299316E0,-7.032577515E0
4.731591533E0,-2.923583984E-1,9.590332031E0,-7.050155640E0
4.736626934E0,-2.749481201E-1,9.609924316E0,-7.098495483E0
4.741662334E0,-2.662048340E-1,9.616958618E0,-7.072021484E0
4.746697735E0,-2.902069092E-1,9.619201660E0,-7.035537720E0
4.751733135E0,-2.903289795E-1,9.622421265E0,-7.042694092E0
4.756768535E0,-2.900238037E-1,9.626403809E0,-6.991043091E0
4.761803936E0,-2.660980225E-1,9.618438721E0,-7.000427246E0
4.766839336E0,-2.447204590E-1,9.613739014E0,-7.065139771E0
4.771874737E0,-2.831268311E-1,9.628356934E0,-7.020034790E0
4.776910137E0,-2.781524658E-1,9.635162354E0,-7.010406494E0
4.781945537E0,-2.670440674E-1,9.611984253E0,-7.026641846E0
4.786980938E0,-2.837371826E-1,9.638549805E0,-7.017868042E0
4.792016338E0,-2.874908447E-1,9.628936768E0,-7.011199951E0
4.797051739E0,-2.555236816E-1,9.613403320E0,-7.032577515E0
4.802087139E0,-2.980499268E-1,9.635330200E0,-7.048294067E0
4.807122539E0,-3.055114746E-1,9.622085571E0,-7.026641846E0
4.812157940E0,-2.722778320E-1,9.585632324E0,-7.029937744E0
4.817193340E0,-2.853088379E-1,9.625228882E0,-7.002441406E0
4.822228741E0,-2.789459229E-1,9.628021240E0,-7.021820068E0
4.827264141E0,-2.849884033E-1,9.608856201E0,-7.044525146E0
4.832299541E0,-2.848968506E-1,9.616760254E0,-6.994812012E0
4.837334942E0,-3.019409180E-1,9.602645874E0,-6.991760254E0
4.842370342E0,-2.706451416E-1,9.593383789E0,-6.990692139E0
4.847405742E0,-2.973022461E-1,9.582962036E0,-7.030212402E0
4.852441143E0,-2.999725342E-1,9.569091797E0,-7.032012939E0
4.857476543E0,-2.865905762E-1,9.617462158E0,-6.985824585E0
4.862511944E0,-2.798767090E-1,9.605484009E0,-7.078262329E0
4.867547344E0,-2.808837891E-1,9.599456787E0,-7.068588257E0
4.872582744E0,-3.085632324E-1,9.566390991E0,-7.046875000E0
4.877618145E0,-3.068237305E-1,9.613845825E0,-7.018356323E0
4.882653545E0,-2.340698242E-1,9.605895996E0,-7.008941650E0
4.887688946E0,-2.774658203E-1,9.581817627E0,-7.044143677E0
4.892724346E0,-2.763671875E-1,9.616363525E0,-7.061065674E0
4.897759746E0,-2.802886963E-1,9.655761719E0,-7.040527344E0
4.902795147E0,-2.895202637E-1,9.597900391E0,-7.032592773E0
4.907830547E0,-3.011627197E-1,9.614334106E0,-7.013381958E0
4.912865948E0,-2.612457275E-1,9.639251709E0,-7.033340454E0
4.917901348E0,-2.551422119E-1,9.598403931E0,-7.038772583E0
4.922936748E0,-2.742004395E-1,9.609252930E0,-7.011535645E0
4.927972149E0,-2.596130371E-1,9.626190186E0,-7.006011963E0
4.933007549E0,-2.854309082E-1,9.632308960E0,-7.014328003E0
4.938042950E0,-2.863159180E-1,9.576553345E0,-7.034729004E0
4.943078350E0,-2.425537109E-1,9.618789673E0,-6.990966797E0
4.948113750E0,-2.976684570E-1,9.614486694E0,-7.037109375E0
4.953149151E0,-2.409820557E-1,9.574020386E0,-6.997329712E0
4.958184551E0,-3.404846191E-1,9.575332642E0,-6.993850708E0
4.963219951E0,-3.122253418E-1,9.597991943E0,-7.034072876E0
4.968255352E0,-2.804718018E-1,9.601715088E0,-7.079696655E0
4.973290752E0,-2.607269287E-1,9.579040527E0,-7.011276245E0
4.978326153E0,-2.736663818E-1,9.614715576E0,-7.051696777E0
4.983361553E0,-3.111114502E-1,9.641494751E0,-7.057968140E0
4.988396953E0,-2.890625000E-1,9.607467651E0,-6.951293945E0
4.993432354E0,-3.282012939E-1,9.618270874E0,-7.051437378E0
4.998467754E0,-3.054351807E-1,9.627899170E0,-7.011032104E0
5.003503155E0,-2.837066650E-1,9.604217529E0,-7.067642212E0
5.008538555E0,-3.024749756E-1,9.625595093E0,-7.077011108E0
5.013573955E0,-2.554168701E-1,9.618499756E0,-7.053497314E0
5.018609356E0,-2.767486572E-1,9.617996216E0,-7.065139771E0
5.023644756E0,-2.901000977E-1,9.578552246E0,-7.054275513E0
5.028680157E0,-2.604217529E-1,9.599151611E0,-6.998764038E0
5.033715557E0,-2.777862549E-1,9.589935303E0,-7.077880859E0
5.038750957E0,-3.092803955E-1,9.590240479E0,-7.034408569E0
5.043786358E0,-2.943115234E-1,9.596282959E0,-7.038909912E0
5.048821758E0,-2.729797363E-1,9.585250854E0,-7.069168091E0
5.053857158E0,-2.908477783E-1,9.621978760E0,-6.950225830E0
5.058892559E0,-2.889404297E-1,9.603683472E0,-7.009750366E0
5.063927959E0,-2.669372559E-1,9.597442627E0,-7.057479858E0
5.068963360E0,-2.936401367E-1,9.601837158E0,-7.027084351E0
5.073998760E0,-2.949371338E-1,9.602706909E0,-7.075836182E0
5.079034160E0,-2.696075439E-1,9.611358643E0,-7.066329956E0
5.084069561E0,-3.091430664E-1,9.608734131E0,-7.088623047E0
5.089104961E0,-2.820587158E-1,9.592514038E0,-7.028549194E0
5.094140362E0,-2.714691162E-1,9.628646851E0,-7.041397095E0
5.099175762E0,-2.873077393E-1,9.616409302E0,-7.058120728E0
5.104211162E0,-2.901916504E-1,9.615615845E0,-7.058746338E0
5.109246563E0,-2.528076172E-1,9.605087280E0,-7.059204102E0
5.114281963E0,-2.447967529E-1,9.648941040E0,-7.034240723E0
5.119317364E0,-2.832183838E-1,9.621887207E0,-7.023040771E0
5.124352764E0,-2.928466797E-1,9.634033203E0,-7.035934448E0
5.129388164E0,-2.916717529E-1,9.604614258E0,-7.031402588E0
5.134423565E0,-2.927093506E-1,9.608261108E0,-7.081268311E0
5.139458965E0,-2.781372070E-1,9.616516113E0,-7.052032471E0
5.144494366E0,-2.760009766E-1,9.618942261E0,-7.035659790E0
5.149529766E0,-2.813262939E-1,9.611297607E0,-7.040969849E0
5.154565166E0,-2.727966309E-1,9.573272705E0,-7.044006348E0
5.159600567E0,-2.775878906E-1,9.575805664E0,-7.064910889E0
5.164635967E0,-2.875976562E-1,9.589874268E0,-7.066650391E0
5.169671367E0,-2.937927246E-1,9.607131958E0,-7.039230347E0
5.174706768E0,-2.489624023E-1,9.602905273E0,-7.021881104E0
5.179742168E0,-2.854156494E-1,9.594177246E0,-7.035293579E0
5.184777569E0,-2.837066650E-1,9.632781982E0,-7.015274048E0
5.189812969E0,-2.702636719E-1,9.627029419E0,-7.031173706E0
5.194848369E0,-2.970733643E-1,9.593765259E0,-7.040817261E0
5.199883770E0,-3.029479980E-1,9.604858398E0,-7.067367554E0
5.204919170E0,-2.895202637E-1,9.599243164E0,-6.980743408E0
5.209954571E0,-2.867736816E-1,9.581771851E0,-7.029144287E0
5.214989971E0,-2.843170166E-1,9.585861206E0,-6.999725342E0
5.220025371E0,-2.812042236E-1,9.602966309E0,-7.079421997E0
5.225060772E0,-2.936401367E-1,9.628311157E0,-7.095733643E0
5.230096172E0,-2.800140381E-1,9.607009888E0,-7.020660400E0
5.235131573E0,-2.793579102E-1,9.629806519E0,-7.007781982E0
5.240166973E0,-2.956085205E-1,9.644195557E0,-7.014709473E0
5.245202373E0,-2.979736328E-1,9.616989136E0,-7.019760132E0
5.250237774E0,-2.850799561E-1,9.623489380E0,-7.054031372E0
5.255273174E0,-2.586669922E-1,9.639007568E0,-7.049102783E0
5.260308575E0,-2.741851807E-1,9.595382690E0,-7.069030762E0
5.265343975E0,-2.776184082E-1,9.585464478E0,-7.034622192E0
5.270379375E0,-2.793579102E-1,9.588943481E0,-6.987808228E0
5.275414776E0,-2.921752930E-1,9.622314453E0,-7.009780884E0
5.280450176E0,-3.094635010E-1,9.632781982E0,-7.042083740E0
5.285485576E0,-2.950439453E-1,9.634597778E0,-7.040908813E0
5.290520977E0,-2.936706543E-1,9.627258301E0,-7.039733887E0
5.295556377E0,-2.747802734E-1,9.606567383E0,-7.037002563E0
5.300591778E0,-3.042602539E-1,9.597503662E0,-7.013183594E0
5.305627178E0,-2.960815430E-1,9.588760376E0,-7.002731323E0
5.310662578E0,-2.795715332E-1,9.589416504E0,-7.004211426E0
5.315697979E0,-2.765960693E-1,9.617065430E0,-7.046295166E0
5.320733379E0,-2.763214111E-1,9.628265381E0,-7.024856567E0
5.325768780E0,-2.737579346E-1,9.604553223E0,-7.043777466E0
5.330804180E0,-2.701873779E-1,9.594223022E0,-7.067550659E0
5.335839580E0,-2.906494141E-1,9.615783691E0,-7.045989990E0
5.340874981E0,-2.965393066E-1,9.626327515E0,-7.011093140E0
5.345910381E0,-2.646179199E-1,9.621704102E0,-7.022262573E0
5.350945782E0,-2.491149902E-1,9.626876831E0,-7.039505005E0
5.355981182E0,-2.903289795E-1,9.616455078E0,-7.045410156E0
5.361016582E0,-2.806091309E-1,9.594909668E0,-7.028472900E0
5.366051983E0,-2.658538818E-1,9.587554932E0,-7.071212769E0
5.371087383E0,-2.753753662E-1,9.613998413E0,-7.071823120E0
5.376122783E0,-2.754058838E-1,9.620529175E0,-7.012588501E0
5.381158184E0,-2.827453613E-1,9.604125977E0,-7.000991821E0
5.386193584E0,-2.709960938E-1,9.591842651E0,-7.058395386E0
5.391228985E0,-2.665100098E-1,9.584045410E0,-7.061233521E0
5.396264385E0,-2.944488525E-1,9.596664429E0,-7.044464111E0
5.401299785E0,-2.839050293E-1,9.603988647E0,-7.044235229E0
5.406335186E0,-2.741851807E-1,9.607116699E0,-7.022140503E0
5.411370586E0,-2.797088623E-1,9.592651367E0,-7.032043457E0
5.416405987E0,-2.927703857E-1,9.598266602E0,-7.056304932E0
5.421441387E0,-3.024139404E-1,9.608276367E0,-7.022613525E0
5.426476787E0,-2.769317627E-1,9.616622925E0,-6.984939575E0
5.431512188E0,-2.697296143E-1,9.610214233E0,-7.004379272E0
5.436547588E0,-2.737274170E-1,9.613677979E0,-7.010070801E0
5.441582989E0,-2.718048096E-1,9.593444824E0,-7.020401001E0
5.446618389E0,-2.775726318E-1,9.571823120E0,-7.030487061E0
5.451653789E0,-2.783966064E-1,9.594345093E0,-7.041275024E0
5.456689190E0,-2.736053467E-1,9.620819092E0,-7.041183472E0
5.461724590E0,-2.972259521E-1,9.602600098E0,-6.999313354E0
5.466759991E0,-2.881317139E-1,9.623779297E0,-6.968124390E0
5.471795391E0,-2.787933350E-1,9.627807617E0,-7.002761841E0
5.476830791E0,-2.922058105E-1,9.610733032E0,-7.034103394E0
5.481866192E0,-3.136749268E-1,9.587783813E0,-7.040634155E0
5.486901592E0,-3.075561523E-1,9.578033447E0,-7.068344116E0
5.491936992E0,-2.923889160E-1,9.586013794E0,-7.027633667E0
5.496972393E0,-2.884674072E-1,9.607650757E0,-7.002593994E0
5.502007793E0,-2.592163086E-1,9.604736328E0,-7.011489868E0
5.507043194E0,-2.587432861E-1,9.625686646E0,-7.013626099E0
5.512078594E0,-2.630004883E-1,9.619216919E0,-7.041183472E0
5.517113994E0,-2.909088135E-1,9.634918213E0,-7.049987793E0
5.522149395E0,-2.789764404E-1,9.622604370E0,-7.057083130E0
5.527184795E0,-2.831268311E-1,9.629150391E0,-7.026245117E0
5.532220196E0,-2.884674072E-1,9.617889404E0,-7.005981445E0
5.537255596E0,-2.832489014E-1,9.609603882E0,-6.984207153E0
5.542290996E0,-2.620086670E-1,9.637069702E0,-7.026351929E0
5.547326397E0,-2.586975098E-1,9.627578735E0,-7.049148560E0
5.552361797E0,-2.473297119E-1,9.615478516E0,-7.024032593E0
5.557397198E0,-2.958679199E-1,9.604660034E0,-7.035217285E0
5.562432598E0,-2.702178955E-1,9.589035034E0,-7.081680298E0
5.567467998E0,-2.778015137E-1,9.594390869E0,-7.101196289E0
5.572503399E0,-2.837066650E-1,9.602645874E0,-7.088470459E0
5.577538799E0,-3.061828613E-1,9.606079102E0,-7.033737183E0
5.582574200E0,-2.934112549E-1,9.606597900E0,-7.025680542E0
5.587609600E0,-2.789611816E-1,9.629409790E0,-7.049987793E0
5.592645000E0,-2.919006348E-1,9.612167358E0,-7.002090454E0
5.597680401E0,-2.761993408E-1,9.592987061E0,-6.994903564E0
5.602715801E0,-2.384948730E-1,9.617355347E0,-7.013854980E0
5.607751201E0,-2.885894775E-1,9.633117676E0,-7.041336060E0
5.612786602E0,-2.765197754E-1,9.595382690E0,-7.064102173E0
5.617822002E0,-2.878417969E-1,9.599563599E0,-7.035583496E0
5.622857403E0,-2.807617188E-1,9.617965698E0,-7.023498535E0
5.627892803E0,-2.993927002E-1,9.608612061E0,-7.016281128E0
5.632928203E0,-2.699737549E-1,9.612731934E0,-6.984542847E0
5.637963604E0,-2.708892822E-1,9.595062256E0,-7.045913696E0
5.642999004E0,-2.718048096E-1,9.602752686E0,-7.036926270E0
5.648034405E0,-2.760162354E-1,9.587371826E0,-7.061676025E0
5.653069805E0,-3.041229248E-1,9.627548218E0,-7.077972412E0
5.658105205E0,-2.731781006E-1,9.594131470E0,-7.053771973E0
5.663140606E0,-2.434844971E-1,9.607223511E0,-7.044479370E0
5.668176006E0,-3.083648682E-1,9.613327026E0,-7.030761719E0
5.673211407E0,-2.774047852E-1,9.615921021E0,-7.044891357E0
5.678246807E0,-2.962493896E-1,9.600662231E0,-7.030761719E0
5.683282207E0,-2.622528076E-1,9.608383179E0,-7.025085449E0
5.688317608E0,-2.531585693E-1,9.604476929E0,-7.006790161E0
5.693353008E0,-2.844696045E-1,9.592895508E0,-7.003479004E0
5.698388408E0,-2.815399170E-1,9.633331299E0,-6.962341309E0
5.703423809E0,-2.469329834E-1,9.614517212E0,-6.988037109E0
5.708459209E0,-3.079376221E-1,9.616043091E0,-7.012161255E0
5.713494610E0,-2.750701904E-1,9.627716064E0,-7.031463623E0
5.718530010E0,-2.506866455E-1,9.602157593E0,-7.055435181E0
5.723565410E0,-3.048095703E-1,9.618392944E0,-7.062835693E0
5.728600811E0,-3.027496338E-1,9.587554932E0,-7.058120728E0
5.733636211E0,-2.718048096E-1,9.575653076E0,-7.070022583E0
5.738671612E0,-2.813720703E-1,9.644393921E0,-7.065017700E0
5.743707012E0,-2.883605957E-1,9.596923828E0,-7.027252197E0
5.748742412E0,-2.789306641E-1,9.585250854E0,-7.034317017E0
5.753777813E0,-2.737884521E-1,9.599395752E0,-7.032913208E0
5.758813213E0,-2.594299316E-1,9.597427368E0,-6.979293823E0
5.763848614E0,-3.183135986E-1,9.608871460E0,-7.046005249E0
5.768884014E0,-2.920074463E-1,9.607818604E0,-7.037765503E0
5.773919414E0,-2.661132812E-1,9.634628296E0,-6.959548950E0
5.778954815E0,-2.886810303E-1,9.625198364E0,-7.023910522E0
5.783990215E0,-2.557830811E-1,9.619613647E0,-7.015609741E0
5.789025616E0,-2.681579590E-1,9.633758545E0,-7.084411621E0
5.794061016E0,-3.090515137E-1,9.615921021E0,-7.051742554E0
5.799096416E0,-2.720336914E-1,9.614379883E0,-7.008575439E0
5.804131817E0,-2.748870850E-1,9.617858887E0,-7.037857056E0
5.809167217E0,-2.805938721E-1,9.594375610E0,-7.045623779E0
5.814202617E0,-2.752380371E-1,9.629379272E0,-7.015853882E0
5.819238018E0,-2.798461914E-1,9.604034424E0,-6.988281250E0
5.824273418E0,-2.570648193E-1,9.617675781E0,-7.034942627E0
5.829308819E0,-3.030090332E-1,9.595901489E0,-7.028503418E0
5.834344219E0,-2.826995850E-1,9.604858398E0,-7.071304321E0
5.839379619E0,-2.522430420E-1,9.605133057E0,-7.076400757E0
5.844415020E0,-2.893981934E-1,9.585693359E0,-7.048309326E0
5.849450420E0,-2.805786133E-1,9.599563599E0,-7.001770020E0
5.854485821E0,-2.761840820E-1,9.589904785E0,-7.046966553E0
5.859521221E0,-2.709350586E-1,9.596542358E0,-7.044586182E0
5.864556621E0,-2.610473633E-1,9.575942993E0,-6.974273682E0
5.869592022E0,-2.832489014E-1,9.600326538E0,-7.049179077E0
5.874627422E0,-2.540588379E-1,9.601058960E0,-7.003097534E0
5.879662823E0,-2.434539795E-1,9.600158691E0,-7.027542114E0
5.884698223E0,-2.943725586E-1,9.643432617E0,-7.038726807E0
5.889733623E0,-2.607727051E-1,9.613891602E0,-7.010131836E0
5.894769024E0,-2.619476318E-1,9.621688843E0,-7.036514282E0
5.899804424E0,-2.887725830E-1,9.611282349E0,-7.009963989E0
5.904839825E0,-2.902679443E-1,9.599105835E0,-7.021362305E0
5.909875225E0,-2.675170898E-1,9.605194092E0,-7.053863525E0
5.914910625E0,-2.789459229E-1,9.588668823E0,-7.012329102E0
5.919946026E0,-2.789154053E-1,9.620880127E0,-7.001617432E0
5.924981426E0,-2.675170898E-1,9.620880127E0,-7.013275146E0
5.930016826E0,-2.930603027E-1,9.613204956E0,-7.018218994E0
5.935052227E0,-2.789154053E-1,9.596221924E0,-7.058074951E0
5.940087627E0,-2.552337646E-1,9.602584839E0,-7.044418335E0
5.945123028E0,-2.623443604E-1,9.600494385E0,-7.047195435E0
5.950158428E0,-3.015441895E-1,9.614608765E0,-7.037445068E0
5.955193828E0,-2.777557373E-1,9.597305298E0,-7.080245972E0
5.960229229E0,-2.768402100E-1,9.598236084E0,-7.073028564E0
5.965264629E0,-2.841796875E-1,9.600784302E0,-7.049575806E0
5.970300030E0,-2.731323242E-1,9.588027954E0,-7.026840210E0
5.975335430E0,-2.798767090E-1,9.612106323E0,-7.021301270E0
5.980370830E0,-2.687072754E-1,9.610504150E0,-7.079574585E0
5.985406231E0,-2.924957275E-1,9.590606689E0,-7.064376831E0
5.990441631E0,-2.804565430E-1,9.596252441E0,-7.036743164E0
5.995477032E0,-2.741699219E-1,9.619155884E0,-7.063369751E0
6.000512432E0,-2.983398438E-1,9.617858887E0,-7.005447388E0
6.005547832E0,-2.617950439E-1,9.599624634E0,-7.018844604E0
6.010583233E0,-2.561645508E-1,9.577239990E0,-7.057357788E0
6.015618633E0,-2.731018066E-1,9.607681274E0,-7.036682129E0
6.020654033E0,-2.701263428E-1,9.606002808E0,-7.040863037E0
6.025689434E0,-2.936401367E-1,9.587509155E0,-7.028030396E0
6.030724834E0,-2.926025391E-1,9.612030029E0,-7.027450562E0
6.035760235E0,-2.732086182E-1,9.627670288E0,-7.006332397E0
6.040795635E0,-2.788238525E-1,9.607727051E0,-7.051559448E0
6.045831035E0,-2.803497314E-1,9.596405029E0,-7.077621460E0
6.050866436E0,-2.745208740E-1,9.586196899E0,-7.078430176E0
6.055901836E0,-2.792816162E-1,9.600646973E0,-7.105484009E0
6.060937237E0,-2.755126953E-1,9.616622925E0,-7.060211182E0
6.065972637E0,-2.924499512E-1,9.608047485E0,-7.069229126E0
6.071008037E0,-2.907104492E-1,9.609786987E0,-7.048980713E0
6.076043438E0,-2.678375244E-1,9.604995728E0,-7.014144897E0
6.081078838E0,-2.685394287E-1,9.613616943E0,-7.034194946E0
6.086114239E0,-2.519683838E-1,9.614959717E0,-7.056182861E0
6.091149639E0,-2.698974609E-1,9.621856689E0,-7.044647217E0
6.096185039E0,-2.968444824E-1,9.619812012E0,-6.997573853E0
6.101220440E0,-2.801361084E-1,9.616119385E0,-7.015274048E0
6.106255840E0,-2.622375488E-1,9.622055054E0,-7.022125244E0
6.111291241E0,-2.673492432E-1,9.612289429E0,-7.009643555E0
6.116326641E0,-2.740783691E-1,9.601715088E0,-6.990066528E0
6.121362041E0,-2.667541504E-1,9.598190308E0,-6.991943359E0
6.126397442E0,-2.686767578E-1,9.594512939E0,-7.012542725E0
6.131432842E0,-2.741851807E-1,9.594894409E0,-7.010711670E0
6.136468242E0,-2.741851807E-1,9.616790771E0,-7.050994873E0
6.141503643E0,-2.888793945E-1,9.615417480E0,-7.056549072E0
6.146539043E0,-2.706756592E-1,9.601837158E0,-7.078536987E0
6.151574444E0,-2.684783936E-1,9.600463867E0,-7.083190918E0
6.156609844E0,-2.768249512E-1,9.610473633E0,-7.044952393E0
6.161645244E0,-2.745971680E-1,9.603164673E0,-7.011032104E0
6.166680645E0,-2.879028320E-1,9.568222046E0,-7.010391235E0
6.171716045E0,-2.812500000E-1,9.605010986E0,-7.024337769E0
6.176751446E0,-2.761688232E-1,9.610885620E0,-7.067810059E0
6.181786846E0,-2.818908691E-1,9.602569580E0,-7.038116455E0
6.186822246E0,-2.733459473E-1,9.607482910E0,-7.015213013E0
6.191857647E0,-2.775115967E-1,9.611068726E0,-7.014938354E0
6.196893047E0,-2.837066650E-1,9.601654053E0,-7.018051147E0
6.201928448E0,-2.867431641E-1,9.593170166E0,-7.043609619E0
6.206963848E0,-2.793273926E-1,9.596878052E0,-7.031341553E0
6.211999248E0,-2.664489746E-1,9.599456787E0,-7.034667969E0
6.217034649E0,-2.575836182E-1,9.619827271E0,-7.057937622E0
6.222070049E0,-2.725524902E-1,9.609832764E0,-7.039947510E0
6.227105450E0,-2.845306396E-1,9.617004395E0,-7.030364990E0
6.232140850E0,-2.796478271E-1,9.628860474E0,-6.994873047E0
6.237176250E0,-2.814483643E-1,9.619018555E0,-6.982055664E0
6.242211651E0,-2.722320557E-1,9.598968506E0,-7.005645752E0
6.247247051E0,-2.786407471E-1,9.600585938E0,-7.015274048E0
6.252282451E0,-2.753753662E-1,9.632583618E0,-7.026947021E0
6.257317852E0,-2.701263428E-1,9.626159668E0,-7.060546875E0
6.262353252E0,-2.762603760E-1,9.616790771E0,-7.043350220E0
6.267388653E0,-3.014068604E-1,9.621292114E0,-7.019836426E0
6.272424053E0,-3.046722412E-1,9.611053467E0,-7.004821777E0
6.277459453E0,-2.852020264E-1,9.583755493E0,-7.022064209E0
6.282494854E0,-2.683258057E-1,9.619918823E0,-7.033096313E0
6.287530254E0,-2.789459229E-1,9.631591797E0,-7.005752563E0
6.292565655E0,-3.035125732E-1,9.608795166E0,-7.005218506E0
6.297601055E0,-2.990112305E-1,9.598205566E0,-7.022644043E0
6.302636455E0,-2.569732666E-1,9.569473267E0,-6.988525391E0
6.307671856E0,-2.716369629E-1,9.611526489E0,-7.005050659E0
6.312707256E0,-2.471313477E-1,9.638732910E0,-7.014755249E0
6.317742657E0,-2.913208008E-1,9.646072388E0,-7.020919800E0
6.322778057E0,-2.804260254E-1,9.618530273E0,-7.041427612E0
6.327813457E0,-2.818603516E-1,9.615188599E0,-7.048126221E0
6.332848858E0,-2.721252441E-1,9.602600098E0,-7.052459717E0
6.337884258E0,-2.694244385E-1,9.587783813E0,-7.051406860E0
6.342919658E0,-2.890319824E-1,9.622390747E0,-7.009826660E0
6.347955059E0,-2.813262939E-1,9.606567383E0,-7.044677734E0
6.352990459E0,-2.649383545E-1,9.575790405E0,-7.051345825E0
6.358025860E0,-2.742462158E-1,9.596801758E0,-7.068908691E0
6.363061260E0,-2.603454590E-1,9.597778320E0,-7.068344116E0
6.368096660E0,-2.882232666E-1,9.607299805E0,-7.043075562E0
6.373132061E0,-2.685089111E-1,9.594543457E0,-7.045257568E0
6.378167461E0,-2.709350586E-1,9.602752686E0,-7.037857056E0
6.383202862E0,-2.465515137E-1,9.576843262E0,-7.030380249E0
6.388238262E0,-2.792663574E-1,9.605056763E0,-7.027435303E0
6.393273662E0,-2.687835693E-1,9.611099243E0,-7.016494751E0
6.398309063E0,-2.971191406E-1,9.639282227E0,-7.064666748E0
6.403344463E0,-2.744293213E-1,9.594711304E0,-7.000808716E0
6.408379864E0,-3.001098633E-1,9.620407104E0,-7.017791748E0
6.413415264E0,-2.676849365E-1,9.625442505E0,-7.013458252E0
6.418450664E0,-2.757720947E-1,9.607879639E0,-7.068374634E0
6.423486065E0,-2.564544678E-1,9.595413208E0,-7.023223877E0
6.428521465E0,-2.821502686E-1,9.585693359E0,-7.031280518E0
6.433556866E0,-2.859802246E-1,9.607803345E0,-7.000228882E0
6.438592266E0,-2.883758545E-1,9.572509766E0,-7.025955200E0
6.443627666E0,-2.261810303E-1,9.598571777E0,-7.011016846E0
6.448663067E0,-2.683258057E-1,9.590164185E0,-7.063919067E0
6.453698467E0,-3.091583252E-1,9.564224243E0,-7.027862549E0
6.458733867E0,-2.957916260E-1,9.596664429E0,-7.027175903E0
6.463769268E0,-2.601318359E-1,9.613632202E0,-6.994049072E0
6.468804668E0,-2.766418457E-1,9.597030640E0,-7.081802368E0
6.473840069E0,-2.884521484E-1,9.590301514E0,-7.062576294E0
6.478875469E0,-2.860107422E-1,9.620956421E0,-7.038726807E0
6.483910869E0,-2.817382812E-1,9.625869751E0,-7.020950317E0
6.488946270E0,-2.975616455E-1,9.635452271E0,-7.058914185E0
6.493981670E0,-2.840576172E-1,9.642486572E0,-7.081848145E0
6.499017071E0,-2.923126221E-1,9.584930420E0,-7.019851685E0
6.504052471E0,-2.719726562E-1,9.581192017E0,-7.059616089E0
6.509087871E0,-2.348937988E-1,9.595703125E0,-7.004089355E0
6.514123272E0,-2.557983398E-1,9.611984253E0,-7.019104004E0
6.519158672E0,-2.950286865E-1,9.619125366E0,-7.068908691E0
6.524194073E0,-2.584838867E-1,9.596115112E0,-7.028198242E0
6.529229473E0,-2.720489502E-1,9.587554932E0,-7.060455322E0
6.534264873E0,-2.942810059E-1,9.612045288E0,-6.988845825E0
6.539300274E0,-2.618865967E-1,9.615036011E0,-6.999786377E0
6.544335674E0,-2.813110352E-1,9.588043213E0,-7.110504150E0
6.549371075E0,-3.012084961E-1,9.607772827E0,-7.085098267E0
6.554406475E0,-3.063507080E-1,9.583312988E0,-7.028564453E0
6.559441875E0,-2.973937988E-1,9.605728149E0,-6.979492188E0
6.564477276E0,-2.881317139E-1,9.615158081E0,-7.044464111E0
6.569512676E0,-2.558288574E-1,9.615356445E0,-7.039184570E0
6.574548076E0,-2.707977295E-1,9.645858765E0,-6.991012573E0
6.579583477E0,-3.226470947E-1,9.607757568E0,-7.045974731E0
6.584618877E0,-2.753906250E-1,9.644378662E0,-7.066482544E0
6.589654278E0,-2.771606445E-1,9.606994629E0,-7.049804688E0
6.594689678E0,-3.150787354E-1,9.604339600E0,-7.048156738E0
6.599725078E0,-3.061523438E-1,9.580612183E0,-7.011581421E0
6.604760479E0,-2.674865723E-1,9.571334839E0,-7.017959595E0
6.609795879E0,-3.113403320E-1,9.582366943E0,-7.065704346E0
6.614831280E0,-3.061218262E-1,9.608566284E0,-7.058029175E0
6.619866680E0,-2.719879150E-1,9.575592041E0,-7.078659058E0
6.624902080E0,-2.920837402E-1,9.589630127E0,-7.024246216E0
6.629937481E0,-2.751159668E-1,9.589233398E0,-7.021301270E0
6.634972881E0,-2.804412842E-1,9.616790771E0,-7.031799316E0
6.640008282E0,-2.605438232E-1,9.615997314E0,-7.079483032E0
6.645043682E0,-2.647247314E-1,9.623214722E0,-7.065719604E0
6.650079082E0,-2.907409668E-1,9.605575562E0,-7.003982544E0
6.655114483E0,-2.824401855E-1,9.611648560E0,-7.024902344E0
6.660149883E0,-2.731475830E-1,9.597518921E0,-7.060379028E0
6.665185283E0,-2.562408447E-1,9.593597412E0,-7.012680054E0
6.670220684E0,-2.554931641E-1,9.603897095E0,-7.000289917E0
6.675256084E0,-2.622833252E-1,9.621566772E0,-7.015960693E0
6.680291485E0,-2.523345947E-1,9.617568970E0,-7.068893433E0
6.685326885E0,-2.384033203E-1,9.594772339E0,-7.040237427E0
6.690362285E0,-2.636108398E-1,9.585113525E0,-7.070022583E0
6.695397686E0,-2.801208496E-1,9.613616943E0,-7.065490723E0
6.700433086E0,-2.818450928E-1,9.620803833E0,-7.056503296E0
6.705468487E0,-2.590484619E-1,9.610656738E0,-7.043914795E0
6.710503887E0,-2.829589844E-1,9.594223022E0,-7.016891479E0
6.715539287E0,-2.811279297E-1,9.620040894E0,-7.015884399E0
6.720574688E0,-2.760162354E-1,9.623550415E0,-7.014022827E0
6.725610088E0,-2.819976807E-1,9.634490967E0,-7.032501221E0
6.730645489E0,-2.833099365E-1,9.623596191E0,-7.040985107E0
6.735680889E0,-2.730407715E-1,9.612808228E0,-7.027481079E0
6.740716289E0,-2.450714111E-1,9.635162354E0,-7.013626099E0
6.745751690E0,-2.628784180E-1,9.631439209E0,-7.017303467E0
6.750787090E0,-2.700500488E-1,9.621856689E0,-7.043792725E0
6.755822491E0,-2.504119873E-1,9.618026733E0,-7.034683228E0
6.760857891E0,-2.721099854E-1,9.614059448E0,-6.993972778E0
6.765893291E0,-2.823791504E-1,9.608154297E0,-7.003601074E0
6.770928692E0,-2.580413818E-1,9.622741699E0,-7.035949707E0
6.775964092E0,-2.578277588E-1,9.631088257E0,-7.010192871E0
6.780999492E0,-2.617492676E-1,9.616302490E0,-7.018920898E0
6.786034893E0,-2.604675293E-1,9.598907471E0,-7.048599243E0
6.791070293E0,-2.886199951E-1,9.593383789E0,-7.056198120E0
6.796105694E0,-2.927551270E-1,9.584884644E0,-7.033554077E0
6.801141094E0,-2.693786621E-1,9.568847656E0,-7.011779785E0
6.806176494E0,-2.639465332E-1,9.586090088E0,-7.026153564E0
6.811211895E0,-2.810974121E-1,9.600036621E0,-7.037033081E0
6.816247295E0,-2.906799316E-1,9.592132568E0,-7.019226074E0
6.821282696E0,-2.828369141E-1,9.594741821E0,-7.000000000E0
6.826318096E0,-2.824401855E-1,9.612411499E0,-7.009201050E0
6.831353496E0,-2.655029297E-1,9.637588501E0,-7.030776978E0
6.836388897E0,-2.592773438E-1,9.627670288E0,-7.050155640E0
6.841424297E0,-2.665252686E-1,9.603866577E0,-7.017135620E0
6.846459698E0,-2.652587891E-1,9.598434448E0,-6.982406616E0
6.851495098E0,-2.778320312E-1,9.580368042E0,-6.986404419E0
6.856530498E0,-2.712860107E-1,9.577972412E0,-7.002380371E0
6.861565899E0,-2.633666992E-1,9.597503662E0,-7.036926270E0
6.866601299E0,-2.794647217E-1,9.597869873E0,-7.033798218E0
6.871636700E0,-3.159332275E-1,9.586669922E0,-7.014678955E0
6.876672100E0,-3.026580811E-1,9.595260620E0,-7.034805298E0
6.881707500E0,-2.789459229E-1,9.612045288E0,-7.020614624E0
6.886742901E0,-2.761993408E-1,9.611968994E0,-7.047241211E0
6.891778301E0,-2.532958984E-1,9.603393555E0,-7.029953003E0
6.896813701E0,-2.497558594E-1,9.614929199E0,-7.019622803E0
6.901849102E0,-2.617950439E-1,9.614257812E0,-7.040496826E0
6.906884502E0,-2.588958740E-1,9.612365723E0,-7.047225952E0
6.911919903E0,-2.873992920E-1,9.610244751E0,-7.039245605E0
6.916955303E0,-2.956695557E-1,9.615478516E0,-7.055618286E0
6.921990703E0,-2.720336914E-1,9.625350952E0,-7.043106079E0
6.927026104E0,-2.607879639E-1,9.626510620E0,-7.003021240E0
6.932061504E0,-3.132476807E-1,9.613433838E0,-7.004318237E0
6.937096905E0,-3.078308105E-1,9.612747192E0,-7.015960693E0
6.942132305E0,-2.853698730E-1,9.588150024E0,-7.053359985E0
6.947167705E0,-2.632141113E-1,9.611114502E0,-7.032958984E0
6.952203106E0,-2.607574463E-1,9.608047485E0,-6.990539551E0
6.957238506E0,-2.759552002E-1,9.609954834E0,-6.997283936E0
6.962273907E0,-3.154754639E-1,9.611236572E0,-7.026870728E0
6.967309307E0,-3.183593750E-1,9.597625732E0,-7.051269531E0
6.972344707E0,-2.810058594E-1,9.577499390E0,-7.046600342E0
6.977380108E0,-2.820739746E-1,9.587570190E0,-7.051467896E0
6.982415508E0,-3.053131104E-1,9.589630127E0,-7.062469482E0
6.987450908E0,-3.037872314E-1,9.597732544E0,-7.022796631E0
6.992486309E0,-2.848663330E-1,9.589767456E0,-7.004028320E0
6.997521709E0,-2.266998291E-1,9.633941650E0,-7.050384521E0
7.002557110E0,-2.619781494E-1,9.628982544E0,-7.044799805E0
7.007592510E0,-2.937316895E-1,9.615554810E0,-7.027832031E0
7.012627910E0,-2.962036133E-1,9.620880127E0,-7.028366089E0
7.017663311E0,-2.848205566E-1,9.634048462E0,-7.078140259E0
7.022698711E0,-2.922210693E-1,9.606689453E0,-7.041198730E0
7.027734112E0,-2.718353271E-1,9.597076416E0,-6.979064941E0
7.032769512E0,-2.646636963E-1,9.606338501E0,-7.004226685E0
7.037804912E0,-2.927551270E-1,9.629562378E0,-7.032119751E0
7.042840313E0,-2.947235107E-1,9.603073120E0,-7.029144287E0
7.047875713E0,-2.818298340E-1,9.592788696E0,-6.979629517E0
7.052911114E0,-2.962036133E-1,9.613388062E0,-6.988739014E0
7.057946514E0,-2.540435791E-1,9.641662598E0,-6.997711182E0
7.062981914E0,-3.054809570E-1,9.602325439E0,-7.014160156E0
7.068017315E0,-3.075866699E-1,9.588363647E0,-7.031448364E0
7.073052715E0,-2.713317871E-1,9.609420776E0,-7.082031250E0
7.078088116E0,-2.989349365E-1,9.601638794E0,-7.039047241E0
7.083123516E0,-2.787170410E-1,9.611648560E0,-7.003128052E0
7.088158916E0,-2.721405029E-1,9.585083008E0,-7.004745483E0
7.093194317E0,-2.656250000E-1,9.621627808E0,-7.007812500E0
7.098229717E0,-2.937316895E-1,9.630096436E0,-7.018508911E0
7.103265117E0,-2.874755859E-1,9.603057861E0,-7.026336670E0
7.108300518E0,-3.094024658E-1,9.588851929E0,-6.976303101E0
7.113335918E0,-2.631988525E-1,9.596084595E0,-7.010574341E0
7.118371319E0,-2.983398438E-1,9.594924927E0,-7.019561768E0
7.123406719E0,-2.876129150E-1,9.579544067E0,-7.011383057E0
7.128442119E0,-3.035125732E-1,9.591094971E0,-6.986557007E0
7.133477520E0,-3.051300049E-1,9.614364624E0,-7.057083130E0
7.138512920E0,-2.829284668E-1,9.618331909E0,-7.000686646E0
7.143548321E0,-2.701568604E-1,9.656494141E0,-7.016342163E0
7.148583721E0,-2.828521729E-1,9.654479980E0,-7.042236328E0
7.153619121E0,-2.679595947E-1,9.586700439E0,-7.023590088E0
7.158654522E0,-2.670440674E-1,9.621276855E0,-7.069961548E0
7.163689922E0,-2.418365479E-1,9.625549316E0,-6.980682373E0
7.168725323E0,-3.031768799E-1,9.621017456E0,-7.071792603E0
7.173760723E0,-2.819213867E-1,9.618545532E0,-7.012069702E0
7.178796123E0,-3.023681641E-1,9.613815308E0,-7.045562744E0
7.183831524E0,-2.933502197E-1,9.616088867E0,-7.017990112E0
7.188866924E0,-2.861328125E-1,9.609008789E0,-7.001083374E0
7.193902325E0,-2.956085205E-1,9.594696045E0,-7.024795532E0
7.198937725E0,-2.600250244E-1,9.582809448E0,-7.058044434E0
7.203973125E0,-2.789154053E-1,9.588333130E0,-7.045471191E0
7.209008526E0,-2.764587402E-1,9.630157471E0,-7.007369995E0
7.214043926E0,-2.724609375E-1,9.619567871E0,-7.070358276E0
7.219079326E0,-2.946319580E-1,9.578903198E0,-7.007308960E0
7.224114727E0,-3.304138184E-1,9.601623535E0,-7.048995972E0
7.229150127E0,-3.080444336E-1,9.598693848E0,-7.056610107E0
7.234185528E0,-2.727203369E-1,9.626220703E0,-7.029251099E0
7.239220928E0,-2.875976562E-1,9.557418823E0,-7.062637329E0
7.244256328E0,-2.741851807E-1,9.608520508E0,-7.024490356E0
7.249291729E0,-2.740020752E-1,9.633270264E0,-7.051651001E0
7.254327129E0,-2.768859863E-1,9.610534668E0,-7.034362793E0
7.259362530E0,-3.256683350E-1,9.603790283E0,-7.056137085E0
7.264397930E0,-2.726898193E-1,9.622085571E0,-7.014739990E0
7.269433330E0,-2.995910645E-1,9.609893799E0,-7.035827637E0
7.274468731E0,-2.687377930E-1,9.596588135E0,-7.068359375E0
7.279504131E0,-2.458038330E-1,9.595504761E0,-7.049865723E0
7.284539532E0,-2.807312012E-1,9.618789673E0,-7.020828247E0
7.289574932E0,-2.794494629E-1,9.616088867E0,-6.997039795E0
7.294610332E0,-2.953186035E-1,9.591171265E0,-7.030334473E0
7.299645733E0,-2.792968750E-1,9.625228882E0,-7.100433350E0
7.304681133E0,-2.846069336E-1,9.605697632E0,-7.052459717E0
7.309716533E0,-2.966766357E-1,9.591720581E0,-7.029754639E0
7.314751934E0,-2.662963867E-1,9.612518311E0,-7.007781982E0
7.319787334E0,-2.788238525E-1,9.603637695E0,-7.021438599E0
7.324822735E0,-2.960205078E-1,9.587753296E0,-7.040374756E0
7.329858135E0,-2.689208984E-1,9.591979980E0,-7.046218872E0
7.334893535E0,-2.453918457E-1,9.647171021E0,-7.049468994E0
7.339928936E0,-2.856445312E-1,9.619827271E0,-7.052749634E0
7.344964336E0,-2.836456299E-1,9.591583252E0,-7.019958496E0
7.349999737E0,-2.536315918E-1,9.609649658E0,-7.042129517E0
7.355035137E0,-2.784881592E-1,9.618728638E0,-7.016967773E0
7.360070537E0,-2.943420410E-1,9.601425171E0,-6.984695435E0
7.365105938E0,-2.946014404E-1,9.575866699E0,-6.996673584E0
7.370141338E0,-2.779083252E-1,9.598861694E0,-7.007492065E0
7.375176739E0,-2.622833252E-1,9.601837158E0,-7.023010254E0
7.380212139E0,-2.724761963E-1,9.619155884E0,-7.050918579E0
7.385247539E0,-2.838287354E-1,9.624267578E0,-7.048202515E0
7.390282940E0,-2.819213867E-1,9.615646362E0,-7.047088623E0
7.395318340E0,-2.575225830E-1,9.620223999E0,-7.018997192E0
7.400353741E0,-2.682800293E-1,9.615127563E0,-7.059585571E0
7.405389141E0,-2.991027832E-1,9.594055176E0,-7.090393066E0
7.410424541E0,-3.003997803E-1,9.590057373E0,-7.050506592E0
7.415459942E0,-2.829895020E-1,9.643112183E0,-7.038757324E0
7.420495342E0,-2.835540771E-1,9.622512817E0,-7.036056519E0
7.425530742E0,-2.869720459E-1,9.611816406E0,-7.036865234E0
7.430566143E0,-2.937164307E-1,9.603073120E0,-7.026992798E0
7.435601543E0,-3.005523682E-1,9.617004395E0,-7.060089111E0
7.440636944E0,-2.742156982E-1,9.602661133E0,-6.997024536E0
7.445672344E0,-2.690277100E-1,9.612274170E0,-6.997772217E0
7.450707744E0,-2.764892578E-1,9.611755371E0,-7.015579224E0
7.455743145E0,-3.113403320E-1,9.602020264E0,-7.048400879E0
7.460778545E0,-2.823791504E-1,9.610946655E0,-7.052536011E0
7.465813946E0,-2.780151367E-1,9.619384766E0,-7.062316895E0
7.470849346E0,-2.776794434E-1,9.611877441E0,-7.043457031E0
7.475884746E0,-2.763671875E-1,9.595245361E0,-7.043624878E0
7.480920147E0,-2.924804688E-1,9.606323242E0,-7.050384521E0
7.485955547E0,-2.765655518E-1,9.605987549E0,-7.035354614E0
7.490990948E0,-2.756042480E-1,9.591735840E0,-7.060058594E0
7.496026348E0,-2.810974121E-1,9.609603882E0,-7.061889648E0
7.501061748E0,-2.838439941E-1,9.602081299E0,-7.046478271E0
7.506097149E0,-2.813110352E-1,9.609985352E0,-7.017013550E0
7.511132549E0,-2.774658203E-1,9.611358643E0,-7.012634277E0
7.516167950E0,-2.809448242E-1,9.615554810E0,-7.026885986E0
7.521203350E0,-2.967834473E-1,9.619796753E0,-7.058547974E0
7.526238750E0,-2.869873047E-1,9.611953735E0,-7.055725098E0
7.531274151E0,-3.051910400E-1,9.615234375E0,-7.014923096E0
7.536309551E0,-2.927398682E-1,9.606781006E0,-7.014434814E0
7.541344951E0,-2.723693848E-1,9.597503662E0,-7.006988525E0
7.546380352E0,-2.849426270E-1,9.611419678E0,-7.018432617E0
7.551415752E0,-2.672576904E-1,9.607788086E0,-7.027221680E0
7.556451153E0,-2.670440674E-1,9.604217529E0,-7.018844604E0
7.561486553E0,-2.825012207E-1,9.588500977E0,-7.040725708E0
7.566521953E0,-2.801055908E-1,9.596618652E0,-7.018371582E0
7.571557354E0,-2.727050781E-1,9.601135254E0,-7.035964966E0
7.576592754E0,-2.670440674E-1,9.616241455E0,-7.085205078E0
7.581628155E0,-2.594757080E-1,9.632186890E0,-7.050476074E0
7.586663555E0,-2.695617676E-1,9.597412109E0,-7.014450073E0
7.591698955E0,-2.602081299E-1,9.610916138E0,-7.007049561E0
7.596734356E0,-2.606811523E-1,9.617462158E0,-7.000198364E0
7.601769756E0,-2.805786133E-1,9.596771240E0,-7.031234741E0
7.606805157E0,-2.945861816E-1,9.582458496E0,-7.063217163E0
7.611840557E0,-3.000030518E-1,9.616012573E0,-7.054229736E0
7.616875957E0,-3.007659912E-1,9.624893188E0,-7.007431030E0
7.621911358E0,-2.916107178E-1,9.607574463E0,-6.990707397E0
7.626946758E0,-2.696380615E-1,9.626296997E0,-7.038024902E0
7.631982158E0,-2.770843506E-1,9.629898071E0,-7.063827515E0
7.637017559E0,-2.594451904E-1,9.620346069E0,-7.020782471E0
7.642052959E0,-2.408599854E-1,9.578918457E0,-7.042221069E0
7.647088360E0,-2.645568848E-1,9.603073120E0,-7.039825439E0
7.652123760E0,-2.804412842E-1,9.595397949E0,-7.028991699E0
7.657159160E0,-2.903900146E-1,9.580810547E0,-7.007141113E0
7.662194561E0,-2.971343994E-1,9.583648682E0,-7.029556274E0
7.667229961E0,-2.933502197E-1,9.588973999E0,-7.064910889E0
7.672265362E0,-2.704772949E-1,9.603286743E0,-7.020660400E0
7.677300762E0,-2.599029541E-1,9.608978271E0,-7.011245728E0
7.682336162E0,-2.774658203E-1,9.613754272E0,-6.991287231E0
7.687371563E0,-2.957611084E-1,9.595169067E0,-7.001342773E0
7.692406963E0,-3.036346436E-1,9.591674805E0,-7.053527832E0
7.697442364E0,-3.084106445E-1,9.579925537E0,-7.054351807E0
7.702477764E0,-2.751464844E-1,9.584854126E0,-7.039596558E0
7.707513164E0,-2.715911865E-1,9.598266602E0,-7.046707153E0
7.712548565E0,-2.630157471E-1,9.617080688E0,-7.045883179E0
7.717583965E0,-2.798004150E-1,9.624969482E0,-7.023284912E0
7.722619366E0,-2.832946777E-1,9.622177124E0,-7.010086060E0
7.727654766E0,-2.830810547E-1,9.622619629E0,-7.002899170E0
7.732690166E0,-2.679138184E-1,9.616226196E0,-7.060699463E0
7.737725567E0,-2.976989746E-1,9.576538086E0,-7.021713257E0
7.742760967E0,-3.009643555E-1,9.601242065E0,-6.983139038E0
7.747796367E0,-2.979888916E-1,9.593933105E0,-7.014968872E0
7.752831768E0,-2.671508789E-1,9.612945557E0,-7.050750732E0
7.757867168E0,-2.667236328E-1,9.615356445E0,-7.059951782E0
7.762902569E0,-2.898712158E-1,9.597015381E0,-7.086502075E0
7.767937969E0,-2.656555176E-1,9.611038208E0,-7.009567261E0
7.772973369E0,-2.839508057E-1,9.602905273E0,-6.996139526E0
7.778008770E0,-2.851562500E-1,9.599456787E0,-7.008117676E0
7.783044170E0,-2.875518799E-1,9.599456787E0,-7.016250610E0
7.788079571E0,-2.768859863E-1,9.599456787E0,-7.015716553E0
7.793114971E0,-2.761383057E-1,9.599456787E0,-7.042495728E0
7.798150371E0,-2.844085693E-1,9.615127563E0,-7.027038574E0
7.803185772E0,-2.940368652E-1,9.592666626E0,-7.016448975E0
7.808221172E0,-2.956085205E-1,9.603576660E0,-7.023284912E0
7.813256573E0,-2.734222412E-1,9.586410522E0,-7.051010132E0
7.818291973E0,-2.877197266E-1,9.603103638E0,-7.067932129E0
7.823327373E0,-2.581176758E-1,9.618865967E0,-7.080245972E0
7.828362774E0,-2.692565918E-1,9.587890625E0,-7.030395508E0
7.833398174E0,-2.904968262E-1,9.624298096E0,-7.065994263E0
7.838433575E0,-3.078613281E-1,9.615768433E0,-7.084930420E0
7.843468975E0,-2.590789795E-1,9.613739014E0,-7.084564209E0
7.848504375E0,-2.463684082E-1,9.603057861E0,-7.020294189E0
7.853539776E0,-2.864379883E-1,9.567459106E0,-7.002151489E0
7.858575176E0,-2.367858887E-1,9.591857910E0,-7.046401978E0
7.863610576E0,-2.857818604E-1,9.599044800E0,-7.044433594E0
7.868645977E0,-2.996215820E-1,9.581909180E0,-7.078903198E0
7.873681377E0,-2.562561035E-1,9.611297607E0,-7.057647705E0
7.878716778E0,-2.862854004E-1,9.595855713E0,-7.011047363E0
7.883752178E0,-2.818145752E-1,9.588027954E0,-6.992568970E0
7.888787578E0,-2.632293701E-1,9.623748779E0,-7.002777100E0
7.893822979E0,-2.759704590E-1,9.632476807E0,-7.035263062E0
7.898858379E0,-2.994995117E-1,9.612136841E0,-6.967895508E0
7.903893780E0,-2.726898193E-1,9.613662720E0,-6.990661621E0
7.908929180E0,-2.973632812E-1,9.613739014E0,-7.012359619E0
7.913964580E0,-2.768402100E-1,9.611373901E0,-7.019943237E0
7.918999981E0,-2.600097656E-1,9.611358643E0,-7.017654419E0
7.924035381E0,-2.884674072E-1,9.651824951E0,-7.039077759E0
7.929070782E0,-3.122253418E-1,9.667953491E0,-6.975021362E0
7.934106182E0,-3.025207520E-1,9.583374023E0,-7.010681152E0
7.939141582E0,-2.836761475E-1,9.629913330E0,-7.024826050E0
7.944176983E0,-2.811584473E-1,9.605712891E0,-7.028213501E0
7.949212383E0,-2.755126953E-1,9.664123535E0,-7.069290161E0
7.954247783E0,-3.146972656E-1,9.602127075E0,-7.045913696E0
7.959283184E0,-2.641448975E-1,9.606887817E0,-7.040344238E0
7.964318584E0,-3.003692627E-1,9.567306519E0,-7.062255859E0
7.969353985E0,-2.992095947E-1,9.588424683E0,-7.013122559E0
7.974389385E0,-2.816467285E-1,9.604064941E0,-7.051757812E0
7.979424785E0,-2.873077393E-1,9.634979248E0,-7.030242920E0
7.984460186E0,-3.012542725E-1,9.634094238E0,-7.042648315E0
7.989495586E0,-2.881774902E-1,9.643142700E0,-7.081039429E0
7.994530987E0,-3.303833008E-1,9.577178955E0,-7.044677734E0
7.999566387E0,-2.776489258E-1,9.597488403E0,-7.032516479E0
8.004601787E0,-3.025512695E-1,9.639678955E0,-7.051849365E0
8.009637188E0,-2.680816650E-1,9.617660522E0,-7.007873535E0
8.014672588E0,-3.076019287E-1,9.617477417E0,-7.061660767E0
8.019707989E0,-2.767486572E-1,9.648559570E0,-7.065231323E0
8.024743389E0,-2.868957520E-1,9.572463989E0,-7.039321899E0
8.029778789E0,-2.584533691E-1,9.608566284E0,-7.067230225E0
8.034814190E0,-3.099822998E-1,9.594116211E0,-7.043716431E0
8.039849590E0,-2.620849609E-1,9.607254028E0,-7.012100220E0
8.044884991E0,-2.820587158E-1,9.620422363E0,-7.050842285E0
8.049920391E0,-2.671661377E-1,9.607406616E0,-7.020141602E0
8.054955791E0,-2.908477783E-1,9.614303589E0,-7.041732788E0
8.059991192E0,-2.908477783E-1,9.630630493E0,-7.034103394E0
8.065026592E0,-2.845611572E-1,9.634643555E0,-7.037536621E0
8.070061992E0,-2.696838379E-1,9.600433350E0,-7.015182495E0
8.075097393E0,-3.100433350E-1,9.596176147E0,-7.023452759E0
8.080132793E0,-2.752075195E-1,9.595230103E0,-7.001251221E0
8.085168194E0,-2.883605957E-1,9.575057983E0,-7.059860229E0
8.090203594E0,-3.148193359E-1,9.593154907E0,-7.017410278E0
8.095238994E0,-2.869873047E-1,9.606414795E0,-7.028091431E0
8.100274395E0,-2.684936523E-1,9.621139526E0,-7.035659790E0
8.105309795E0,-2.575225830E-1,9.632186890E0,-7.025390625E0
8.110345196E0,-2.813873291E-1,9.598342896E0,-7.015579224E0
8.115380596E0,-2.772369385E-1,9.608978271E0,-7.001907349E0
8.120415996E0,-2.565460205E-1,9.607681274E0,-7.045898438E0
8.125451397E0,-2.940521240E-1,9.596908569E0,-7.019515991E0
8.130486797E0,-3.106536865E-1,9.588043213E0,-7.042694092E0
8.135522198E0,-2.942352295E-1,9.606231689E0,-7.050613403E0
8.140557598E0,-2.817382812E-1,9.596603394E0,-7.029144287E0
8.145592998E0,-2.977142334E-1,9.615646362E0,-7.010314941E0
8.150628399E0,-3.027343750E-1,9.607513428E0,-6.983398438E0
8.155663799E0,-2.698516846E-1,9.597549438E0,-7.014083862E0
8.160699200E0,-2.730255127E-1,9.579772949E0,-7.049118042E0
8.165734600E0,-2.667541504E-1,9.591064453E0,-7.012420654E0
8.170770000E0,-2.836761475E-1,9.612045288E0,-7.027816772E0
8.175805401E0,-2.653656006E-1,9.586090088E0,-7.008758545E0
8.180840801E0,-2.790374756E-1,9.599548340E0,-7.046432495E0
8.185876201E0,-3.160858154E-1,9.609207153E0,-7.038330078E0
8.190911602E0,-3.107299805E-1,9.610122681E0,-7.074905396E0
8.195947002E0,-2.966003418E-1,9.592071533E0,-7.058639526E0
8.200982403E0,-2.818298340E-1,9.599945068E0,-7.031265259E0
8.206017803E0,-2.864532471E-1,9.627212524E0,-7.061599731E0
8.211053203E0,-2.710571289E-1,9.614318848E0,-7.059738159E0
8.216088604E0,-2.865905762E-1,9.580856323E0,-7.028030396E0
8.221124004E0,-2.884979248E-1,9.585174561E0,-7.053405762E0
8.226159405E0,-2.888031006E-1,9.579330444E0,-7.042358398E0
8.231194805E0,-2.651367188E-1,9.587661743E0,-7.016601562E0
8.236230205E0,-2.686614990E-1,9.616363525E0,-7.019912720E0
8.241265606E0,-2.942810059E-1,9.610046387E0,-7.027755737E0
8.246301006E0,-2.819671631E-1,9.602615356E0,-7.058425903E0
8.251336407E0,-2.713165283E-1,9.615066528E0,-7.030502319E0
8.256371807E0,-2.635955811E-1,9.611587524E0,-7.011489868E0
8.261407207E0,-2.601165771E-1,9.611145020E0,-7.054382324E0
8.266442608E0,-2.718658447E-1,9.609313965E0,-7.054687500E0
8.271478008E0,-2.750701904E-1,9.629913330E0,-7.027709961E0
8.276513408E0,-2.814178467E-1,9.634048462E0,-7.027755737E0
8.281548809E0,-2.718811035E-1,9.599716187E0,-7.026733398E0
8.286584209E0,-2.686157227E-1,9.605087280E0,-7.023971558E0
8.291619610E0,-3.086700439E-1,9.592468262E0,-7.022323608E0
8.296655010E0,-2.905731201E-1,9.601058960E0,-7.034286499E0
8.301690410E0,-2.670440674E-1,9.618087769E0,-7.039245605E0
8.306725811E0,-2.732238770E-1,9.628967285E0,-7.026473999E0
8.311761211E0,-2.939300537E-1,9.636718750E0,-7.009368896E0
8.316796612E0,-3.062591553E-1,9.620880127E0,-7.040817261E0
8.321832012E0,-2.795867920E-1,9.628540039E0,-7.049758911E0
8.326867412E0,-2.744293213E-1,9.620864868E0,-7.027816772E0
8.331902813E0,-2.911224365E-1,9.599731445E0,-7.059387207E0
8.336938213E0,-3.025817871E-1,9.597656250E0,-7.046325684E0
8.341973614E0,-3.018035889E-1,9.596435547E0,-7.072280884E0
8.347009014E0,-2.792510986E-1,9.599136353E0,-7.086242676E0
8.352044414E0,-2.684326172E-1,9.595932007E0,-7.050460815E0
8.357079815E0,-2.680358887E-1,9.596893311E0,-7.042846680E0
8.362115215E0,-2.740936279E-1,9.590560913E0,-7.028350830E0
8.367150616E0,-2.803802490E-1,9.608551025E0,-7.013351440E0
8.372186016E0,-2.755279541E-1,9.596603394E0,-7.013412476E0
8.377221416E0,-2.864685059E-1,9.585357666E0,-6.994735718E0
8.382256817E0,-3.059844971E-1,9.610656738E0,-7.013031006E0
8.387292217E0,-3.033142090E-1,9.603820801E0,-7.060333252E0
8.392327617E0,-2.798767090E-1,9.599853516E0,-7.075653076E0
8.397363018E0,-2.770538330E-1,9.614883423E0,-7.065628052E0
8.402398418E0,-2.937164307E-1,9.610031128E0,-7.046554565E0
8.407433819E0,-3.019409180E-1,9.605773926E0,-7.053176880E0
8.412469219E0,-3.106689453E-1,9.592346191E0,-7.050994873E0
8.417504619E0,-2.747497559E-1,9.621887207E0,-7.044616699E0
8.422540020E0,-2.777099609E-1,9.628631592E0,-7.014831543E0
8.427575420E0,-2.868499756E-1,9.592361450E0,-7.013992310E0
8.432610821E0,-2.910461426E-1,9.607727051E0,-7.053024292E0
8.437646221E0,-3.098297119E-1,9.592666626E0,-7.054367065E0
8.442681621E0,-3.086395264E-1,9.603912354E0,-7.046905518E0
8.447717022E0,-2.643737793E-1,9.617126465E0,-7.010543823E0
8.452752422E0,-2.582855225E-1,9.615066528E0,-7.035614014E0
8.457787823E0,-2.951049805E-1,9.605102539E0,-7.030242920E0
8.462823223E0,-2.988128662E-1,9.619247437E0,-7.013702393E0
8.467858623E0,-2.885894775E-1,9.620361328E0,-7.026306152E0
8.472894024E0,-2.825317383E-1,9.629180908E0,-7.006988525E0
8.477929424E0,-2.723388672E-1,9.609375000E0,-7.032806396E0
8.482964825E0,-2.895050049E-1,9.607299805E0,-7.031051636E0
8.488000225E0,-2.882385254E-1,9.586853027E0,-7.032699585E0
8.493035625E0,-2.567291260E-1,9.606109619E0,-7.065505981E0
8.498071026E0,-2.722625732E-1,9.583877563E0,-7.005737305E0
8.503106426E0,-2.864990234E-1,9.598281860E0,-6.979156494E0
8.508141826E0,-2.903900146E-1,9.604217529E0,-7.017349243E0
8.513177227E0,-3.234710693E-1,9.615722656E0,-7.042510986E0
8.518212627E0,-2.425231934E-1,9.610763550E0,-7.063583374E0
8.523248028E0,-2.801666260E-1,9.616744995E0,-7.026794434E0
8.528283428E0,-2.638397217E-1,9.622406006E0,-7.023529053E0
8.533318828E0,-2.792510986E-1,9.621276855E0,-7.014923096E0
8.538354229E0,-2.617034912E-1,9.616867065E0,-6.990875244E0
8.543389629E0,-2.898101807E-1,9.608047485E0,-7.018981934E0
8.548425030E0,-2.996826172E-1,9.610656738E0,-7.016662598E0
8.553460430E0,-3.188018799E-1,9.635910034E0,-7.060287476E0
8.558495830E0,-2.929382324E-1,9.604873657E0,-7.044967651E0
8.563531231E0,-2.822418213E-1,9.605682373E0,-7.053909302E0
8.568566631E0,-2.687988281E-1,9.642120361E0,-7.018112183E0
8.573602032E0,-2.817840576E-1,9.617599487E0,-7.033935547E0
8.578637432E0,-2.858428955E-1,9.596679688E0,-7.021759033E0
8.583672832E0,-2.753601074E-1,9.609725952E0,-7.037216187E0
8.588708233E0,-2.785186768E-1,9.619995117E0,-7.013122559E0
8.593743633E0,-2.941894531E-1,9.607803345E0,-6.984375000E0
8.598779033E0,-2.758941650E-1,9.606597900E0,-7.034545898E0
8.603814434E0,-3.028717041E-1,9.588943481E0,-7.050094604E0
8.608849834E0,-2.940368652E-1,9.620864868E0,-7.059860229E0
8.613885235E0,-2.775878906E-1,9.580780029E0,-7.033676147E0
8.618920635E0,-2.900695801E-1,9.609527588E0,-7.079177856E0
8.623956035E0,-2.931365967E-1,9.572616577E0,-6.995346069E0
8.628991436E0,-2.748870850E-1,9.612167358E0,-7.023574829E0
8.634026836E0,-2.995758057E-1,9.599884033E0,-7.066329956E0
8.639062237E0,-3.003692627E-1,9.592483521E0,-6.995635986E0
8.644097637E0,-2.957000732E-1,9.611007690E0,-6.996185303E0
8.649133037E0,-2.721099854E-1,9.573730469E0,-7.010330200E0
8.654168438E0,-2.812805176E-1,9.599288940E0,-7.083847046E0
8.659203838E0,-2.646331787E-1,9.590072632E0,-7.001052856E0
8.664239239E0,-2.576446533E-1,9.613739014E0,-7.012893677E0
8.669274639E0,-2.672729492E-1,9.613296509E0,-7.012283325E0
8.674310039E0,-2.787780762E-1,9.590515137E0,-6.980728149E0
8.679345440E0,-2.718048096E-1,9.613510132E0,-7.026657104E0
8.684380840E0,-2.720794678E-1,9.607284546E0,-7.012176514E0
8.689416241E0,-2.792968750E-1,9.623428345E0,-7.056076050E0
8.694451641E0,-2.855682373E-1,9.583145142E0,-7.059738159E0
8.699487041E0,-2.790374756E-1,9.628067017E0,-7.007049561E0
8.704522442E0,-3.141632080E-1,9.592788696E0,-7.029083252E0
8.709557842E0,-2.748870850E-1,9.599975586E0,-7.055557251E0
8.714593242E0,-2.812652588E-1,9.606399536E0,-7.051467896E0
8.719628643E0,-2.588653564E-1,9.606857300E0,-7.031585693E0
8.724664043E0,-3.209075928E-1,9.633636475E0,-7.048568726E0
8.729699444E0,-2.863769531E-1,9.617324829E0,-7.004714966E0
8.734734844E0,-2.688751221E-1,9.609466553E0,-7.045593262E0
8.739770244E0,-2.812347412E-1,9.627258301E0,-7.091415405E0
8.744805645E0,-2.637481689E-1,9.588073730E0,-7.035812378E0
8.749841045E0,-2.772369385E-1,9.605621338E0,-7.031372070E0
8.754876446E0,-2.970428467E-1,9.585983276E0,-7.047348022E0
8.759911846E0,-2.891845703E-1,9.607589722E0,-7.059661865E0
8.764947246E0,-2.810363770E-1,9.610244751E0,-6.994827271E0
8.769982647E0,-2.917785645E-1,9.595367432E0,-6.996139526E0
8.775018047E0,-2.806701660E-1,9.623733521E0,-7.041000366E0
8.780053448E0,-2.691345215E-1,9.610076904E0,-7.011550903E0
8.785088848E0,-2.866516113E-1,9.596099854E0,-7.053619385E0
8.790124248E0,-2.622680664E-1,9.611557007E0,-7.011810303E0
8.795159649E0,-2.537536621E-1,9.600051880E0,-7.014541626E0
8.800195049E0,-3.068084717E-1,9.602005005E0,-6.996139526E0
8.805230450E0,-2.893981934E-1,9.636047363E0,-6.982940674E0
8.810265850E0,-2.846221924E-1,9.598358154E0,-7.025695801E0
8.815301250E0,-3.158264160E-1,9.582550049E0,-7.058990479E0
8.820336651E0,-2.807312012E-1,9.579711914E0,-7.045822144E0
8.825372051E0,-2.738800049E-1,9.601837158E0,-7.063919067E0
8.830407451E0,-3.026580811E-1,9.606918335E0,-7.037567139E0
8.835442852E0,-2.747192383E-1,9.619766235E0,-7.091491699E0
8.840478252E0,-2.861022949E-1,9.608978271E0,-7.061538696E0
8.845513653E0,-2.882385254E-1,9.611465454E0,-7.009445190E0
8.850549053E0,-2.792968750E-1,9.629348755E0,-7.041854858E0
8.855584453E0,-2.886657715E-1,9.641326904E0,-7.024215698E0
8.860619854E0,-2.772369385E-1,9.590682983E0,-7.053817749E0
8.865655254E0,-2.762298584E-1,9.580413818E0,-7.031234741E0
8.870690655E0,-2.659301758E-1,9.587417603E0,-7.007827759E0
8.875726055E0,-2.539062500E-1,9.588973999E0,-6.988677979E0
8.880761455E0,-2.537689209E-1,9.579391479E0,-7.008972168E0
8.885796856E0,-2.552032471E-1,9.628356934E0,-7.047775269E0
8.890832256E0,-2.325286865E-1,9.616043091E0,-7.070373535E0
8.895867657E0,-2.630462646E-1,9.615386963E0,-7.045425415E0
8.900903057E0,-2.766113281E-1,9.603408813E0,-7.039047241E0
8.905938457E0,-2.851715088E-1,9.592895508E0,-7.025482178E0
8.910973858E0,-2.667083740E-1,9.575653076E0,-7.016815186E0
8.916009258E0,-2.621917725E-1,9.601333618E0,-7.009277344E0
8.921044658E0,-2.867889404E-1,9.641830444E0,-7.011672974E0
8.926080059E0,-2.985992432E-1,9.639862061E0,-7.044937134E0
8.931115459E0,-3.001098633E-1,9.638320923E0,-7.057479858E0
8.936150860E0,-3.002014160E-1,9.612457275E0,-7.033050537E0
8.941186260E0,-2.689666748E-1,9.610305786E0,-7.021133423E0
8.946221660E0,-2.583007812E-1,9.627426147E0,-7.032958984E0
8.951257061E0,-2.865447998E-1,9.626358032E0,-7.028701782E0
8.956292461E0,-2.747802734E-1,9.608383179E0,-7.029541016E0
8.961327862E0,-2.724456787E-1,9.635101318E0,-7.006790161E0
8.966363262E0,-2.799072266E-1,9.645950317E0,-7.037765503E0
8.971398662E0,-2.864379883E-1,9.625747681E0,-7.056655884E0
8.976434063E0,-2.892456055E-1,9.604202271E0,-7.026916504E0
8.981469463E0,-2.855377197E-1,9.603042603E0,-7.044677734E0
8.986504864E0,-2.866363525E-1,9.616119385E0,-7.052947998E0
8.991540264E0,-2.668762207E-1,9.610595703E0,-7.013992310E0
8.996575664E0,-2.727813721E-1,9.586334229E0,-6.999771118E0
9.001611065E0,-2.539367676E-1,9.587631226E0,-7.038055420E0
9.006646465E0,-2.553405762E-1,9.596450806E0,-7.022842407E0
9.011681866E0,-2.860412598E-1,9.585052490E0,-6.995407104E0
9.016717266E0,-2.884674072E-1,9.600570679E0,-6.984298706E0
9.021752666E0,-2.848663330E-1,9.612548828E0,-6.993896484E0
9.026788067E0,-2.752380371E-1,9.608856201E0,-7.022994995E0
9.031823467E0,-2.817687988E-1,9.606674194E0,-7.032638550E0
9.036858867E0,-2.957305908E-1,9.610214233E0,-7.017532349E0
9.041894268E0,-2.725830078E-1,9.602462769E0,-7.019073486E0
9.046929668E0,-2.581329346E-1,9.605026245E0,-7.053405762E0
9.051965069E0,-2.659759521E-1,9.600662231E0,-7.054718018E0
9.057000469E0,-2.736511230E-1,9.576721191E0,-7.032989502E0
9.062035869E0,-2.949829102E-1,9.602172852E0,-7.005218506E0
9.067071270E0,-2.602691650E-1,9.607452393E0,-7.020767212E0
9.072106670E0,-2.406768799E-1,9.588562012E0,-7.019760132E0
9.077142071E0,-2.750701904E-1,9.594512939E0,-7.043197632E0
9.082177471E0,-2.950744629E-1,9.616348267E0,-7.076187134E0
9.087212871E0,-2.738189697E-1,9.595291138E0,-7.055816650E0
9.092248272E0,-2.790832520E-1,9.586196899E0,-7.021331787E0
9.097283672E0,-2.700195312E-1,9.603393555E0,-7.018280029E0
9.102319073E0,-2.826690674E-1,9.593032837E0,-7.045059204E0
9.107354473E0,-2.944641113E-1,9.602005005E0,-7.058120728E0
9.112389873E0,-2.787780762E-1,9.606185913E0,-7.036987305E0
9.117425274E0,-3.099060059E-1,9.598785400E0,-6.986694336E0
9.122460674E0,-2.774810791E-1,9.617065430E0,-7.003738403E0
9.127496075E0,-2.759704590E-1,9.629562378E0,-7.020126343E0
9.132531475E0,-2.704772949E-1,9.600616455E0,-7.066238403E0
9.137566875E0,-2.646789551E-1,9.597900391E0,-7.048461914E0
9.142602276E0,-2.831573486E-1,9.600982666E0,-7.059387207E0
9.147637676E0,-2.778472900E-1,9.618957520E0,-7.030883789E0
9.152673076E0,-2.931365967E-1,9.618179321E0,-7.046585083E0
9.157708477E0,-2.961425781E-1,9.615386963E0,-7.016540527E0
9.162743877E0,-2.982482910E-1,9.599426270E0,-7.042953491E0
9.167779278E0,-2.448120117E-1,9.622619629E0,-7.049407959E0
9.172814678E0,-2.423248291E-1,9.607818604E0,-7.045532227E0
9.177850078E0,-2.606964111E-1,9.595352173E0,-7.017028809E0
9.182885479E0,-2.681427002E-1,9.617279053E0,-7.019653320E0
9.187920879E0,-2.553863525E-1,9.604553223E0,-7.040588379E0
9.192956280E0,-2.822570801E-1,9.605926514E0,-6.998397827E0
9.197991680E0,-2.700195312E-1,9.594696045E0,-7.030151367E0
9.203027080E0,-2.838897705E-1,9.593521118E0,-7.042617798E0
9.208062481E0,-2.872314453E-1,9.620086670E0,-6.996093750E0
9.213097881E0,-2.769012451E-1,9.622497559E0,-6.996658325E0
9.218133282E0,-2.704925537E-1,9.628265381E0,-7.039764404E0
9.223168682E0,-2.806549072E-1,9.606094360E0,-6.994888306E0
9.228204082E0,-2.761688232E-1,9.605102539E0,-6.998428345E0
9.233239483E0,-2.798919678E-1,9.616104126E0,-6.980545044E0
9.238274883E0,-2.909088135E-1,9.608917236E0,-7.022689819E0
9.243310283E0,-2.971038818E-1,9.610458374E0,-7.028518677E0
9.248345684E0,-2.707672119E-1,9.593841553E0,-7.031051636E0
9.253381084E0,-2.863616943E-1,9.605697632E0,-7.047698975E0
9.258416485E0,-2.729644775E-1,9.587097168E0,-7.052963257E0
9.263451885E0,-3.195037842E-1,9.580780029E0,-7.013290405E0
9.268487285E0,-2.724456787E-1,9.584442139E0,-7.017852783E0
9.273522686E0,-2.805786133E-1,9.601425171E0,-7.032226562E0
9.278558086E0,-2.775726318E-1,9.583740234E0,-7.013839722E0
9.283593487E0,-2.580261230E-1,9.609268188E0,-7.037292480E0
9.288628887E0,-2.781219482E-1,9.609558105E0,-7.033096313E0
9.293664287E0,-2.666015625E-1,9.596343994E0,-7.015090942E0
9.298699688E0,-2.710266113E-1,9.592575073E0,-7.063751221E0
9.303735088E0,-2.995452881E-1,9.609375000E0,-7.031616211E0
9.308770489E0,-3.006134033E-1,9.613494873E0,-7.046508789E0
9.313805889E0,-3.155212402E-1,9.600753784E0,-7.044265747E0
9.318841289E0,-2.778472900E-1,9.601623535E0,-7.065597534E0
9.323876690E0,-2.653656006E-1,9.575363159E0,-6.975021362E0
9.328912090E0,-3.268585205E-1,9.599914551E0,-7.038726807E0
9.333947491E0,-2.709655762E-1,9.644302368E0,-6.999130249E0
9.338982891E0,-2.738037109E-1,9.588562012E0,-7.077209473E0
9.344018291E0,-3.262634277E-1,9.598754883E0,-7.009460449E0
9.349053692E0,-2.856445312E-1,9.599456787E0,-7.008026123E0
9.354089092E0,-2.882995605E-1,9.592575073E0,-6.985198975E0
9.359124492E0,-2.861633301E-1,9.626922607E0,-7.032791138E0
9.364159893E0,-2.673950195E-1,9.618667603E0,-7.038986206E0
9.369195293E0,-3.023223877E-1,9.609085083E0,-7.060226440E0
9.374230694E0,-3.074951172E-1,9.620803833E0,-7.069961548E0
9.379266094E0,-3.027496338E-1,9.597076416E0,-7.041458130E0
9.384301494E0,-2.742462158E-1,9.597167969E0,-7.003616333E0
9.389336895E0,-2.837066650E-1,9.613647461E0,-7.044204712E0
9.394372295E0,-2.839355469E-1,9.606719971E0,-7.073425293E0
9.399407696E0,-2.948608398E-1,9.613327026E0,-7.002441406E0
9.404443096E0,-2.648468018E-1,9.597763062E0,-7.059799194E0
9.409478496E0,-2.700195312E-1,9.615371704E0,-7.042404175E0
9.414513897E0,-2.887115479E-1,9.590911865E0,-7.069137573E0
9.419549297E0,-2.916717529E-1,9.565048218E0,-7.008743286E0
9.424584698E0,-2.665557861E-1,9.589721680E0,-7.057876587E0
9.429620098E0,-2.962646484E-1,9.621475220E0,-7.017318726E0
9.434655498E0,-3.065643311E-1,9.592605591E0,-7.012680054E0
9.439690899E0,-3.146209717E-1,9.552749634E0,-7.005065918E0
9.444726299E0,-2.458038330E-1,9.626968384E0,-6.961914062E0
9.449761700E0,-2.706604004E-1,9.576965332E0,-7.054489136E0
9.454797100E0,-2.831573486E-1,9.609237671E0,-6.981948853E0
9.459832500E0,-2.977294922E-1,9.611358643E0,-6.988769531E0
9.464867901E0,-2.982330322E-1,9.609603882E0,-7.036575317E0
9.469903301E0,-3.121643066E-1,9.602554321E0,-6.986755371E0
9.474938701E0,-2.747955322E-1,9.635131836E0,-7.012619019E0
9.479974102E0,-2.513427734E-1,9.605880737E0,-7.067047119E0
9.485009502E0,-2.725067139E-1,9.613327026E0,-7.030136108E0
9.490044903E0,-2.765655518E-1,9.601425171E0,-7.010467529E0
9.495080303E0,-2.807464600E-1,9.623352051E0,-7.040100098E0
9.500115703E0,-3.007202148E-1,9.607696533E0,-7.051208496E0
9.505151104E0,-2.933807373E-1,9.599182129E0,-7.014694214E0
9.510186504E0,-3.020935059E-1,9.632720947E0,-7.011001587E0
9.515221905E0,-2.866821289E-1,9.590377808E0,-7.060226440E0
9.520257305E0,-2.854614258E-1,9.594635010E0,-7.076278687E0
9.525292705E0,-3.113098145E-1,9.608062744E0,-7.059982300E0
9.530328106E0,-3.054809570E-1,9.618179321E0,-7.039962769E0
9.535363506E0,-3.016510010E-1,9.602584839E0,-6.993499756E0
9.540398907E0,-3.060607910E-1,9.611053467E0,-6.978530884E0
9.545434307E0,-2.760162354E-1,9.611206055E0,-7.082550049E0
9.550469707E0,-2.713623047E-1,9.625885010E0,-7.024993896E0
9.555505108E0,-2.698364258E-1,9.580230713E0,-7.066360474E0
9.560540508E0,-2.896423340E-1,9.605422974E0,-7.014144897E0
9.565575908E0,-2.783355713E-1,9.620483398E0,-7.043716431E0
9.570611309E0,-2.721099854E-1,9.629577637E0,-7.025192261E0
9.575646709E0,-2.638244629E-1,9.614990234E0,-6.996459961E0
9.580682110E0,-2.775268555E-1,9.590103149E0,-7.005371094E0
9.585717510E0,-2.935943604E-1,9.577713013E0,-6.998916626E0
9.590752910E0,-3.032226562E-1,9.594741821E0,-6.992340088E0
9.595788311E0,-2.834777832E-1,9.579010010E0,-7.045501709E0
9.600823711E0,-2.869873047E-1,9.611938477E0,-7.031982422E0
9.605859112E0,-2.784271240E-1,9.610946655E0,-7.029891968E0
9.610894512E0,-2.716674805E-1,9.593917847E0,-7.040374756E0
9.615929912E0,-2.962188721E-1,9.598571777E0,-6.987869263E0
9.620965313E0,-3.105926514E-1,9.603363037E0,-7.029373169E0
9.626000713E0,-2.740783691E-1,9.586730957E0,-7.004928589E0
9.631036114E0,-2.738342285E-1,9.578506470E0,-7.084289551E0
9.636071514E0,-3.002777100E-1,9.590957642E0,-7.099822998E0
9.641106914E0,-2.970123291E-1,9.629928589E0,-7.048889160E0
9.646142315E0,-2.746887207E-1,9.619979858E0,-7.005462646E0
9.651177715E0,-2.803192139E-1,9.621185303E0,-7.008178711E0
9.656213116E0,-2.661285400E-1,9.617401123E0,-7.005401611E0
9.661248516E0,-2.753601074E-1,9.613494873E0,-6.999588013E0
9.666283916E0,-2.745513916E-1,9.625183105E0,-7.011123657E0
9.671319317E0,-2.855682373E-1,9.616088867E0,-7.015441895E0
9.676354717E0,-2.761535645E-1,9.605056763E0,-7.045394897E0
9.681390117E0,-2.889709473E-1,9.594436646E0,-7.039184570E0
9.686425518E0,-2.926025391E-1,9.599746704E0,-7.052688599E0
9.691460918E0,-2.830810547E-1,9.613021851E0,-7.024887085E0
9.696496319E0,-2.853393555E-1,9.613143921E0,-7.029373169E0
9.701531719E0,-2.951049805E-1,9.621673584E0,-7.063125610E0
9.706567119E0,-3.003845215E-1,9.635360718E0,-7.020492554E0
9.711602520E0,-2.915496826E-1,9.639434814E0,-6.991058350E0
9.716637920E0,-2.814636230E-1,9.616073608E0,-6.996231079E0
9.721673321E0,-2.713470459E-1,9.617568970E0,-7.009811401E0
9.726708721E0,-2.733001709E-1,9.615753174E0,-7.029373169E0
9.731744121E0,-2.739562988E-1,9.598114014E0,-7.041275024E0
9.736779522E0,-2.813415527E-1,9.579376221E0,-7.035583496E0
9.741814922E0,-2.789459229E-1,9.600006104E0,-7.007949829E0
9.746850323E0,-2.972412109E-1,9.632476807E0,-7.049926758E0
9.751885723E0,-2.887573242E-1,9.603607178E0,-7.055221558E0
9.756921123E0,-2.783966064E-1,9.605026245E0,-7.027984619E0
9.761956524E0,-2.933807373E-1,9.606979370E0,-7.019836426E0
9.766991924E0,-2.943267822E-1,9.613967896E0,-7.030731201E0
9.772027325E0,-2.854003906E-1,9.622558594E0,-7.041137695E0
9.777062725E0,-2.644195557E-1,9.594985962E0,-7.019241333E0
9.782098125E0,-2.941589355E-1,9.588714600E0,-7.015563965E0
9.787133526E0,-2.874145508E-1,9.602462769E0,-6.997406006E0
9.792168926E0,-2.738952637E-1,9.612045288E0,-6.984664917E0
9.797204326E0,-2.555694580E-1,9.610565186E0,-7.022766113E0
9.802239727E0,-2.562561035E-1,9.599548340E0,-7.040145874E0
9.807275127E0,-2.746582031E-1,9.598953247E0,-7.062759399E0
9.812310528E0,-2.966918945E-1,9.627700806E0,-7.034500122E0
9.817345928E0,-3.040924072E-1,9.604034424E0,-7.054168701E0
9.822381328E0,-3.209075928E-1,9.579498291E0,-7.050033569E0
9.827416729E0,-2.979583740E-1,9.607223511E0,-7.016738892E0
9.832452129E0,-2.629852295E-1,9.608154297E0,-7.016540527E0
9.837487530E0,-2.658233643E-1,9.575057983E0,-7.030700684E0
9.842522930E0,-2.656555176E-1,9.584442139E0,-7.033615112E0
9.847558330E0,-2.653961182E-1,9.614151001E0,-7.055221558E0
9.852593731E0,-2.592163086E-1,9.604446411E0,-7.044128418E0
9.857629131E0,-2.694702148E-1,9.588317871E0,-7.027160645E0
9.862664532E0,-2.830200195E-1,9.602890015E0,-7.019958496E0
9.867699932E0,-2.991027832E-1,9.603225708E0,-7.025772095E0
9.872735332E0,-2.526550293E-1,9.617492676E0,-7.011505127E0
9.877770733E0,-2.604064941E-1,9.615707397E0,-7.005020142E0
9.882806133E0,-2.758636475E-1,9.606338501E0,-6.995727539E0
9.887841533E0,-2.563629150E-1,9.597473145E0,-7.043655396E0
9.892876934E0,-2.685089111E-1,9.613479614E0,-7.048171997E0
9.897912334E0,-2.955780029E-1,9.591506958E0,-7.034545898E0
9.902947735E0,-2.764739990E-1,9.580413818E0,-7.038940430E0
9.907983135E0,-2.723693848E-1,9.606964111E0,-7.030822754E0
9.913018535E0,-2.759704590E-1,9.592910767E0,-7.068237305E0
9.918053936E0,-2.909698486E-1,9.621154785E0,-7.051315308E0
9.923089336E0,-2.520751953E-1,9.618255615E0,-6.985214233E0
9.928124737E0,-2.730255127E-1,9.606460571E0,-7.029464722E0
9.933160137E0,-2.855377197E-1,9.576782227E0,-7.043106079E0
9.938195537E0,-2.860870361E-1,9.568511963E0,-7.076690674E0
9.943230938E0,-2.786102295E-1,9.611572266E0,-7.008041382E0
9.948266338E0,-2.690277100E-1,9.593063354E0,-7.026321411E0
9.953301739E0,-2.708587646E-1,9.611785889E0,-7.042388916E0
9.958337139E0,-2.698974609E-1,9.628067017E0,-7.026580811E0
9.963372539E0,-2.752532959E-1,9.614852905E0,-7.069015503E0
9.968407940E0,-3.040008545E-1,9.605468750E0,-6.989395142E0
9.973443340E0,-3.000335693E-1,9.612106323E0,-7.078613281E0
9.978478741E0,-2.701568604E-1,9.587875366E0,-7.027389526E0
9.983514141E0,-2.686767578E-1,9.602813721E0,-6.980834961E0
9.988549541E0,-2.452239990E-1,9.622726440E0,-7.053482056E0
9.993584942E0,-2.531280518E-1,9.627670288E0,-7.039016724E0
9.998620342E0,-2.736968994E-1,9.601226807E0,-7.038436890E0
1.000365574E1,-2.765655518E-1,9.588760376E0,-7.034912109E0
1.000869114E1,-2.556762695E-1,9.581283569E0,-7.076110840E0
1.001372654E1,-2.927551270E-1,9.616180420E0,-7.025100708E0
1.001876194E1,-2.854309082E-1,9.650177002E0,-7.084640503E0
1.002379734E1,-2.644195557E-1,9.617752075E0,-7.042373657E0
1.002883274E1,-2.644500732E-1,9.600753784E0,-7.008575439E0
1.003386815E1,-2.624969482E-1,9.597274780E0,-7.023162842E0
1.003890354E1,-2.842102051E-1,9.629943848E0,-7.035751343E0
1.004393895E1,-2.596130371E-1,9.590850830E0,-7.036697388E0
1.004897435E1,-2.464294434E-1,9.620864868E0,-7.027801514E0
1.005400975E1,-2.658691406E-1,9.616500854E0,-7.040664673E0
1.005904515E1,-2.783660889E-1,9.591201782E0,-7.014282227E0
1.006408055E1,-2.812347412E-1,9.669677734E0,-7.058456421E0
1.006911595E1,-2.584075928E-1,9.645721436E0,-6.982528687E0
1.007415135E1,-2.898406982E-1,9.605438232E0,-7.014175415E0
1.007918675E1,-2.769165039E-1,9.606536865E0,-6.982757568E0
1.008422215E1,-2.930297852E-1,9.599533081E0,-7.031311035E0
1.008925755E1,-2.814025879E-1,9.601821899E0,-7.008270264E0
1.009429295E1,-2.622833252E-1,9.616119385E0,-7.022415161E0
1.009932835E1,-2.956237793E-1,9.632461548E0,-7.012878418E0
1.010436375E1,-2.981719971E-1,9.580459595E0,-7.010192871E0
1.010939915E1,-3.111877441E-1,9.585906982E0,-6.985015869E0
1.011443455E1,-2.539825439E-1,9.625579834E0,-7.022521973E0
1.011946995E1,-3.017425537E-1,9.622741699E0,-7.028625488E0
1.012450535E1,-2.694244385E-1,9.606796265E0,-7.072845459E0
1.012954075E1,-2.701263428E-1,9.610183716E0,-7.030364990E0
1.013457615E1,-2.843627930E-1,9.588073730E0,-7.045028687E0
1.013961155E1,-2.940216064E-1,9.597503662E0,-7.027114868E0
1.014464695E1,-2.705535889E-1,9.604522705E0,-7.059356689E0
1.014968235E1,-2.846984863E-1,9.610534668E0,-7.012939453E0
1.015471775E1,-2.710418701E-1,9.628692627E0,-7.047439575E0
1.015975316E1,-3.137664795E-1,9.608322144E0,-7.086013794E0
1.016478856E1,-2.813262939E-1,9.603912354E0,-7.053649902E0
1.016982396E1,-2.813262939E-1,9.623992920E0,-7.035797119E0
1.017485936E1,-2.831573486E-1,9.623336792E0,-7.050674438E0
1.017989476E1,-2.952423096E-1,9.572189331E0,-7.061569214E0
1.018493016E1,-2.744903564E-1,9.612365723E0,-7.009429932E0
1.018996556E1,-2.807312012E-1,9.575851440E0,-6.972763062E0
1.019500096E1,-2.975006104E-1,9.621246338E0,-7.009078979E0
1.020003636E1,-2.437744141E-1,9.609664917E0,-7.026412964E0
1.020507176E1,-2.863006592E-1,9.612640381E0,-7.017562866E0
1.021010716E1,-2.779693604E-1,9.604324341E0,-7.060577393E0
1.021514256E1,-2.932891846E-1,9.589950562E0,-7.014816284E0
1.022017796E1,-2.755584717E-1,9.582519531E0,-7.037506104E0
1.022521336E1,-3.025207520E-1,9.604217529E0,-7.046234131E0
1.023024876E1,-2.904052734E-1,9.606460571E0,-7.056381226E0
1.023528416E1,-2.847595215E-1,9.611938477E0,-7.009979248E0
1.024031956E1,-2.790069580E-1,9.590377808E0,-7.030578613E0
1.024535496E1,-3.125915527E-1,9.582641602E0,-7.070571899E0
1.025039036E1,-2.899932861E-1,9.612869263E0,-7.021041870E0
1.025542576E1,-2.731933594E-1,9.599288940E0,-7.013107300E0
1.026046116E1,-2.882995605E-1,9.621047974E0,-7.061218262E0
