"Time (s)","Gyroscope x (rad/s)","Gyroscope y (rad/s)","Gyroscope z (rad/s)"
4.011224810E-1,1.174926758E-3,4.119873047E-4,-1.052856445E-3
4.061578810E-1,4.272460938E-4,-3.356933594E-4,-1.953125000E-3
4.111932810E-1,1.174926758E-3,-4.882812500E-4,-2.120971680E-3
4.162286820E-1,2.258300781E-3,-4.882812500E-4,-1.190185547E-3
4.212640820E-1,2.410888672E-3,-4.882812500E-4,-1.968383789E-3
4.262994830E-1,5.340576172E-4,4.425048828E-4,-2.120971680E-3
4.313348830E-1,2.746582031E-4,1.510620117E-3,-2.120971680E-3
4.363702830E-1,2.746582031E-4,1.647949219E-3,-2.120971680E-3
4.414056840E-1,2.182006836E-3,6.866455078E-4,-3.067016602E-3
4.464410840E-1,2.410888672E-3,1.541137695E-3,-2.212524414E-3
4.514764840E-1,4.577636719E-4,6.713867188E-4,-2.120971680E-3
4.565118850E-1,1.251220703E-3,-4.119873047E-4,-2.120971680E-3
4.615472850E-1,2.319335938E-3,1.464843750E-3,-2.120971680E-3
4.665826860E-1,1.419067383E-3,6.561279297E-4,-2.120971680E-3
4.716180860E-1,3.356933594E-4,-4.272460938E-4,-2.120971680E-3
4.766534860E-1,1.266479492E-3,-4.882812500E-4,-1.113891602E-3
4.816888870E-1,3.204345703E-4,5.187988281E-4,-1.052856445E-3
4.867242870E-1,-7.629394531E-4,-4.577636719E-4,-1.525878906E-5
4.917596880E-1,2.288818359E-4,-4.882812500E-4,1.525878906E-5
4.967950880E-1,2.746582031E-4,-4.882812500E-4,1.525878906E-5
5.018304880E-1,2.746582031E-4,-4.882812500E-4,1.525878906E-5
5.068658890E-1,1.312255859E-3,5.493164062E-4,1.525878906E-5
5.119012890E-1,2.746582031E-4,5.798339844E-4,-1.037597656E-3
5.169366900E-1,-1.861572266E-3,-4.882812500E-4,-2.105712891E-3
5.219720900E-1,2.746582031E-4,-4.882812500E-4,-3.189086914E-3
5.270074900E-1,2.746582031E-4,5.798339844E-4,-2.105712891E-3
5.320428910E-1,1.342773438E-3,1.632690430E-3,-1.052856445E-3
5.370782910E-1,1.312255859E-3,5.798339844E-4,-1.052856445E-3
5.421136910E-1,2.441406250E-4,5.187988281E-4,-1.068115234E-3
5.471490920E-1,-7.629394531E-4,-1.495361328E-3,-2.151489258E-3
5.521844920E-1,3.509521484E-4,5.340576172E-4,-3.097534180E-3
5.572198930E-1,2.349853516E-3,-4.425048828E-4,-9.918212891E-4
5.622552930E-1,1.281738281E-3,5.187988281E-4,-3.051757812E-5
5.672906930E-1,2.746582031E-4,-4.882812500E-4,-9.765625000E-4
5.723260940E-1,3.356933594E-4,-3.509521484E-4,-4.577636719E-5
5.773614940E-1,1.342773438E-3,1.556396484E-3,-1.052856445E-3
5.823968950E-1,1.342773438E-3,3.967285156E-4,-1.052856445E-3
5.874322950E-1,1.419067383E-3,-1.556396484E-3,-9.613037109E-4
5.924676950E-1,2.304077148E-3,-1.266479492E-3,1.525878906E-5
5.975030960E-1,1.342773438E-3,1.541137695E-3,1.525878906E-5
6.025384960E-1,1.220703125E-3,5.798339844E-4,-3.051757812E-4
6.075738970E-1,3.814697266E-4,5.798339844E-4,-3.067016602E-3
6.126092970E-1,1.205444336E-3,3.204345703E-4,-1.983642578E-3
6.176446970E-1,2.746582031E-4,-1.556396484E-3,-9.155273438E-4
6.226800980E-1,4.119873047E-4,-1.708984375E-3,1.525878906E-5
6.277154980E-1,1.480102539E-3,-2.334594727E-3,1.525878906E-5
6.327508990E-1,2.243041992E-3,-4.882812500E-4,-1.373291016E-4
6.377862990E-1,1.495361328E-3,-4.882812500E-4,-1.052856445E-3
6.428216990E-1,2.410888672E-3,-4.882812500E-4,-1.052856445E-3
6.478571000E-1,2.410888672E-3,-6.713867188E-4,-8.697509766E-4
6.528925000E-1,2.227783203E-3,-1.022338867E-3,-1.525878906E-4
6.579279000E-1,1.342773438E-3,1.647949219E-3,-1.419067383E-3
6.629633010E-1,1.342773438E-3,1.647949219E-3,-2.990722656E-3
6.679987010E-1,1.342773438E-3,1.434326172E-3,-1.907348633E-3
6.730341020E-1,1.129150391E-3,7.781982422E-4,-1.251220703E-3
6.780695020E-1,4.882812500E-4,1.419067383E-3,-2.120971680E-3
6.831049020E-1,1.342773438E-3,5.798339844E-4,-1.892089844E-3
6.881403030E-1,1.098632812E-3,3.356933594E-4,-1.052856445E-3
6.931757030E-1,2.746582031E-4,-7.324218750E-4,-1.052856445E-3
6.982111040E-1,1.525878906E-5,-1.068115234E-3,-1.296997070E-3
7.032465040E-1,-2.899169922E-4,8.239746094E-4,-1.861572266E-3
7.082819040E-1,1.602172852E-3,1.647949219E-3,-7.781982422E-4
7.133173050E-1,2.136230469E-3,1.373291016E-3,1.525878906E-5
7.183527050E-1,1.342773438E-3,5.798339844E-4,-2.441406250E-4
7.233881060E-1,1.342773438E-3,2.899169922E-4,-7.629394531E-4
7.284235060E-1,1.342773438E-3,-2.136230469E-4,1.525878906E-5
7.334589060E-1,1.037597656E-3,8.697509766E-4,1.525878906E-5
7.384943070E-1,5.798339844E-4,1.327514648E-3,-5.950927734E-4
7.435297070E-1,1.647949219E-3,-4.577636719E-5,-1.800537109E-3
7.485651080E-1,1.770019531E-3,-1.251220703E-3,-1.052856445E-3
7.536005080E-1,2.746582031E-4,-1.678466797E-4,-7.171630859E-4
7.586359080E-1,2.746582031E-4,2.441406250E-4,1.525878906E-5
7.636713090E-1,2.746582031E-4,-4.882812500E-4,-3.204345703E-4
7.687067090E-1,6.103515625E-4,-8.392333984E-4,-1.052856445E-3
7.737421090E-1,1.342773438E-3,-1.205444336E-3,-1.052856445E-3
7.787775100E-1,9.765625000E-4,-1.373291016E-4,-1.052856445E-3
7.838129100E-1,2.746582031E-4,2.136230469E-4,-6.866455078E-4
7.888483110E-1,1.007080078E-3,-4.882812500E-4,1.525878906E-5
7.938837110E-1,1.647949219E-3,2.593994141E-4,-3.509521484E-4
7.989191110E-1,1.052856445E-3,1.647949219E-3,-1.052856445E-3
8.039545120E-1,2.410888672E-3,1.235961914E-3,-6.408691406E-4
8.089899120E-1,2.410888672E-3,5.798339844E-4,1.525878906E-5
8.140253130E-1,1.586914062E-3,5.798339844E-4,4.272460938E-4
8.190607130E-1,6.866455078E-4,5.798339844E-4,2.593994141E-4
8.240961130E-1,1.342773438E-3,5.798339844E-4,-1.892089844E-3
8.291315140E-1,1.342773438E-3,1.373291016E-4,-3.189086914E-3
8.341669140E-1,9.002685547E-4,-4.882812500E-4,-2.746582031E-3
8.392023150E-1,7.171630859E-4,-9.460449219E-4,-2.120971680E-3
8.442377150E-1,1.342773438E-3,-1.113891602E-3,-1.663208008E-3
8.492731150E-1,8.850097656E-4,-4.882812500E-4,-1.373291016E-4
8.543085160E-1,7.324218750E-4,-3.051757812E-5,6.256103516E-4
8.593439160E-1,8.544921875E-4,9.155273438E-5,-4.577636719E-4
8.643793160E-1,2.746582031E-4,4.577636719E-4,-1.052856445E-3
8.694147170E-1,-2.136230469E-4,1.159667969E-3,-5.645751953E-4
8.744501170E-1,-7.934570312E-4,1.068115234E-3,1.525878906E-5
8.794855180E-1,-1.296997070E-3,1.144409180E-3,-4.730224609E-4
8.845209180E-1,-1.861572266E-3,5.798339844E-4,-1.556396484E-3
8.895563180E-1,-8.392333984E-4,6.103515625E-5,-1.602172852E-3
8.945917190E-1,2.746582031E-4,-4.882812500E-4,-1.571655273E-3
8.996271190E-1,7.934570312E-4,3.051757812E-5,-1.586914062E-3
9.046625200E-1,8.087158203E-4,5.798339844E-4,-1.052856445E-3
9.096979200E-1,8.087158203E-4,5.798339844E-4,-1.052856445E-3
9.147333200E-1,1.342773438E-3,1.525878906E-5,-1.052856445E-3
9.197687210E-1,2.136230469E-4,-4.882812500E-4,-1.602172852E-3
9.248041210E-1,-2.441406250E-4,-4.882812500E-4,-9.918212891E-4
9.298395220E-1,2.746582031E-4,7.629394531E-5,1.525878906E-5
9.348749220E-1,-3.051757812E-4,1.144409180E-3,-5.493164062E-4
9.399103220E-1,-1.968383789E-3,1.052856445E-3,-1.052856445E-3
9.449457230E-1,-2.349853516E-3,-1.525878906E-5,-1.632690430E-3
9.499811230E-1,-1.266479492E-3,-4.882812500E-4,-1.510620117E-3
9.550165240E-1,4.272460938E-4,-1.113891602E-3,-1.052856445E-3
9.600519240E-1,1.342773438E-3,-1.556396484E-3,-4.272460938E-4
9.650873240E-1,7.171630859E-4,-9.460449219E-4,-1.220703125E-3
9.701227250E-1,2.746582031E-4,-1.129150391E-3,-8.544921875E-4
9.751581250E-1,9.155273438E-4,-1.556396484E-3,1.525878906E-5
9.801935250E-1,1.342773438E-3,-9.155273438E-4,-1.281738281E-3
9.852289260E-1,6.713867188E-4,8.239746094E-4,-1.449584961E-3
9.902643260E-1,-3.967285156E-4,1.647949219E-3,-1.708984375E-3
9.952997270E-1,-1.373291016E-4,9.765625000E-4,-2.777099609E-3
1.000335127E0,2.746582031E-4,5.798339844E-4,-2.502441406E-3
1.005370527E0,2.746582031E-4,5.798339844E-4,-2.792358398E-3
1.010405928E0,1.647949219E-3,5.798339844E-4,-3.189086914E-3
1.015441328E0,1.708984375E-3,-1.220703125E-4,-1.785278320E-3
1.020476729E0,6.256103516E-4,-4.882812500E-4,-1.052856445E-3
1.025512129E0,2.746582031E-4,-4.882812500E-4,-3.173828125E-3
1.030547529E0,2.746582031E-4,-4.882812500E-4,-2.105712891E-3
1.035582930E0,2.746582031E-4,-1.220703125E-3,-1.052856445E-3
1.040618330E0,9.918212891E-4,-8.392333984E-4,-1.052856445E-3
1.045653731E0,1.342773438E-3,-4.882812500E-4,-1.052856445E-3
1.050689131E0,5.950927734E-4,-4.882812500E-4,-1.052856445E-3
1.055724531E0,2.746582031E-4,-4.882812500E-4,-1.052856445E-3
1.060759932E0,-4.882812500E-4,2.593994141E-4,-1.052856445E-3
1.065795332E0,-3.051757812E-5,-1.983642578E-4,-1.052856445E-3
1.070830733E0,-5.035400391E-4,-4.882812500E-4,-1.815795898E-3
1.075866133E0,-1.525878906E-5,-4.882812500E-4,-1.327514648E-3
1.080901533E0,2.746582031E-4,1.083374023E-3,-1.831054688E-3
1.085936934E0,1.068115234E-3,4.577636719E-5,-2.120971680E-3
1.090972334E0,1.342773438E-3,3.051757812E-4,-2.120971680E-3
1.096007734E0,5.340576172E-4,5.798339844E-4,-2.914428711E-3
1.101043135E0,1.083374023E-3,5.798339844E-4,-2.365112305E-3
1.106078535E0,1.342773438E-3,5.798339844E-4,-1.296997070E-3
1.111113936E0,1.342773438E-3,-2.593994141E-4,-1.052856445E-3
1.116149336E0,1.342773438E-3,-4.882812500E-4,-1.876831055E-3
1.121184736E0,2.182006836E-3,-4.882812500E-4,-2.120971680E-3
1.126220137E0,1.556396484E-3,-4.882812500E-4,-2.120971680E-3
1.131255537E0,1.342773438E-3,-1.358032227E-3,-1.251220703E-3
1.136290938E0,4.730224609E-4,-7.019042969E-4,-1.831054688E-4
1.141326338E0,1.144409180E-3,3.814697266E-4,1.525878906E-5
1.146361738E0,4.577636719E-4,-3.051757812E-4,-8.544921875E-4
1.151397139E0,2.044677734E-3,-4.882812500E-4,-1.052856445E-3
1.156432539E0,6.256103516E-4,3.967285156E-4,-1.052856445E-3
1.161467940E0,1.159667969E-3,5.798339844E-4,-1.937866211E-3
1.166503340E0,4.272460938E-4,5.798339844E-4,-3.021240234E-3
1.171538740E0,2.746582031E-4,-3.356933594E-4,-2.273559570E-3
1.176574141E0,2.746582031E-4,-4.882812500E-4,-1.190185547E-3
1.181609541E0,2.746582031E-4,4.272460938E-4,-2.899169922E-3
1.186644941E0,2.746582031E-4,1.510620117E-3,-3.189086914E-3
1.191680342E0,1.205444336E-3,7.019042969E-4,-2.243041992E-3
1.196715742E0,3.814697266E-4,5.798339844E-4,-1.159667969E-3
1.201751143E0,-6.866455078E-4,-3.814697266E-4,-2.960205078E-3
1.206786543E0,1.129150391E-3,4.730224609E-4,-2.212524414E-3
1.211821943E0,3.662109375E-4,5.798339844E-4,-1.144409180E-3
1.216857344E0,1.251220703E-3,-4.119873047E-4,-1.052856445E-3
1.221892744E0,1.342773438E-3,-1.480102539E-3,-2.029418945E-3
1.226928145E0,1.342773438E-3,-5.798339844E-4,-2.120971680E-3
1.231963545E0,-6.713867188E-4,-4.882812500E-4,-2.120971680E-3
1.236998945E0,1.220703125E-3,-4.882812500E-4,-1.098632812E-3
1.242034346E0,3.204345703E-4,-4.882812500E-4,-1.052856445E-3
1.247069746E0,1.296997070E-3,5.340576172E-4,1.007080078E-3
1.252105147E0,1.342773438E-3,1.602172852E-3,6.103515625E-5
1.257140547E0,3.051757812E-4,6.103515625E-4,-2.044677734E-3
1.262175947E0,2.746582031E-4,5.798339844E-4,-2.120971680E-3
1.267211348E0,1.312255859E-3,5.798339844E-4,-2.120971680E-3
1.272246748E0,1.342773438E-3,1.632690430E-3,-2.120971680E-3
1.277282149E0,1.342773438E-3,1.647949219E-3,-2.120971680E-3
1.282317549E0,-7.934570312E-4,5.645751953E-4,-2.120971680E-3
1.287352949E0,2.746582031E-4,-4.882812500E-4,-2.105712891E-3
1.292388350E0,2.746582031E-4,-4.730224609E-4,-1.052856445E-3
1.297423750E0,2.441406250E-4,5.950927734E-4,-1.052856445E-3
1.302459150E0,-7.629394531E-4,1.602172852E-3,-1.083374023E-3
1.307494551E0,3.051757812E-4,5.798339844E-4,-2.120971680E-3
1.312529951E0,1.419067383E-3,5.340576172E-4,-2.151489258E-3
1.317565352E0,3.417968750E-3,-4.425048828E-4,-3.189086914E-3
1.322600752E0,2.410888672E-3,5.798339844E-4,-3.112792969E-3
1.327636152E0,2.410888672E-3,5.035400391E-4,-2.120971680E-3
1.332671553E0,2.319335938E-3,-4.882812500E-4,-2.120971680E-3
1.337706953E0,1.251220703E-3,-4.882812500E-4,-2.120971680E-3
1.342742354E0,2.746582031E-4,-4.882812500E-4,-2.197265625E-3
1.347777754E0,2.746582031E-4,-3.967285156E-4,-3.082275391E-3
1.352813154E0,3.662109375E-4,6.713867188E-4,-2.014160156E-3
1.357848555E0,1.342773438E-3,1.525878906E-3,-1.052856445E-3
1.362883955E0,1.220703125E-3,4.577636719E-4,-1.052856445E-3
1.367919356E0,3.967285156E-4,-6.256103516E-4,-1.052856445E-3
1.372954756E0,1.205444336E-3,-1.434326172E-3,-1.052856445E-3
1.377990156E0,2.746582031E-4,-2.136230469E-4,-9.002685547E-4
1.383025557E0,2.746582031E-4,1.495361328E-3,-1.220703125E-4
1.388060957E0,2.746582031E-4,4.119873047E-4,-1.205444336E-3
1.393096358E0,2.746582031E-4,-4.882812500E-4,-2.120971680E-3
1.398131758E0,2.746582031E-4,-4.882812500E-4,-1.937866211E-3
1.403167158E0,2.746582031E-4,-3.204345703E-4,-1.052856445E-3
1.408202559E0,9.155273438E-5,7.476806641E-4,-1.052856445E-3
1.413237959E0,-4.272460938E-4,1.647949219E-3,-1.052856445E-3
1.418273359E0,1.342773438E-3,1.647949219E-3,-1.235961914E-3
1.423308760E0,9.155273438E-4,1.647949219E-3,-1.907348633E-3
1.428344160E0,-3.662109375E-4,1.647949219E-3,-1.052856445E-3
1.433379561E0,8.850097656E-4,1.647949219E-3,-1.266479492E-3
1.438414961E0,-7.934570312E-4,1.403808594E-3,-1.647949219E-3
1.443450361E0,-5.645751953E-4,5.798339844E-4,2.593994141E-4
1.448485762E0,5.187988281E-4,3.204345703E-4,8.392333984E-4
1.453521162E0,1.586914062E-3,-2.441406250E-4,-2.288818359E-4
1.458556563E0,2.136230469E-3,3.051757812E-4,-1.312255859E-3
1.463591963E0,1.342773438E-3,-4.882812500E-4,-2.120971680E-3
1.468627363E0,1.342773438E-3,-7.629394531E-4,-1.846313477E-3
1.473662764E0,7.781982422E-4,-1.556396484E-3,-1.052856445E-3
1.478698164E0,-5.187988281E-4,-1.007080078E-3,-1.052856445E-3
1.483733565E0,2.746582031E-4,8.697509766E-4,-1.052856445E-3
1.488768965E0,2.746582031E-4,1.327514648E-3,-7.324218750E-4
1.493804365E0,5.798339844E-4,8.850097656E-4,-2.899169922E-4
1.498839766E0,1.342773438E-3,1.647949219E-3,-1.358032227E-3
1.503875166E0,1.647949219E-3,1.007080078E-3,-2.120971680E-3
1.508910566E0,2.410888672E-3,-4.882812500E-4,-1.785278320E-3
1.513945967E0,2.410888672E-3,-1.678466797E-4,-7.171630859E-4
1.518981367E0,1.708984375E-3,9.155273438E-4,-3.204345703E-4
1.524016768E0,2.746582031E-4,1.281738281E-3,-1.052856445E-3
1.529052168E0,6.256103516E-4,2.136230469E-4,-1.403808594E-3
1.534087568E0,9.765625000E-4,-4.882812500E-4,-1.754760742E-3
1.539122969E0,2.746582031E-4,-1.220703125E-4,-6.713867188E-4
1.544158369E0,-1.068115234E-4,9.460449219E-4,-3.509521484E-4
1.549193770E0,-4.119873047E-4,8.697509766E-4,-1.052856445E-3
1.554229170E0,6.561279297E-4,-1.068115234E-4,-1.052856445E-3
1.559264570E0,1.373291016E-4,5.798339844E-4,-6.408691406E-4
1.564299971E0,-1.464843750E-3,1.678466797E-4,1.525878906E-5
1.569335371E0,3.051757812E-5,-7.629394531E-5,-3.967285156E-4
1.574370772E0,9.155273438E-4,5.798339844E-4,-6.256103516E-4
1.579406172E0,-1.678466797E-4,5.798339844E-4,-4.119873047E-4
1.584441572E0,7.629394531E-5,1.007080078E-3,-6.103515625E-4
1.589476973E0,1.342773438E-3,1.190185547E-3,1.525878906E-5
1.594512373E0,8.850097656E-4,1.220703125E-4,-4.272460938E-4
1.599547774E0,2.746582031E-4,-4.882812500E-4,-5.950927734E-4
1.604583174E0,-6.561279297E-4,-3.051757812E-5,4.882812500E-4
1.609618574E0,-1.388549805E-3,9.155273438E-5,1.373291016E-4
1.614653975E0,-3.204345703E-4,-1.525878906E-5,-2.014160156E-3
1.619689375E0,-2.288818359E-4,5.798339844E-4,-2.685546875E-3
1.624724775E0,-7.934570312E-4,1.068115234E-3,-2.120971680E-3
1.629760176E0,-3.051757812E-4,1.647949219E-3,-1.113891602E-3
1.634795576E0,1.281738281E-3,2.151489258E-3,-4.882812500E-4
1.639830977E0,1.892089844E-3,1.678466797E-3,-5.340576172E-4
1.644866377E0,2.899169922E-4,1.098632812E-3,-5.035400391E-4
1.649901777E0,-7.934570312E-4,1.113891602E-3,-5.187988281E-4
1.654937178E0,-7.934570312E-4,5.798339844E-4,-5.187988281E-4
1.659972578E0,-7.934570312E-4,1.113891602E-3,-1.052856445E-3
1.665007979E0,-7.934570312E-4,1.647949219E-3,-2.151489258E-3
1.670043379E0,3.204345703E-4,1.647949219E-3,-2.059936523E-3
1.675078779E0,7.629394531E-4,1.068115234E-3,-1.052856445E-3
1.680114180E0,-3.051757812E-4,5.798339844E-4,1.068115234E-4
1.685149580E0,-7.934570312E-4,5.798339844E-4,5.187988281E-4
1.690184981E0,-2.136230469E-4,5.798339844E-4,1.525878906E-5
1.695220381E0,8.544921875E-4,5.798339844E-4,6.103515625E-4
1.700255781E0,1.220703125E-4,5.798339844E-4,4.882812500E-4
1.705291182E0,-1.831054688E-4,1.190185547E-3,-5.950927734E-4
1.710326582E0,8.850097656E-4,1.022338867E-3,-1.663208008E-3
1.715361983E0,1.342773438E-3,5.798339844E-4,-2.120971680E-3
1.720397383E0,1.342773438E-3,1.205444336E-3,-1.480102539E-3
1.725432783E0,1.342773438E-3,1.007080078E-3,-1.052856445E-3
1.730468184E0,1.342773438E-3,5.798339844E-4,-1.693725586E-3
1.735503584E0,6.866455078E-4,1.220703125E-3,-2.120971680E-3
1.740538984E0,9.307861328E-4,9.765625000E-4,-1.449584961E-3
1.745574385E0,1.342773438E-3,1.235961914E-3,-1.052856445E-3
1.750609785E0,6.561279297E-4,9.613037109E-4,-3.662109375E-4
1.755645186E0,9.460449219E-4,-1.068115234E-4,1.525878906E-5
1.760680586E0,1.342773438E-3,1.983642578E-4,1.525878906E-5
1.765715986E0,1.342773438E-3,1.266479492E-3,7.171630859E-4
1.770751387E0,6.256103516E-4,9.307861328E-4,3.814697266E-4
1.775786787E0,2.746582031E-4,-1.373291016E-4,1.525878906E-5
1.780822188E0,2.746582031E-4,-4.882812500E-4,1.525878906E-5
1.785857588E0,2.746582031E-4,2.288818359E-4,1.525878906E-5
1.790892988E0,-4.730224609E-4,1.312255859E-3,7.629394531E-4
1.795928389E0,6.866455078E-4,9.002685547E-4,-3.967285156E-4
1.800963789E0,5.798339844E-4,5.798339844E-4,-1.800537109E-3
1.805999190E0,2.746582031E-4,2.090454102E-3,-2.120971680E-3
1.811034590E0,2.746582031E-4,1.953125000E-3,-1.358032227E-3
1.816069990E0,2.746582031E-4,8.697509766E-4,-1.052856445E-3
1.821105391E0,-5.187988281E-4,5.798339844E-4,-2.593994141E-4
1.826140791E0,-1.525878906E-5,-1.007080078E-3,-7.629394531E-4
1.831176191E0,-5.340576172E-4,-7.629394531E-4,-1.052856445E-3
1.836211592E0,0.000000000E0,3.051757812E-4,-1.052856445E-3
1.841246992E0,1.068115234E-3,1.373291016E-3,-1.052856445E-3
1.846282393E0,1.342773438E-3,1.525878906E-5,-1.052856445E-3
1.851317793E0,5.187988281E-4,1.144409180E-3,-1.052856445E-3
1.856353193E0,1.098632812E-3,2.471923828E-3,-2.136230469E-4
1.861388594E0,1.342773438E-3,1.876831055E-3,1.525878906E-5
1.866423994E0,4.882812500E-4,1.647949219E-3,-8.239746094E-4
1.871459395E0,1.113891602E-3,7.934570312E-4,-1.892089844E-3
1.876494795E0,1.342773438E-3,5.798339844E-4,-2.120971680E-3
1.881530195E0,2.197265625E-3,1.434326172E-3,-1.251220703E-3
1.886565596E0,2.410888672E-3,7.629394531E-4,7.019042969E-4
1.891600996E0,1.525878906E-3,5.798339844E-4,1.083374023E-3
1.896636397E0,1.342773438E-3,5.798339844E-4,1.983642578E-4
1.901671797E0,1.342773438E-3,5.798339844E-4,1.525878906E-5
1.906707197E0,1.342773438E-3,5.798339844E-4,1.525878906E-5
1.911742598E0,4.119873047E-4,5.798339844E-4,1.525878906E-5
1.916777998E0,1.190185547E-3,5.798339844E-4,1.876831055E-3
1.921813399E0,2.273559570E-3,5.798339844E-4,1.220703125E-3
1.926848799E0,1.464843750E-3,1.510620117E-3,-7.781982422E-4
1.931884199E0,3.967285156E-4,1.647949219E-3,-1.052856445E-3
1.936919600E0,2.746582031E-4,6.866455078E-4,-1.052856445E-3
1.941955000E0,1.220703125E-3,-1.342773438E-3,-9.155273438E-5
1.946990400E0,1.342773438E-3,-5.950927734E-4,-9.460449219E-4
1.952025801E0,2.304077148E-3,4.730224609E-4,-2.014160156E-3
1.957061201E0,1.419067383E-3,-4.119873047E-4,-1.525878906E-4
1.962096602E0,-6.408691406E-4,-4.882812500E-4,-1.953125000E-3
1.967132002E0,1.174926758E-3,4.882812500E-4,-2.120971680E-3
1.972167402E0,3.356933594E-4,5.798339844E-4,-2.120971680E-3
1.977202803E0,2.746582031E-4,-4.272460938E-4,-2.120971680E-3
1.982238203E0,1.281738281E-3,5.187988281E-4,-3.128051758E-3
1.987273604E0,2.349853516E-3,1.586914062E-3,-3.189086914E-3
1.992309004E0,1.373291016E-3,1.647949219E-3,-1.129150391E-3
1.997344404E0,3.051757812E-4,1.647949219E-3,-1.052856445E-3
2.002379805E0,1.312255859E-3,1.647949219E-3,-1.052856445E-3
2.007415205E0,1.342773438E-3,1.647949219E-3,-1.052856445E-3
2.012450606E0,1.342773438E-3,5.798339844E-4,1.525878906E-5
2.017486006E0,1.342773438E-3,5.798339844E-4,-2.105712891E-3
2.022521406E0,2.746582031E-4,5.798339844E-4,-3.189086914E-3
2.027556807E0,2.746582031E-4,1.632690430E-3,-2.120971680E-3
2.032592207E0,2.746582031E-4,5.645751953E-4,-3.158569336E-3
2.037627608E0,2.441406250E-4,-4.730224609E-4,-1.068115234E-3
2.042663008E0,-7.934570312E-4,5.950927734E-4,-2.090454102E-3
2.047698408E0,-7.629394531E-4,1.602172852E-3,-1.052856445E-3
2.052733809E0,3.509521484E-4,5.340576172E-4,-1.007080078E-3
2.057769209E0,2.304077148E-3,-4.425048828E-4,7.629394531E-5
2.062804609E0,2.136230469E-4,5.187988281E-4,9.155273438E-4
2.067840010E0,-7.934570312E-4,-4.882812500E-4,-2.120971680E-3
2.072875410E0,-7.324218750E-4,-4.882812500E-4,-2.182006836E-3
2.077910811E0,3.509521484E-4,-4.882812500E-4,-3.097534180E-3
2.082946211E0,1.251220703E-3,-4.882812500E-4,-2.120971680E-3
2.087981611E0,3.509521484E-4,-4.119873047E-4,-2.197265625E-3
2.093017012E0,1.342773438E-3,5.798339844E-4,-3.189086914E-3
2.098052412E0,1.449584961E-3,4.577636719E-4,-3.189086914E-3
2.103087813E0,2.288818359E-3,-4.882812500E-4,-3.295898438E-3
2.108123213E0,1.342773438E-3,-2.441406250E-4,-4.119873047E-3
2.113158613E0,1.342773438E-3,1.510620117E-3,-2.914428711E-3
2.118194014E0,1.342773438E-3,5.798339844E-4,-1.052856445E-3
2.123229414E0,1.617431641E-3,4.272460938E-4,-7.629394531E-4
2.128264815E0,3.173828125E-3,-4.882812500E-4,7.934570312E-4
2.133300215E0,1.174926758E-3,-3.356933594E-4,-1.052856445E-3
2.138335615E0,2.746582031E-4,3.967285156E-4,-1.052856445E-3
2.143371016E0,2.746582031E-4,-4.882812500E-4,-1.403808594E-3
2.148406416E0,2.746582031E-4,-4.882812500E-4,-3.005981445E-3
2.153441816E0,2.746582031E-4,-4.882812500E-4,-2.120971680E-3
2.158477217E0,4.577636719E-4,-4.882812500E-4,-2.120971680E-3
2.163512617E0,1.739501953E-3,-2.899169922E-4,-1.907348633E-3
2.168548018E0,3.265380859E-3,3.662109375E-4,-1.052856445E-3
2.173583418E0,2.182006836E-3,-2.746582031E-4,-1.266479492E-3
2.178618818E0,1.342773438E-3,5.798339844E-4,-1.892089844E-3
2.183654219E0,1.342773438E-3,5.798339844E-4,-1.281738281E-3
2.188689619E0,1.571655273E-3,5.798339844E-4,-2.120971680E-3
2.193725020E0,2.151489258E-3,5.798339844E-4,-2.120971680E-3
2.198760420E0,1.083374023E-3,8.239746094E-4,-1.861572266E-3
2.203795820E0,7.934570312E-4,1.373291016E-3,-1.312255859E-3
2.208831221E0,2.136230469E-3,4.577636719E-5,-2.120971680E-3
2.213866621E0,1.602172852E-3,-1.556396484E-3,-2.380371094E-3
2.218902022E0,2.120971680E-3,-1.281738281E-3,-2.624511719E-3
2.223937422E0,1.632690430E-3,-4.882812500E-4,-1.342773438E-3
2.228972822E0,2.410888672E-3,-7.934570312E-4,-2.120971680E-3
2.234008223E0,2.410888672E-3,-1.556396484E-3,-2.426147461E-3
2.239043623E0,1.785278320E-3,-1.251220703E-3,-2.868652344E-3
2.244079024E0,5.798339844E-4,-8.087158203E-4,-1.800537109E-3
2.249114424E0,1.007080078E-3,-1.235961914E-3,-1.052856445E-3
2.254149824E0,5.950927734E-4,-4.882812500E-4,-1.373291016E-3
2.259185225E0,1.342773438E-3,-1.525878906E-4,-2.120971680E-3
2.264220625E0,2.029418945E-3,-1.220703125E-4,-2.120971680E-3
2.269256025E0,3.112792969E-3,-1.556396484E-3,-2.471923828E-3
2.274291426E0,2.044677734E-3,-1.556396484E-3,-2.822875977E-3
2.279326826E0,1.693725586E-3,-1.922607422E-3,-2.120971680E-3
2.284362227E0,2.410888672E-3,-1.892089844E-3,-2.487182617E-3
2.289397627E0,2.029418945E-3,-4.882812500E-4,-2.426147461E-3
2.294433027E0,1.724243164E-3,-4.882812500E-4,-1.052856445E-3
2.299468428E0,1.998901367E-3,-1.296997070E-3,-1.449584961E-3
2.304503828E0,1.739501953E-3,-1.419067383E-3,-2.120971680E-3
2.309539229E0,1.998901367E-3,1.678466797E-4,-2.517700195E-3
2.314574629E0,1.342773438E-3,-4.882812500E-4,-3.601074219E-3
2.319610029E0,1.342773438E-3,-7.629394531E-5,-3.829956055E-3
2.324645430E0,1.342773438E-3,1.373291016E-4,-2.746582031E-3
2.329680830E0,1.342773438E-3,-6.103515625E-5,-2.548217773E-3
2.334716231E0,1.342773438E-3,5.798339844E-4,-2.731323242E-3
2.339751631E0,1.342773438E-3,5.798339844E-4,-1.663208008E-3
2.344787031E0,8.850097656E-4,5.798339844E-4,-1.953125000E-3
2.349822432E0,2.746582031E-4,5.798339844E-4,-2.716064453E-3
2.354857832E0,7.324218750E-4,1.037597656E-3,-1.647949219E-3
2.359893233E0,8.544921875E-4,1.647949219E-3,-1.525878906E-3
2.364928633E0,7.629394531E-4,6.561279297E-4,-2.609252930E-3
2.369964033E0,3.356933594E-4,-4.882812500E-4,-3.189086914E-3
2.374999434E0,-2.899169922E-4,-4.882812500E-4,-2.670288086E-3
2.380034834E0,7.781982422E-4,-4.882812500E-4,-2.120971680E-3
2.385070234E0,1.861572266E-3,3.051757812E-5,-1.586914062E-3
2.390105635E0,1.876831055E-3,4.577636719E-5,-2.609252930E-3
2.395141035E0,1.342773438E-3,-4.882812500E-4,-3.723144531E-3
2.400176436E0,7.934570312E-4,4.577636719E-5,-2.639770508E-3
2.405211836E0,8.087158203E-4,3.051757812E-5,-1.571655273E-3
2.410247236E0,1.342773438E-3,6.103515625E-5,-1.052856445E-3
2.415282637E0,1.342773438E-3,1.525878906E-5,-1.052856445E-3
2.420318037E0,1.342773438E-3,-4.882812500E-4,-1.617431641E-3
2.425353438E0,7.629394531E-4,6.561279297E-4,-2.120971680E-3
2.430388838E0,2.746582031E-4,1.052856445E-3,-2.120971680E-3
2.435424238E0,2.746582031E-4,-6.103515625E-4,-2.120971680E-3
2.440459639E0,-3.356933594E-4,-1.556396484E-3,-2.716064453E-3
2.445495039E0,3.967285156E-4,-9.613037109E-4,-2.578735352E-3
2.450530440E0,7.324218750E-4,1.068115234E-4,-2.716064453E-3
2.455565840E0,2.746582031E-4,-4.577636719E-5,-2.563476562E-3
2.460601240E0,-3.509521484E-4,-1.739501953E-3,-1.495361328E-3
2.465636641E0,-1.678466797E-4,-1.998901367E-3,-1.678466797E-3
2.470672041E0,2.746582031E-4,-9.307861328E-4,-2.746582031E-3
2.475707441E0,2.746582031E-4,-4.882812500E-4,-3.189086914E-3
2.480742842E0,2.746582031E-4,1.525878906E-4,-2.532958984E-3
2.485778242E0,9.307861328E-4,5.798339844E-4,-2.120971680E-3
2.490813643E0,-6.561279297E-4,-7.629394531E-4,-2.120971680E-3
2.495849043E0,-1.205444336E-3,-9.002685547E-4,-2.120971680E-3
2.500884443E0,5.493164062E-4,-1.174926758E-3,-2.120971680E-3
2.505919844E0,2.014160156E-3,-1.556396484E-3,-2.120971680E-3
2.510955244E0,1.708984375E-3,-8.697509766E-4,-2.807617188E-3
2.515990645E0,-6.103515625E-5,-1.190185547E-3,-3.189086914E-3
2.521026045E0,-9.155273438E-5,-1.556396484E-3,-2.471923828E-3
2.526061445E0,2.746582031E-4,-1.556396484E-3,-2.120971680E-3
2.531096846E0,2.746582031E-4,-8.392333984E-4,-2.120971680E-3
2.536132246E0,9.918212891E-4,2.288818359E-4,-1.388549805E-3
2.541167647E0,5.950927734E-4,-1.678466797E-4,-3.051757812E-4
2.546203047E0,2.746582031E-4,-4.882812500E-4,-7.171630859E-4
2.551238447E0,-1.235961914E-3,-4.882812500E-4,-1.800537109E-3
2.556273848E0,-1.861572266E-3,2.593994141E-4,-1.358032227E-3
2.561309248E0,-3.509521484E-4,-1.831054688E-4,-2.563476562E-3
2.566344649E0,2.746582031E-4,-4.882812500E-4,-3.952026367E-3
2.571380049E0,2.746582031E-4,1.068115234E-3,-1.907348633E-3
2.576415449E0,1.052856445E-3,8.544921875E-4,-2.593994141E-4
2.581450850E0,5.340576172E-4,5.798339844E-4,-1.571655273E-3
2.586486250E0,2.746582031E-4,5.798339844E-4,-1.312255859E-3
2.591521650E0,2.746582031E-4,-2.288818359E-4,-1.846313477E-3
2.596557051E0,-5.493164062E-4,-4.882812500E-4,-1.296997070E-3
2.601592451E0,-1.617431641E-3,-4.882812500E-4,-1.861572266E-3
2.606627852E0,-2.136230469E-4,-4.882812500E-4,-2.120971680E-3
2.611663252E0,2.746582031E-4,-1.327514648E-3,-2.120971680E-3
2.616698652E0,-5.798339844E-4,-7.171630859E-4,-1.266479492E-3
2.621734053E0,4.577636719E-5,-1.342773438E-3,-1.052856445E-3
2.626769453E0,2.746582031E-4,-7.019042969E-4,-1.831054688E-4
2.631804854E0,1.129150391E-3,-4.882812500E-4,-8.392333984E-4
2.636840254E0,4.577636719E-4,3.814697266E-4,-1.052856445E-3
2.641875654E0,2.746582031E-4,5.798339844E-4,-1.052856445E-3
2.646911055E0,2.746582031E-4,5.798339844E-4,-1.525878906E-4
2.651946455E0,2.746582031E-4,-3.204345703E-4,-8.697509766E-4
2.656981856E0,2.746582031E-4,3.967285156E-4,-1.052856445E-3
2.662017256E0,2.746582031E-4,-3.356933594E-4,-1.373291016E-4
2.667052656E0,2.746582031E-4,-4.882812500E-4,-8.850097656E-4
2.672088057E0,2.746582031E-4,-4.882812500E-4,-1.052856445E-3
2.677123457E0,2.746582031E-4,-4.882812500E-4,-1.052856445E-3
2.682158858E0,2.746582031E-4,-1.434326172E-3,-1.068115234E-4
2.687194258E0,2.746582031E-4,-2.502441406E-3,1.907348633E-3
2.692229658E0,2.746582031E-4,1.983642578E-4,1.220703125E-3
2.697265059E0,2.151489258E-3,-3.662109375E-4,1.525878906E-4
2.702300459E0,3.372192383E-3,-1.464843750E-3,9.918212891E-4
2.707335859E0,5.645751953E-4,3.814697266E-4,1.083374023E-3
2.712371260E0,2.746582031E-4,1.556396484E-3,1.083374023E-3
2.717406660E0,2.746582031E-4,6.561279297E-4,1.083374023E-3
2.722442061E0,2.746582031E-4,1.556396484E-3,1.068115234E-4
2.727477461E0,2.746582031E-4,-3.509521484E-4,1.525878906E-5
2.732512861E0,1.281738281E-3,5.187988281E-4,1.525878906E-5
2.737548262E0,1.342773438E-3,5.798339844E-4,1.037597656E-3
2.742583662E0,3.051757812E-4,1.602172852E-3,6.103515625E-5
2.747619063E0,2.746582031E-4,6.103515625E-4,-1.007080078E-3
2.752654463E0,2.746582031E-4,1.602172852E-3,-1.052856445E-3
2.757689863E0,1.312255859E-3,1.647949219E-3,-1.052856445E-3
2.762725264E0,1.342773438E-3,5.950927734E-4,0.000000000E0
2.767760664E0,-7.781982422E-4,5.798339844E-4,-1.037597656E-3
2.772796065E0,1.327514648E-3,-4.882812500E-4,-3.173828125E-3
2.777831465E0,2.593994141E-4,1.632690430E-3,-2.120971680E-3
2.782866865E0,-7.934570312E-4,5.645751953E-4,-2.105712891E-3
2.787902266E0,2.593994141E-4,-4.882812500E-4,-1.052856445E-3
2.792937666E0,-7.934570312E-4,5.798339844E-4,-1.022338867E-3
2.797973066E0,-7.934570312E-4,5.798339844E-4,6.103515625E-5
2.803008467E0,-7.171630859E-4,5.798339844E-4,1.052856445E-3
2.808043867E0,1.373291016E-3,5.798339844E-4,1.525878906E-5
2.813079268E0,2.410888672E-3,6.256103516E-4,-3.051757812E-5
2.818114668E0,2.349853516E-3,1.647949219E-3,-9.307861328E-4
2.823150068E0,1.342773438E-3,1.647949219E-3,1.083374023E-3
2.828185469E0,1.419067383E-3,1.556396484E-3,1.083374023E-3
2.833220869E0,2.319335938E-3,5.798339844E-4,1.007080078E-3
2.838256270E0,1.144409180E-3,6.713867188E-4,-1.678466797E-4
2.843291670E0,-5.950927734E-4,1.647949219E-3,-2.014160156E-3
2.848327070E0,1.342773438E-3,1.647949219E-3,-1.052856445E-3
2.853362471E0,1.220703125E-3,1.754760742E-3,-1.052856445E-3
2.858397871E0,3.967285156E-4,2.578735352E-3,-9.155273438E-4
2.863433272E0,1.205444336E-3,1.510620117E-3,-1.068115234E-4
2.868468672E0,4.119873047E-4,4.272460938E-4,-1.190185547E-3
2.873504072E0,1.342773438E-3,-4.882812500E-4,-2.120971680E-3
2.878539473E0,1.342773438E-3,-3.356933594E-4,-2.120971680E-3
2.883574873E0,1.174926758E-3,7.324218750E-4,-1.953125000E-3
2.888610274E0,4.425048828E-4,1.647949219E-3,-8.697509766E-4
2.893645674E0,1.159667969E-3,1.647949219E-3,-1.525878906E-4
2.898681074E0,2.746582031E-4,1.464843750E-3,-8.697509766E-4
2.903716475E0,4.577636719E-4,3.814697266E-4,1.525878906E-5
2.908751875E0,1.342773438E-3,-4.882812500E-4,2.136230469E-4
2.913787275E0,1.525878906E-3,-3.051757812E-4,9.002685547E-4
2.918822676E0,2.197265625E-3,5.798339844E-4,2.288818359E-4
2.923858076E0,1.342773438E-3,5.798339844E-4,6.713867188E-4
2.928893477E0,1.556396484E-3,7.934570312E-4,-1.052856445E-3
2.933928877E0,2.410888672E-3,1.647949219E-3,-5.950927734E-4
2.938964277E0,2.166748047E-3,1.647949219E-3,1.083374023E-3
2.943999678E0,1.342773438E-3,1.876831055E-3,1.083374023E-3
2.949035078E0,1.586914062E-3,2.212524414E-3,8.392333984E-4
2.954070479E0,2.151489258E-3,5.798339844E-4,-2.288818359E-4
2.959105879E0,8.087158203E-4,8.392333984E-4,-7.781982422E-4
2.964141279E0,-2.593994141E-4,1.373291016E-3,2.899169922E-4
2.969176680E0,1.602172852E-3,5.798339844E-4,2.746582031E-4
2.974212080E0,2.410888672E-3,8.544921875E-4,-1.831054688E-3
2.979247481E0,2.120971680E-3,1.358032227E-3,-7.629394531E-4
2.984282881E0,7.476806641E-4,8.697509766E-4,1.525878906E-5
2.989318281E0,-1.831054688E-4,1.647949219E-3,-2.899169922E-4
2.994353682E0,1.647949219E-3,1.647949219E-3,-7.324218750E-4
2.999389082E0,2.090454102E-3,1.327514648E-3,1.525878906E-5
3.004424483E0,1.342773438E-3,8.850097656E-4,-2.899169922E-4
3.009459883E0,1.663208008E-3,1.968383789E-3,-1.052856445E-3
3.014495283E0,2.410888672E-3,2.365112305E-3,-7.019042969E-4
3.019530684E0,1.708984375E-3,1.647949219E-3,1.525878906E-5
3.024566084E0,6.256103516E-4,1.281738281E-3,-3.356933594E-4
3.029601484E0,1.342773438E-3,5.798339844E-4,-1.403808594E-3
3.034636885E0,9.613037109E-4,9.460449219E-4,-2.120971680E-3
3.039672285E0,2.746582031E-4,1.266479492E-3,-2.120971680E-3
3.044707686E0,2.746582031E-4,5.798339844E-4,-2.120971680E-3
3.049743086E0,-5.187988281E-4,1.831054688E-4,-2.120971680E-3
3.054778486E0,-1.068115234E-3,-9.155273438E-5,-1.708984375E-3
3.059813887E0,2.746582031E-4,1.373291016E-3,-1.052856445E-3
3.064849287E0,6.713867188E-4,2.304077148E-3,-2.288818359E-4
3.069884688E0,1.342773438E-3,1.220703125E-3,6.713867188E-4
3.074920088E0,1.342773438E-3,5.798339844E-4,4.425048828E-4
3.079955488E0,1.342773438E-3,5.798339844E-4,6.561279297E-4
3.084990889E0,8.850097656E-4,1.022338867E-3,-4.272460938E-4
3.090026289E0,2.746582031E-4,1.647949219E-3,-5.950927734E-4
3.095061690E0,2.746582031E-4,1.190185547E-3,4.730224609E-4
3.100097090E0,-6.561279297E-4,1.037597656E-3,1.678466797E-4
3.105132490E0,-1.403808594E-3,2.105712891E-3,-1.052856445E-3
3.110167891E0,1.525878906E-4,2.227783203E-3,-1.052856445E-3
3.115203291E0,8.544921875E-4,2.120971680E-3,-5.645751953E-4
3.120238691E0,7.629394531E-4,2.212524414E-3,-4.730224609E-4
3.125274092E0,8.392333984E-4,1.144409180E-3,-5.493164062E-4
3.130309492E0,7.629394531E-4,1.068115234E-3,5.187988281E-4
3.135344893E0,1.342773438E-3,1.129150391E-3,7.629394531E-5
3.140380293E0,8.087158203E-4,5.798339844E-4,-1.571655273E-3
3.145415693E0,2.746582031E-4,5.798339844E-4,-1.052856445E-3
3.150451094E0,8.087158203E-4,4.577636719E-5,-5.187988281E-4
3.155486494E0,1.342773438E-3,-4.882812500E-4,-1.052856445E-3
3.160521895E0,1.342773438E-3,5.950927734E-4,-1.586914062E-3
3.165557295E0,7.781982422E-4,1.647949219E-3,-1.007080078E-3
3.170592695E0,2.746582031E-4,2.761840820E-3,-5.340576172E-4
3.175628096E0,2.746582031E-4,2.639770508E-3,-1.052856445E-3
3.180663496E0,1.419067383E-3,4.882812500E-4,-1.617431641E-3
3.185698897E0,6.713867188E-4,7.629394531E-5,-2.120971680E-3
3.190734297E0,-2.136230469E-4,5.798339844E-4,-2.120971680E-3
3.195769697E0,8.697509766E-4,5.798339844E-4,-1.510620117E-3
3.200805098E0,1.342773438E-3,-3.051757812E-5,-4.425048828E-4
3.205840498E0,1.342773438E-3,-1.113891602E-3,1.525878906E-5
3.210875899E0,7.171630859E-4,-9.460449219E-4,1.525878906E-5
3.215911299E0,8.850097656E-4,1.220703125E-4,1.525878906E-5
3.220946699E0,1.342773438E-3,1.205444336E-3,-1.235961914E-3
3.225982100E0,1.342773438E-3,3.662109375E-4,-2.120971680E-3
3.231017500E0,6.866455078E-4,1.525878906E-4,-1.464843750E-3
3.236052900E0,9.155273438E-4,5.798339844E-4,-1.052856445E-3
3.241088301E0,1.342773438E-3,1.235961914E-3,-3.814697266E-4
3.246123701E0,1.342773438E-3,1.647949219E-3,-6.408691406E-4
3.251159102E0,2.014160156E-3,9.613037109E-4,-1.052856445E-3
3.256194502E0,1.037597656E-3,-1.068115234E-4,-1.052856445E-3
3.261229902E0,9.613037109E-4,-4.882812500E-4,-1.739501953E-3
3.266265303E0,1.342773438E-3,-4.882812500E-4,-2.120971680E-3
3.271300703E0,6.256103516E-4,-4.882812500E-4,-2.120971680E-3
3.276336104E0,2.746582031E-4,-4.882812500E-4,-2.120971680E-3
3.281371504E0,9.918212891E-4,-1.220703125E-3,-2.120971680E-3
3.286406904E0,6.103515625E-4,-1.068115234E-4,-1.388549805E-3
3.291442305E0,1.739501953E-3,5.798339844E-4,-1.785278320E-3
3.296477705E0,1.663208008E-3,5.798339844E-4,-2.120971680E-3
3.301513106E0,5.798339844E-4,-1.831054688E-4,-1.358032227E-3
3.306548506E0,1.007080078E-3,2.441406250E-4,-2.532958984E-3
3.311583906E0,1.342773438E-3,-1.831054688E-4,-1.663208008E-3
3.316619307E0,5.645751953E-4,2.746582031E-4,-1.052856445E-3
3.321654707E0,2.746582031E-4,5.798339844E-4,-1.052856445E-3
3.326690108E0,2.746582031E-4,1.358032227E-3,-1.052856445E-3
3.331725508E0,2.746582031E-4,8.392333984E-4,-1.052856445E-3
3.336760908E0,1.068115234E-3,5.798339844E-4,-1.052856445E-3
3.341796309E0,-2.593994141E-4,-1.022338867E-3,-2.655029297E-3
3.346831709E0,-7.934570312E-4,-7.629394531E-4,-2.380371094E-3
3.351867109E0,8.239746094E-4,-1.312255859E-3,-2.929687500E-3
3.356902510E0,1.342773438E-3,-7.324218750E-4,-1.525878906E-3
3.361937910E0,5.035400391E-4,3.356933594E-4,-1.876831055E-3
3.366973311E0,2.746582031E-4,5.798339844E-4,-2.960205078E-3
3.372008711E0,2.746582031E-4,5.798339844E-4,-2.334594727E-3
3.377044111E0,2.746582031E-4,5.798339844E-4,-2.120971680E-3
3.382079512E0,1.129150391E-3,-2.899169922E-4,-2.120971680E-3
3.387114912E0,4.730224609E-4,-4.882812500E-4,-2.975463867E-3
3.392150313E0,1.144409180E-3,3.814697266E-4,-2.304077148E-3
3.397185713E0,4.425048828E-4,1.464843750E-3,-2.120971680E-3
3.402221113E0,2.044677734E-3,-1.373291016E-4,-1.220703125E-3
3.407256514E0,1.510620117E-3,-4.882812500E-4,-1.052856445E-3
3.412291914E0,1.342773438E-3,-1.403808594E-3,-1.953125000E-3
3.417327315E0,1.342773438E-3,-6.561279297E-4,-3.021240234E-3
3.422362715E0,-5.035400391E-4,4.272460938E-4,-2.258300781E-3
3.427398115E0,-7.934570312E-4,-3.509521484E-4,-3.036499023E-3
3.432433516E0,1.373291016E-4,-4.882812500E-4,-3.189086914E-3
3.437468916E0,2.746582031E-4,-1.434326172E-3,-3.189086914E-3
3.442504316E0,2.746582031E-4,-6.103515625E-4,-2.227783203E-3
3.447539717E0,2.746582031E-4,-1.449584961E-3,-3.067016602E-3
3.452575117E0,2.746582031E-4,-5.950927734E-4,-1.251220703E-3
3.457610518E0,-7.019042969E-4,-4.882812500E-4,-1.052856445E-3
3.462645918E0,-7.934570312E-4,4.882812500E-4,-2.029418945E-3
3.467681318E0,-7.934570312E-4,-1.388549805E-3,-3.097534180E-3
3.472716719E0,-7.934570312E-4,-5.798339844E-4,-2.197265625E-3
3.477752119E0,1.983642578E-4,-4.882812500E-4,-1.113891602E-3
3.482787520E0,1.281738281E-3,-1.510620117E-3,-1.052856445E-3
3.487822920E0,1.342773438E-3,-1.556396484E-3,-1.052856445E-3
3.492858320E0,2.365112305E-3,-2.593994141E-3,-1.052856445E-3
3.497893721E0,1.373291016E-3,-1.602172852E-3,-2.075195312E-3
3.502929121E0,3.051757812E-4,-2.593994141E-3,-1.083374023E-3
3.507964522E0,2.746582031E-4,-1.586914062E-3,-1.052856445E-3
3.512999922E0,2.746582031E-4,-5.187988281E-4,-2.090454102E-3
3.518035322E0,2.380371094E-3,-1.556396484E-3,-1.052856445E-3
3.523070723E0,2.746582031E-4,-1.556396484E-3,-2.105712891E-3
3.528106123E0,2.746582031E-4,-2.624511719E-3,-1.052856445E-3
3.533141524E0,2.593994141E-4,-4.882812500E-4,-1.052856445E-3
3.538176924E0,-7.934570312E-4,-4.882812500E-4,-2.120971680E-3
3.543212324E0,-7.781982422E-4,-5.187988281E-4,-3.189086914E-3
3.548247725E0,2.288818359E-4,-1.556396484E-3,-3.143310547E-3
3.553283125E0,-7.934570312E-4,-1.602172852E-3,-2.075195312E-3
3.558318525E0,-7.629394531E-4,-2.624511719E-3,-1.007080078E-3
3.563353926E0,3.204345703E-4,-2.578735352E-3,-3.051757812E-5
3.568389326E0,1.281738281E-3,-1.510620117E-3,-1.098632812E-3
3.573424727E0,2.746582031E-4,-4.882812500E-4,-2.120971680E-3
3.578460127E0,2.746582031E-4,-4.882812500E-4,-2.044677734E-3
3.583495527E0,1.831054688E-4,-4.882812500E-4,-1.129150391E-3
3.588530928E0,-6.256103516E-4,-5.798339844E-4,-2.197265625E-3
3.593566328E0,1.342773438E-3,-1.556396484E-3,-2.990722656E-3
3.598601729E0,1.342773438E-3,-1.464843750E-3,-1.052856445E-3
3.603637129E0,1.342773438E-3,-7.171630859E-4,-1.266479492E-3
3.608672529E0,1.098632812E-3,-2.517700195E-3,-3.189086914E-3
3.613707930E0,-6.866455078E-4,-1.678466797E-3,-3.067016602E-3
3.618743330E0,2.746582031E-4,-2.365112305E-3,-2.120971680E-3
3.623778731E0,2.746582031E-4,-4.882812500E-4,-2.120971680E-3
3.628814131E0,2.746582031E-4,-6.408691406E-4,-1.831054688E-3
3.633849531E0,4.272460938E-4,-1.403808594E-3,-1.373291016E-4
3.638884932E0,1.174926758E-3,-6.561279297E-4,-1.205444336E-3
3.643920332E0,2.746582031E-4,-1.556396484E-3,-2.120971680E-3
3.648955733E0,4.425048828E-4,-1.556396484E-3,-2.120971680E-3
3.653991133E0,1.159667969E-3,-1.205444336E-3,-1.937866211E-3
3.659026533E0,4.577636719E-4,7.629394531E-4,-1.235961914E-3
3.664061934E0,1.144409180E-3,1.052856445E-3,-1.922607422E-3
3.669097334E0,2.746582031E-4,-1.556396484E-3,-1.052856445E-3
3.674132734E0,6.866455078E-4,-1.358032227E-3,-1.251220703E-3
3.679168135E0,2.410888672E-3,-7.171630859E-4,-2.120971680E-3
3.684203535E0,2.410888672E-3,-1.556396484E-3,-2.120971680E-3
3.689238936E0,1.937866211E-3,-1.327514648E-3,-2.120971680E-3
3.694274336E0,2.746582031E-4,-4.882812500E-4,-2.120971680E-3
3.699309736E0,2.746582031E-4,-4.882812500E-4,-2.120971680E-3
3.704345137E0,2.746582031E-4,-2.441406250E-4,-1.861572266E-3
3.709380537E0,5.340576172E-4,3.051757812E-4,-1.312255859E-3
3.714415938E0,1.068115234E-3,-1.022338867E-3,-1.846313477E-3
3.719451338E0,2.746582031E-4,-1.800537109E-3,-7.629394531E-4
3.724486738E0,5.493164062E-4,5.798339844E-4,1.525878906E-5
3.729522139E0,1.342773438E-3,2.746582031E-4,-2.746582031E-4
3.734557539E0,1.037597656E-3,-7.934570312E-4,-1.342773438E-3
3.739592940E0,5.798339844E-4,-1.251220703E-3,-1.800537109E-3
3.744628340E0,1.342773438E-3,-8.087158203E-4,-1.052856445E-3
3.749663740E0,1.342773438E-3,-1.251220703E-3,-1.052856445E-3
3.754699141E0,1.663208008E-3,-4.882812500E-4,-1.373291016E-3
3.759734541E0,2.410888672E-3,-4.882812500E-4,-1.785278320E-3
3.764769941E0,2.059936523E-3,-8.392333984E-4,-1.052856445E-3
3.769805342E0,6.408691406E-4,-1.220703125E-3,-1.052856445E-3
3.774840742E0,-7.934570312E-4,-1.373291016E-4,-1.052856445E-3
3.779876143E0,-7.934570312E-4,5.798339844E-4,-3.204345703E-4
3.784911543E0,-7.934570312E-4,5.798339844E-4,3.509521484E-4
3.789946943E0,-4.119873047E-4,1.831054688E-4,-6.561279297E-4
3.794982344E0,2.746582031E-4,-4.882812500E-4,1.525878906E-5
3.800017744E0,2.746582031E-4,-4.882812500E-4,1.525878906E-5
3.805053145E0,1.068115234E-3,-9.155273438E-5,-3.814697266E-4
3.810088545E0,2.410888672E-3,5.798339844E-4,-1.052856445E-3
3.815123945E0,2.410888672E-3,5.798339844E-4,-1.052856445E-3
3.820159346E0,2.410888672E-3,1.525878906E-4,-6.256103516E-4
3.825194746E0,1.983642578E-3,-4.882812500E-4,-3.967285156E-4
3.830230147E0,1.342773438E-3,-6.103515625E-5,-1.052856445E-3
3.835265547E0,1.342773438E-3,5.798339844E-4,-5.950927734E-4
3.840300947E0,1.342773438E-3,1.220703125E-4,1.525878906E-5
3.845336348E0,1.342773438E-3,-4.882812500E-4,4.730224609E-4
3.850371748E0,8.697509766E-4,-4.882812500E-4,-2.899169922E-4
3.855407149E0,1.205444336E-3,-3.051757812E-5,-2.120971680E-3
3.860442549E0,2.410888672E-3,1.052856445E-3,-1.632690430E-3
3.865477949E0,1.434326172E-3,1.647949219E-3,-1.052856445E-3
3.870513350E0,-2.288818359E-4,1.647949219E-3,-1.052856445E-3
3.875548750E0,-7.934570312E-4,1.144409180E-3,-1.052856445E-3
3.880584150E0,-2.899169922E-4,5.798339844E-4,-5.340576172E-4
3.885619551E0,2.746582031E-4,5.798339844E-4,1.525878906E-5
3.890654951E0,2.746582031E-4,5.798339844E-4,1.525878906E-5
3.895690352E0,2.746582031E-4,5.798339844E-4,1.525878906E-5
3.900725752E0,2.746582031E-4,1.113891602E-3,-5.187988281E-4
3.905761152E0,-2.746582031E-4,1.647949219E-3,-1.052856445E-3
3.910796553E0,-2.441406250E-4,1.647949219E-3,-1.602172852E-3
3.915831953E0,2.746582031E-4,2.197265625E-3,-1.556396484E-3
3.920867354E0,8.239746094E-4,2.151489258E-3,-1.052856445E-3
3.925902754E0,1.907348633E-3,1.068115234E-3,-4.730224609E-4
3.930938154E0,1.831054688E-3,1.724243164E-3,1.525878906E-5
3.935973555E0,7.476806641E-4,2.120971680E-3,-5.645751953E-4
3.941008955E0,8.544921875E-4,2.227783203E-3,-1.052856445E-3
3.946044356E0,2.532958984E-3,2.105712891E-3,-4.425048828E-4
3.951079756E0,2.868652344E-3,1.647949219E-3,-5.798339844E-4
3.956115156E0,1.159667969E-3,2.258300781E-3,-1.663208008E-3
3.961150557E0,1.510620117E-3,2.716064453E-3,-8.697509766E-4
3.966185957E0,2.410888672E-3,2.075195312E-3,6.561279297E-4
3.971221358E0,2.410888672E-3,1.647949219E-3,4.577636719E-4
3.976256758E0,2.410888672E-3,1.647949219E-3,1.525878906E-5
3.981292158E0,1.754760742E-3,2.288818359E-3,1.525878906E-5
3.986327559E0,6.713867188E-4,2.716064453E-3,1.525878906E-5
3.991362959E0,2.746582031E-4,2.044677734E-3,1.525878906E-5
3.996398359E0,2.746582031E-4,9.613037109E-4,7.019042969E-4
4.001433760E0,2.746582031E-4,1.251220703E-3,4.119873047E-4
4.006469160E0,9.613037109E-4,2.334594727E-3,-6.713867188E-4
4.011504561E0,1.342773438E-3,2.716064453E-3,-1.052856445E-3
4.016539961E0,1.342773438E-3,1.998901367E-3,-3.356933594E-4
4.021575361E0,6.256103516E-4,1.647949219E-3,7.324218750E-4
4.026610762E0,2.746582031E-4,9.155273438E-4,1.083374023E-3
4.031646162E0,2.746582031E-4,1.296997070E-3,3.662109375E-4
4.036681563E0,1.739501953E-3,2.380371094E-3,1.525878906E-5
4.041716963E0,1.831054688E-4,1.220703125E-3,1.525878906E-5
4.046752363E0,-4.577636719E-5,2.075195312E-3,1.525878906E-5
4.051787764E0,2.746582031E-4,1.953125000E-3,-7.324218750E-4
4.056823164E0,1.785278320E-3,1.647949219E-3,-1.800537109E-3
4.061858565E0,1.632690430E-3,2.410888672E-3,-5.798339844E-4
4.066893965E0,5.645751953E-4,1.159667969E-3,1.525878906E-5
4.071929365E0,1.052856445E-3,1.358032227E-3,1.525878906E-5
4.076964766E0,1.342773438E-3,1.647949219E-3,-7.629394531E-4
4.082000166E0,2.136230469E-3,2.441406250E-3,-2.441406250E-4
4.087035566E0,2.410888672E-3,1.907348633E-3,-7.781982422E-4
4.092070967E0,1.586914062E-3,1.525878906E-5,-2.288818359E-4
4.097106367E0,1.342773438E-3,3.204345703E-4,-7.934570312E-4
4.102141768E0,1.342773438E-3,2.227783203E-3,-2.136230469E-4
4.107177168E0,1.342773438E-3,2.716064453E-3,8.544921875E-4
4.112212568E0,1.342773438E-3,1.861572266E-3,-5.950927734E-4
4.117247969E0,1.342773438E-3,2.487182617E-3,-1.052856445E-3
4.122308086E0,1.342773438E-3,1.861572266E-3,-1.052856445E-3
4.127343487E0,1.342773438E-3,1.647949219E-3,-1.052856445E-3
4.132378887E0,1.342773438E-3,1.647949219E-3,-1.907348633E-3
4.137414287E0,4.577636719E-4,2.517700195E-3,-2.120971680E-3
4.142449688E0,1.144409180E-3,1.831054688E-3,-1.235961914E-3
4.147485088E0,1.342773438E-3,2.532958984E-3,-1.937866211E-3
4.152520489E0,-4.577636719E-4,9.155273438E-4,-3.005981445E-3
4.157555889E0,1.068115234E-4,2.380371094E-3,-1.373291016E-3
4.162591289E0,1.174926758E-3,1.800537109E-3,-1.953125000E-3
4.167626690E0,4.119873047E-4,1.647949219E-3,-2.746582031E-4
4.172662090E0,1.190185547E-3,1.647949219E-3,1.525878906E-5
4.177697491E0,3.967285156E-4,1.647949219E-3,-9.155273438E-4
4.182732891E0,2.746582031E-4,7.019042969E-4,-1.068115234E-4
4.187768291E0,-6.866455078E-4,5.798339844E-4,-9.307861328E-4
4.192803692E0,1.525878906E-4,1.525878906E-3,-1.998901367E-3
4.197839092E0,1.235961914E-3,2.609252930E-3,-2.120971680E-3
4.202874492E0,3.662109375E-4,2.716064453E-3,-1.144409180E-3
4.207909893E0,1.251220703E-3,7.476806641E-4,-1.052856445E-3
4.212945293E0,3.509521484E-4,2.532958984E-3,-1.052856445E-3
4.217980694E0,2.746582031E-4,2.716064453E-3,-1.052856445E-3
4.223016094E0,2.746582031E-4,2.716064453E-3,-1.052856445E-3
4.228051494E0,2.273559570E-3,2.716064453E-3,-1.052856445E-3
4.233086895E0,1.388549805E-3,1.693725586E-3,-1.052856445E-3
4.238122295E0,1.342773438E-3,2.670288086E-3,-1.052856445E-3
4.243157696E0,1.342773438E-3,3.738403320E-3,-1.525878906E-5
4.248193096E0,-7.324218750E-4,1.708984375E-3,-1.007080078E-3
4.253228496E0,1.296997070E-3,1.647949219E-3,-1.052856445E-3
4.258263897E0,1.342773438E-3,1.647949219E-3,1.525878906E-5
4.263299297E0,1.342773438E-3,2.700805664E-3,-1.037597656E-3
4.268334698E0,2.746582031E-4,2.716064453E-3,-1.052856445E-3
4.273370098E0,2.746582031E-4,1.647949219E-3,-1.052856445E-3
4.278405498E0,2.441406250E-4,2.685546875E-3,-1.022338867E-3
4.283440899E0,-7.781982422E-4,1.647949219E-3,-3.051757812E-5
4.288476299E0,3.051757812E-4,1.647949219E-3,-2.075195312E-3
4.293511700E0,1.296997070E-3,1.602172852E-3,-1.052856445E-3
4.298547100E0,3.051757812E-4,5.340576172E-4,-1.052856445E-3
4.303582500E0,1.342773438E-3,-4.882812500E-4,-1.098632812E-3
4.308617901E0,1.342773438E-3,-4.882812500E-4,-1.998901367E-3
4.313653301E0,1.342773438E-3,-4.882812500E-4,-4.577636719E-5
4.318688701E0,1.251220703E-3,-4.882812500E-4,-1.129150391E-3
4.323724102E0,2.746582031E-4,-4.882812500E-4,-2.029418945E-3
4.328759502E0,1.831054688E-4,-5.798339844E-4,-1.052856445E-3
4.333794903E0,-7.019042969E-4,-1.373291016E-3,-1.144409180E-3
4.338830303E0,3.662109375E-4,5.798339844E-4,-2.120971680E-3
4.343865703E0,1.235961914E-3,5.798339844E-4,-2.014160156E-3
4.348901104E0,2.746582031E-4,5.798339844E-4,-1.052856445E-3
4.353936504E0,3.967285156E-4,4.425048828E-4,-1.052856445E-3
4.358971905E0,1.342773438E-3,-3.662109375E-4,-1.052856445E-3
4.364007305E0,1.342773438E-3,5.798339844E-4,-1.174926758E-3
4.369042705E0,1.342773438E-3,4.272460938E-4,-2.120971680E-3
4.374078106E0,1.342773438E-3,-6.408691406E-4,-1.968383789E-3
4.379113506E0,1.342773438E-3,-1.251220703E-3,-1.052856445E-3
4.384148907E0,1.342773438E-3,5.798339844E-4,-1.052856445E-3
4.389184307E0,9.918212891E-4,7.476806641E-4,-1.220703125E-3
4.394219707E0,-2.746582031E-4,1.464843750E-3,-2.288818359E-3
4.399255108E0,2.212524414E-3,3.814697266E-4,-3.189086914E-3
4.404290508E0,9.460449219E-4,-4.882812500E-4,-2.990722656E-3
4.409325908E0,-5.950927734E-4,-7.019042969E-4,-2.319335938E-3
4.414361309E0,2.746582031E-4,-1.358032227E-3,-2.975463867E-3
4.419396709E0,4.882812500E-4,-2.746582031E-4,-1.678466797E-3
4.424432110E0,1.342773438E-3,1.220703125E-4,-4.272460938E-4
4.429467510E0,1.342773438E-3,-1.556396484E-3,-1.876831055E-3
4.434502910E0,1.098632812E-3,-1.327514648E-3,-1.281738281E-3
4.439538311E0,3.051757812E-5,-4.882812500E-4,-1.876831055E-3
4.444573711E0,-1.052856445E-3,-4.882812500E-4,-7.934570312E-4
4.449609112E0,-1.861572266E-3,-2.288818359E-4,2.899169922E-4
4.454644512E0,-1.068115234E-3,5.798339844E-4,8.239746094E-4
4.459679912E0,7.934570312E-4,5.798339844E-4,-2.441406250E-4
4.464715313E0,-2.441406250E-4,8.544921875E-4,-1.327514648E-3
4.469750713E0,7.629394531E-4,1.358032227E-3,-1.831054688E-3
4.474786114E0,-7.934570312E-4,5.798339844E-4,-1.052856445E-3
4.479821514E0,-7.934570312E-4,5.798339844E-4,-1.052856445E-3
4.484856914E0,-1.831054688E-4,5.798339844E-4,-1.052856445E-3
4.489892315E0,1.022338867E-3,2.593994141E-4,-1.358032227E-3
4.494927715E0,2.746582031E-4,-8.239746094E-4,-2.120971680E-3
4.499963116E0,5.950927734E-4,-1.556396484E-3,-2.441406250E-3
4.504998516E0,1.342773438E-3,-1.556396484E-3,-2.838134766E-3
4.510033916E0,9.765625000E-4,-1.556396484E-3,-2.120971680E-3
4.515069317E0,2.746582031E-4,-1.556396484E-3,-2.120971680E-3
4.520104717E0,2.746582031E-4,-1.205444336E-3,-2.120971680E-3
4.525140117E0,6.408691406E-4,-8.697509766E-4,-2.120971680E-3
4.530175518E0,9.613037109E-4,-1.556396484E-3,-2.120971680E-3
4.535210918E0,6.561279297E-4,-1.556396484E-3,-1.724243164E-3
4.540246319E0,1.342773438E-3,-1.174926758E-3,-1.052856445E-3
4.545281719E0,9.307861328E-4,-4.882812500E-4,-1.449584961E-3
4.550317119E0,6.713867188E-4,-9.002685547E-4,-1.708984375E-3
4.555352520E0,1.342773438E-3,-1.556396484E-3,-1.464843750E-3
4.560387920E0,1.754760742E-3,-1.556396484E-3,-1.693725586E-3
4.565423321E0,2.410888672E-3,-1.998901367E-3,-1.480102539E-3
4.570458721E0,1.968383789E-3,-2.197265625E-3,-1.678466797E-3
4.575494121E0,1.342773438E-3,-2.014160156E-3,-5.950927734E-4
4.580529522E0,-1.525878906E-5,-1.724243164E-3,-4.272460938E-4
4.585564922E0,-1.403808594E-3,4.272460938E-4,-1.052856445E-3
4.590600323E0,1.373291016E-4,1.174926758E-3,-1.510620117E-3
4.595635723E0,1.342773438E-3,9.155273438E-5,-2.120971680E-3
4.600671123E0,1.342773438E-3,-4.882812500E-4,-1.632690430E-3
4.605706524E0,1.342773438E-3,-4.882812500E-4,-1.541137695E-3
4.610741924E0,1.342773438E-3,-4.882812500E-4,-2.609252930E-3
4.615777325E0,1.342773438E-3,-1.495361328E-3,-3.189086914E-3
4.620812725E0,1.846313477E-3,-2.120971680E-3,-2.670288086E-3
4.625848125E0,1.876831055E-3,-1.037597656E-3,-1.586914062E-3
4.630883526E0,1.342773438E-3,-1.022338867E-3,-1.571655273E-3
4.635918926E0,1.342773438E-3,-1.556396484E-3,-2.655029297E-3
4.640954326E0,1.342773438E-3,-1.556396484E-3,-3.189086914E-3
4.645989727E0,1.876831055E-3,-1.022338867E-3,-2.639770508E-3
4.651025127E0,2.410888672E-3,-1.052856445E-3,-2.120971680E-3
4.656060528E0,1.846313477E-3,-1.556396484E-3,-2.120971680E-3
4.661095928E0,1.983642578E-4,-1.556396484E-3,-1.541137695E-3
4.666131328E0,-7.934570312E-4,-1.556396484E-3,-1.617431641E-3
4.671166729E0,9.613037109E-4,-1.556396484E-3,-2.120971680E-3
4.676202129E0,2.410888672E-3,-1.556396484E-3,-2.700805664E-3
4.681237530E0,1.800537109E-3,-1.556396484E-3,-2.578735352E-3
4.686272930E0,7.324218750E-4,-1.556396484E-3,-1.510620117E-3
4.691308330E0,8.850097656E-4,-3.356933594E-4,-1.052856445E-3
4.696343731E0,1.342773438E-3,-4.577636719E-5,-1.663208008E-3
4.701379131E0,1.342773438E-3,-4.882812500E-4,-8.697509766E-4
4.706414532E0,1.968383789E-3,-4.882812500E-4,1.525878906E-5
4.711449932E0,1.754760742E-3,-1.144409180E-3,-6.256103516E-4
4.716485332E0,1.342773438E-3,-1.556396484E-3,-1.052856445E-3
4.721520733E0,1.342773438E-3,-1.556396484E-3,-1.052856445E-3
4.726556133E0,1.342773438E-3,-2.288818359E-4,-1.708984375E-3
4.731591533E0,1.342773438E-3,-1.068115234E-4,-3.463745117E-3
4.736626934E0,2.014160156E-3,-1.174926758E-3,-2.883911133E-3
4.741662334E0,2.410888672E-3,-1.556396484E-3,-1.419067383E-3
4.746697735E0,1.022338867E-3,-8.697509766E-4,-2.426147461E-3
4.751733135E0,2.746582031E-4,-1.190185547E-3,-3.189086914E-3
4.756768535E0,-4.425048828E-4,-2.273559570E-3,-2.471923828E-3
4.761803936E0,1.342773438E-3,-2.624511719E-3,-1.403808594E-3
4.766839336E0,1.678466797E-3,-1.907348633E-3,-1.770019531E-3
4.771874737E0,1.342773438E-3,-2.288818359E-3,-2.120971680E-3
4.776910137E0,1.342773438E-3,-2.624511719E-3,-2.120971680E-3
4.781945537E0,2.075195312E-3,-1.892089844E-3,-2.120971680E-3
4.786980938E0,1.647949219E-3,-1.556396484E-3,-2.120971680E-3
4.792016338E0,1.342773438E-3,-8.087158203E-4,-1.358032227E-3
4.797051739E0,1.342773438E-3,2.593994141E-4,-1.052856445E-3
4.802087139E0,5.645751953E-4,-1.983642578E-4,-1.815795898E-3
4.807122539E0,2.746582031E-4,-4.882812500E-4,-1.327514648E-3
4.812157940E0,2.746582031E-4,2.899169922E-4,-1.831054688E-3
4.817193340E0,1.068115234E-3,-2.288818359E-4,-5.187988281E-4
4.822228741E0,5.340576172E-4,-4.882812500E-4,-7.781982422E-4
4.827264141E0,2.746582031E-4,-4.882812500E-4,-1.846313477E-3
4.832299541E0,1.068115234E-3,-4.882812500E-4,-2.914428711E-3
4.837334942E0,5.187988281E-4,3.204345703E-4,-2.365112305E-3
4.842370342E0,2.746582031E-4,-2.593994141E-4,-2.120971680E-3
4.847405742E0,2.746582031E-4,-2.166748047E-3,-1.281738281E-3
4.852441143E0,1.953125000E-3,-1.785278320E-3,-1.052856445E-3
4.857476543E0,3.250122070E-3,-7.171630859E-4,-1.892089844E-3
4.862511944E0,1.754760742E-3,3.662109375E-4,-2.120971680E-3
4.867547344E0,-3.967285156E-4,5.798339844E-4,-2.120971680E-3
4.872582744E0,-7.934570312E-4,5.798339844E-4,-1.235961914E-3
4.877618145E0,9.613037109E-4,5.798339844E-4,-1.922607422E-3
4.882653545E0,2.227783203E-3,5.798339844E-4,-1.220703125E-3
4.887688946E0,1.510620117E-3,-3.204345703E-4,-1.052856445E-3
4.892724346E0,2.243041992E-3,-1.403808594E-3,-1.052856445E-3
4.897759746E0,2.410888672E-3,2.593994141E-4,-1.052856445E-3
4.902795147E0,2.410888672E-3,-3.509521484E-4,-1.052856445E-3
4.907830547E0,2.410888672E-3,4.272460938E-4,-1.052856445E-3
4.912865948E0,5.340576172E-4,-3.662109375E-4,-1.052856445E-3
4.917901348E0,1.205444336E-3,-1.434326172E-3,-1.983642578E-3
4.922936748E0,1.342773438E-3,3.356933594E-4,-1.159667969E-3
4.927972149E0,1.342773438E-3,-3.814697266E-4,-1.052856445E-3
4.933007549E0,2.304077148E-3,-1.464843750E-3,-1.052856445E-3
4.938042950E0,1.434326172E-3,-5.950927734E-4,-1.052856445E-3
4.943078350E0,2.319335938E-3,-4.882812500E-4,-2.029418945E-3
4.948113750E0,2.410888672E-3,4.882812500E-4,-2.120971680E-3
4.953149151E0,2.410888672E-3,5.798339844E-4,-2.120971680E-3
4.958184551E0,2.410888672E-3,-4.272460938E-4,-1.113891602E-3
4.963219951E0,1.403808594E-3,5.035400391E-4,-1.052856445E-3
4.968255352E0,2.349853516E-3,5.798339844E-4,-1.052856445E-3
4.973290752E0,2.410888672E-3,1.602172852E-3,-2.075195312E-3
4.978326153E0,1.373291016E-3,1.647949219E-3,-3.143310547E-3
4.983361553E0,3.051757812E-4,2.670288086E-3,-2.151489258E-3
4.988396953E0,2.746582031E-4,1.663208008E-3,-2.120971680E-3
4.993432354E0,2.746582031E-4,2.685546875E-3,-1.068115234E-3
4.998467754E0,2.746582031E-4,1.647949219E-3,-3.158569336E-3
5.003503155E0,2.746582031E-4,2.716064453E-3,-1.052856445E-3
5.008538555E0,1.342773438E-3,1.632690430E-3,-1.052856445E-3
5.013573955E0,2.410888672E-3,5.798339844E-4,-1.037597656E-3
5.018609356E0,2.365112305E-3,5.798339844E-4,1.525878906E-5
5.023644756E0,-7.781982422E-4,5.493164062E-4,-1.052856445E-3
5.028680157E0,2.746582031E-4,-4.577636719E-4,-1.052856445E-3
5.033715557E0,2.288818359E-4,5.798339844E-4,-1.007080078E-3
5.038750957E0,-7.476806641E-4,5.798339844E-4,1.525878906E-5
5.043786358E0,3.204345703E-4,5.798339844E-4,1.525878906E-5
5.048821758E0,1.342773438E-3,5.798339844E-4,-4.577636719E-5
5.053857158E0,1.190185547E-3,5.798339844E-4,-1.052856445E-3
5.058892559E0,-8.850097656E-4,6.561279297E-4,-1.129150391E-3
5.063927959E0,-1.693725586E-3,1.724243164E-3,-2.120971680E-3
5.068963360E0,1.831054688E-4,2.624511719E-3,-2.197265625E-3
5.073998760E0,-6.103515625E-4,1.449584961E-3,-3.082275391E-3
5.079034160E0,1.220703125E-3,-3.814697266E-4,-1.892089844E-3
5.084069561E0,3.814697266E-4,6.866455078E-4,-2.136230469E-4
5.089104961E0,1.205444336E-3,1.647949219E-3,-2.120971680E-3
5.094140362E0,3.967285156E-4,1.647949219E-3,-2.120971680E-3
5.099175762E0,1.342773438E-3,1.510620117E-3,-1.983642578E-3
5.104211162E0,1.480102539E-3,8.544921875E-4,-9.002685547E-4
5.109246563E0,2.258300781E-3,2.563476562E-3,1.525878906E-5
5.114281963E0,1.022338867E-3,1.480102539E-3,1.831054688E-4
5.119317364E0,-7.934570312E-4,7.476806641E-4,1.083374023E-3
5.124352764E0,-4.425048828E-4,1.647949219E-3,7.324218750E-4
5.129388164E0,1.342773438E-3,1.464843750E-3,-1.052856445E-3
5.134423565E0,9.613037109E-4,5.798339844E-4,-1.419067383E-3
5.139458965E0,-6.103515625E-4,7.629394531E-4,-2.807617188E-3
5.144494366E0,2.746582031E-4,1.846313477E-3,-1.052856445E-3
5.149529766E0,4.577636719E-5,2.487182617E-3,-1.052856445E-3
5.154565166E0,-5.798339844E-4,1.419067383E-3,-5.950927734E-4
5.159600567E0,2.746582031E-4,7.934570312E-4,8.697509766E-4
5.164635967E0,3.051757812E-5,1.647949219E-3,-4.425048828E-4
5.169671367E0,-7.934570312E-4,1.647949219E-3,-2.349853516E-3
5.174706768E0,-6.103515625E-5,9.002685547E-4,-2.685546875E-3
5.179742168E0,2.151489258E-3,-1.312255859E-3,-1.556396484E-3
5.184777569E0,1.068115234E-3,4.577636719E-5,-2.914428711E-3
5.189812969E0,2.746582031E-4,1.647949219E-3,-1.831054688E-3
5.194848369E0,2.746582031E-4,1.922607422E-3,-1.327514648E-3
5.199883770E0,2.746582031E-4,2.716064453E-3,-2.120971680E-3
5.204919170E0,-3.051757812E-5,2.410888672E-3,-1.815795898E-3
5.209954571E0,-7.934570312E-4,1.647949219E-3,-7.324218750E-4
5.214989971E0,-1.831054688E-4,1.647949219E-3,-2.899169922E-4
5.220025371E0,1.022338867E-3,1.647949219E-3,-1.358032227E-3
5.225060772E0,5.950927734E-4,9.918212891E-4,-2.120971680E-3
5.230096172E0,1.007080078E-3,1.678466797E-4,-2.120971680E-3
5.235131573E0,-7.629394531E-5,1.983642578E-3,-1.770019531E-3
5.240166973E0,-4.577636719E-4,2.365112305E-3,-1.052856445E-3
5.245202373E0,9.765625000E-4,1.281738281E-3,-1.052856445E-3
5.250237774E0,1.327514648E-3,5.798339844E-4,-1.052856445E-3
5.255273174E0,-4.272460938E-4,5.798339844E-4,-1.052856445E-3
5.260308575E0,-1.068115234E-4,9.460449219E-4,-1.052856445E-3
5.265343975E0,-7.934570312E-4,1.251220703E-3,-1.434326172E-3
5.270379375E0,-4.119873047E-4,9.613037109E-4,-2.120971680E-3
5.275414776E0,-1.373291016E-4,2.441406250E-3,-1.708984375E-3
5.280450176E0,-3.967285156E-4,3.372192383E-3,-1.052856445E-3
5.285485576E0,2.746582031E-4,2.304077148E-3,-1.449584961E-3
5.290520977E0,6.866455078E-4,2.059936523E-3,-1.693725586E-3
5.295556377E0,1.342773438E-3,2.273559570E-3,-6.103515625E-4
5.300591778E0,4.577636719E-4,1.647949219E-3,-4.119873047E-4
5.305627178E0,-7.934570312E-4,2.090454102E-3,-1.052856445E-3
5.310662578E0,-7.934570312E-4,2.258300781E-3,-5.950927734E-4
5.315697979E0,-3.509521484E-4,2.090454102E-3,-4.272460938E-4
5.320733379E0,7.324218750E-4,1.785278320E-3,-1.052856445E-3
5.325768780E0,8.697509766E-4,5.798339844E-4,-1.052856445E-3
5.330804180E0,2.746582031E-4,1.052856445E-3,-1.052856445E-3
5.335839580E0,-2.288818359E-4,1.144409180E-3,-1.052856445E-3
5.340874981E0,-3.051757812E-4,1.068115234E-3,-1.052856445E-3
5.345910381E0,-2.288818359E-4,1.144409180E-3,-1.052856445E-3
5.350945782E0,-2.899169922E-4,5.798339844E-4,-1.052856445E-3
5.355981182E0,2.746582031E-4,5.798339844E-4,-5.340576172E-4
5.361016582E0,-2.593994141E-4,4.577636719E-5,1.525878906E-5
5.366051983E0,-2.593994141E-4,4.577636719E-5,-5.187988281E-4
5.371087383E0,-2.746582031E-4,5.798339844E-4,-1.052856445E-3
5.376122783E0,-2.593994141E-4,1.113891602E-3,-1.586914062E-3
5.381158184E0,8.239746094E-4,1.083374023E-3,-1.556396484E-3
5.386193584E0,1.342773438E-3,5.798339844E-4,-1.052856445E-3
5.391228985E0,1.342773438E-3,5.798339844E-4,-1.617431641E-3
5.396264385E0,1.342773438E-3,5.798339844E-4,-1.541137695E-3
5.401299785E0,7.476806641E-4,-1.525878906E-5,-1.052856445E-3
5.406335186E0,2.746582031E-4,6.866455078E-4,-1.632690430E-3
5.411370586E0,2.746582031E-4,1.647949219E-3,-9.155273438E-4
5.416405987E0,-3.356933594E-4,4.272460938E-4,-5.798339844E-4
5.421441387E0,-7.934570312E-4,-4.882812500E-4,-1.052856445E-3
5.426476787E0,-1.419067383E-3,7.476806641E-4,-1.052856445E-3
5.431512188E0,-6.103515625E-4,1.007080078E-3,-1.052856445E-3
5.436547588E0,9.002685547E-4,5.798339844E-4,-1.052856445E-3
5.441582989E0,7.019042969E-4,5.798339844E-4,-1.678466797E-3
5.446618389E0,2.746582031E-4,-7.629394531E-5,-1.464843750E-3
5.451653789E0,2.746582031E-4,1.678466797E-4,-1.052856445E-3
5.456689190E0,-3.967285156E-4,1.235961914E-3,-1.052856445E-3
5.461724590E0,-7.934570312E-4,9.765625000E-4,-1.052856445E-3
5.466759991E0,-7.934570312E-4,-1.068115234E-4,-1.724243164E-3
5.471795391E0,-1.068115234E-4,-4.882812500E-4,-2.807617188E-3
5.476830791E0,-4.272460938E-4,-4.882812500E-4,-1.785278320E-3
5.481866192E0,-9.155273438E-5,-1.205444336E-3,-1.052856445E-3
5.486901592E0,2.746582031E-4,-8.544921875E-4,-1.052856445E-3
5.491936992E0,-4.425048828E-4,-4.882812500E-4,-1.052856445E-3
5.496972393E0,-7.629394531E-5,2.288818359E-4,3.967285156E-4
5.502007793E0,2.746582031E-4,1.296997070E-3,3.662109375E-4
5.507043194E0,-4.730224609E-4,1.678466797E-4,-1.449584961E-3
5.512078594E0,-6.103515625E-5,-4.882812500E-4,-1.373291016E-3
5.517113994E0,2.746582031E-4,-4.882812500E-4,-1.052856445E-3
5.522149395E0,2.746582031E-4,-4.882812500E-4,-2.899169922E-4
5.527184795E0,1.037597656E-3,-4.882812500E-4,1.525878906E-5
5.532220196E0,-2.136230469E-4,-4.882812500E-4,1.525878906E-5
5.537255596E0,-1.525878906E-5,-1.281738281E-3,-7.629394531E-4
5.542290996E0,2.746582031E-4,-2.349853516E-3,-1.052856445E-3
5.547326397E0,2.746582031E-4,-1.037597656E-3,-1.052856445E-3
5.552361797E0,1.876831055E-3,-1.296997070E-3,-1.846313477E-3
5.557397198E0,1.586914062E-3,6.103515625E-5,-1.296997070E-3
5.562432598E0,-3.051757812E-4,-2.441406250E-4,-1.052856445E-3
5.567467998E0,-7.934570312E-4,-1.327514648E-3,-1.052856445E-3
5.572503399E0,-7.934570312E-4,-7.324218750E-4,-2.136230469E-4
5.577538799E0,-7.934570312E-4,-4.882812500E-4,-8.239746094E-4
5.582574200E0,1.739501953E-3,-1.342773438E-3,-1.052856445E-3
5.587609600E0,2.410888672E-3,-7.171630859E-4,-1.052856445E-3
5.592645000E0,2.410888672E-3,-4.882812500E-4,-1.907348633E-3
5.597680401E0,1.525878906E-3,3.814697266E-4,-1.235961914E-3
5.602715801E0,1.342773438E-3,5.798339844E-4,-1.678466797E-4
5.607751201E0,4.425048828E-4,5.798339844E-4,-1.754760742E-3
5.612786602E0,1.159667969E-3,5.798339844E-4,-2.120971680E-3
5.617822002E0,1.342773438E-3,-3.204345703E-4,-1.220703125E-3
5.622857403E0,1.342773438E-3,-1.403808594E-3,-1.373291016E-4
5.627892803E0,4.119873047E-4,-6.408691406E-4,1.525878906E-5
5.632928203E0,2.105712891E-3,-4.882812500E-4,1.525878906E-5
5.637963604E0,1.480102539E-3,4.272460938E-4,-9.002685547E-4
5.642999004E0,3.967285156E-4,5.798339844E-4,-1.052856445E-3
5.648034405E0,2.746582031E-4,-3.662109375E-4,-1.068115234E-4
5.653069805E0,1.220703125E-3,4.577636719E-4,9.765625000E-4
5.658105205E0,3.662109375E-4,5.798339844E-4,1.083374023E-3
5.663140606E0,2.746582031E-4,5.798339844E-4,1.220703125E-4
5.668176006E0,2.746582031E-4,-4.119873047E-4,-9.613037109E-4
5.673211407E0,-7.171630859E-4,-4.882812500E-4,-1.052856445E-3
5.678246807E0,1.831054688E-4,-4.882812500E-4,-6.103515625E-5
5.683282207E0,2.746582031E-4,-1.495361328E-3,-1.983642578E-3
5.688317608E0,2.746582031E-4,-1.556396484E-3,-2.120971680E-3
5.693353008E0,2.746582031E-4,-1.556396484E-3,-2.120971680E-3
5.698388408E0,2.746582031E-4,-5.340576172E-4,-2.120971680E-3
5.703423809E0,-7.629394531E-4,-1.525878906E-3,-2.120971680E-3
5.708459209E0,-7.934570312E-4,-5.340576172E-4,-2.120971680E-3
5.713494610E0,1.281738281E-3,-4.882812500E-4,-3.158569336E-3
5.718530010E0,1.342773438E-3,-1.556396484E-3,-1.068115234E-3
5.723565410E0,-1.846313477E-3,-1.556396484E-3,-1.052856445E-3
5.728600811E0,2.746582031E-4,-4.882812500E-4,-2.120971680E-3
5.733636211E0,1.342773438E-3,-1.556396484E-3,-1.052856445E-3
5.738671612E0,1.327514648E-3,-1.556396484E-3,-1.052856445E-3
5.743707012E0,-7.934570312E-4,-4.882812500E-4,-1.037597656E-3
5.748742412E0,2.746582031E-4,5.798339844E-4,1.525878906E-5
5.753777813E0,2.746582031E-4,5.493164062E-4,0.000000000E0
5.758813213E0,2.288818359E-4,-4.882812500E-4,-1.083374023E-3
5.763848614E0,-7.934570312E-4,-4.577636719E-4,-2.075195312E-3
5.768884014E0,-7.934570312E-4,5.187988281E-4,-1.052856445E-3
5.773919414E0,-7.476806641E-4,-4.425048828E-4,-1.052856445E-3
5.778954815E0,3.967285156E-4,5.035400391E-4,-1.113891602E-3
5.783990215E0,2.410888672E-3,-4.272460938E-4,-2.120971680E-3
5.789025616E0,2.243041992E-3,4.882812500E-4,-1.953125000E-3
5.794061016E0,1.831054688E-4,-4.882812500E-4,-6.103515625E-5
5.799096416E0,-7.934570312E-4,-4.882812500E-4,-1.052856445E-3
5.804131817E0,-5.950927734E-4,-7.019042969E-4,-1.052856445E-3
5.809167217E0,1.449584961E-3,-2.410888672E-3,-9.307861328E-4
5.814202617E0,2.288818359E-3,-4.882812500E-4,1.525878906E-5
5.819238018E0,1.083374023E-3,-6.256103516E-4,-2.288818359E-4
5.824273418E0,-6.713867188E-4,-1.434326172E-3,-2.120971680E-3
5.829308819E0,2.746582031E-4,-2.288818359E-4,-1.846313477E-3
5.834344219E0,4.119873047E-4,1.495361328E-3,-1.220703125E-4
5.839379619E0,1.174926758E-3,4.119873047E-4,-1.205444336E-3
5.844415020E0,2.746582031E-4,-4.882812500E-4,-2.120971680E-3
5.849450420E0,-7.629394531E-5,-4.882812500E-4,-2.288818359E-3
5.854485821E0,-1.510620117E-3,-4.882812500E-4,-3.005981445E-3
5.859521221E0,4.425048828E-4,-4.882812500E-4,-1.754760742E-3
5.864556621E0,9.613037109E-4,-4.882812500E-4,1.525878906E-5
5.869592022E0,-7.934570312E-4,-4.882812500E-4,-1.678466797E-4
5.874627422E0,-7.934570312E-4,-2.899169922E-4,-1.251220703E-3
5.879662823E0,-5.950927734E-4,5.798339844E-4,-2.120971680E-3
5.884698223E0,2.746582031E-4,3.509521484E-4,-2.120971680E-3
5.889733623E0,2.746582031E-4,-7.171630859E-4,-2.120971680E-3
5.894769024E0,3.051757812E-5,-1.098632812E-3,-2.120971680E-3
5.899804424E0,-5.645751953E-4,5.798339844E-4,-1.632690430E-3
5.904839825E0,7.629394531E-4,3.204345703E-4,-2.288818359E-4
5.909875225E0,2.151489258E-3,-4.882812500E-4,-1.556396484E-3
5.914910625E0,1.068115234E-3,-2.288818359E-4,-2.655029297E-3
5.919946026E0,2.746582031E-4,5.798339844E-4,-1.052856445E-3
5.924981426E0,-1.525878906E-5,5.798339844E-4,-1.327514648E-3
5.930016826E0,-7.934570312E-4,5.798339844E-4,-1.831054688E-3
5.935052227E0,-7.934570312E-4,5.798339844E-4,-1.342773438E-3
5.940087627E0,-5.035400391E-4,5.798339844E-4,-2.410888672E-3
5.945123028E0,-4.577636719E-5,5.798339844E-4,-3.189086914E-3
5.950158428E0,-4.882812500E-4,5.798339844E-4,-3.189086914E-3
5.955193828E0,2.746582031E-4,5.798339844E-4,-2.853393555E-3
5.960229229E0,2.746582031E-4,5.798339844E-4,-1.785278320E-3
5.965264629E0,6.103515625E-4,2.288818359E-4,-1.052856445E-3
5.970300030E0,9.918212891E-4,-1.525878906E-4,-1.052856445E-3
5.975335430E0,-9.155273438E-5,-1.373291016E-4,-1.754760742E-3
5.980370830E0,-7.934570312E-4,-8.544921875E-4,-2.471923828E-3
5.985406231E0,-4.272460938E-4,1.312255859E-3,-6.713867188E-4
5.990441631E0,2.746582031E-4,2.334594727E-3,-3.509521484E-4
5.995477032E0,2.746582031E-4,1.251220703E-3,-1.052856445E-3
6.000512432E0,-1.220703125E-4,1.831054688E-4,-1.434326172E-3
6.005547832E0,-7.934570312E-4,-4.882812500E-4,-2.120971680E-3
6.010583233E0,-3.967285156E-4,-9.155273438E-5,-1.708984375E-3
6.015618633E0,2.746582031E-4,5.798339844E-4,-1.449584961E-3
6.020654033E0,6.866455078E-4,1.525878906E-4,-1.693725586E-3
6.025689434E0,1.342773438E-3,-7.629394531E-5,-1.052856445E-3
6.030724834E0,4.730224609E-4,1.007080078E-3,-1.052856445E-3
6.035760235E0,-7.934570312E-4,2.090454102E-3,-1.052856445E-3
6.040795635E0,-3.509521484E-4,2.716064453E-3,-1.495361328E-3
6.045831035E0,1.174926758E-3,2.258300781E-3,-1.663208008E-3
6.050866436E0,1.953125000E-3,1.647949219E-3,-1.052856445E-3
6.055901836E0,1.342773438E-3,1.174926758E-3,-1.052856445E-3
6.060937237E0,1.342773438E-3,9.155273438E-5,-1.052856445E-3
6.065972637E0,1.815795898E-3,-1.525878906E-5,-5.645751953E-4
6.071008037E0,1.419067383E-3,5.798339844E-4,-9.613037109E-4
6.076043438E0,7.629394531E-4,7.629394531E-5,-2.609252930E-3
6.081078838E0,1.342773438E-3,1.525878906E-5,-3.189086914E-3
6.086114239E0,3.051757812E-4,1.083374023E-3,-3.189086914E-3
6.091149639E0,-7.934570312E-4,1.113891602E-3,-2.655029297E-3
6.096185039E0,-7.934570312E-4,5.798339844E-4,-2.120971680E-3
6.101220440E0,-2.593994141E-4,5.798339844E-4,-2.120971680E-3
6.106255840E0,8.087158203E-4,5.798339844E-4,-2.120971680E-3
6.111291241E0,7.781982422E-4,5.798339844E-4,-2.120971680E-3
6.116326641E0,2.746582031E-4,5.798339844E-4,-2.120971680E-3
6.121362041E0,2.746582031E-4,1.144409180E-3,-2.120971680E-3
6.126397442E0,2.746582031E-4,1.068115234E-3,-1.541137695E-3
6.131432842E0,8.392333984E-4,1.144409180E-3,-1.617431641E-3
6.136468242E0,7.476806641E-4,2.227783203E-3,-2.700805664E-3
6.141503643E0,2.746582031E-4,2.105712891E-3,-2.578735352E-3
6.146539043E0,2.746582031E-4,1.647949219E-3,-1.510620117E-3
6.151574444E0,2.746582031E-4,2.258300781E-3,-1.663208008E-3
6.156609844E0,8.850097656E-4,2.090454102E-3,-8.697509766E-4
6.161645244E0,1.342773438E-3,3.967285156E-4,6.408691406E-4
6.166680645E0,1.342773438E-3,1.373291016E-4,4.577636719E-4
6.171716045E0,1.342773438E-3,1.220703125E-3,-1.907348633E-3
6.176751446E0,3.051757812E-5,1.647949219E-3,-2.532958984E-3
6.181786846E0,-1.373291016E-4,1.647949219E-3,-2.120971680E-3
6.186822246E0,2.746582031E-4,9.765625000E-4,-1.449584961E-3
6.191857647E0,2.746582031E-4,1.235961914E-3,-1.052856445E-3
6.196893047E0,2.746582031E-4,2.319335938E-3,-1.052856445E-3
6.201928448E0,9.460449219E-4,2.029418945E-3,-1.724243164E-3
6.206963848E0,6.561279297E-4,1.647949219E-3,-2.120971680E-3
6.211999248E0,9.613037109E-4,2.334594727E-3,-2.120971680E-3
6.217034649E0,1.342773438E-3,1.998901367E-3,-2.120971680E-3
6.222070049E0,6.256103516E-4,2.349853516E-3,-2.822875977E-3
6.227105450E0,9.765625000E-4,1.998901367E-3,-2.471923828E-3
6.232140850E0,6.103515625E-4,1.647949219E-3,-2.838134766E-3
6.237176250E0,1.724243164E-3,1.647949219E-3,-2.456665039E-3
6.242211651E0,1.663208008E-3,1.647949219E-3,-2.120971680E-3
6.247247051E0,5.950927734E-4,1.647949219E-3,-2.120971680E-3
6.252282451E0,2.746582031E-4,1.647949219E-3,-2.120971680E-3
6.257317852E0,1.022338867E-3,2.395629883E-3,-1.358032227E-3
6.262353252E0,-1.983642578E-4,1.937866211E-3,-2.746582031E-4
6.267388653E0,-3.051757812E-5,1.647949219E-3,-7.476806641E-4
6.272424053E0,2.746582031E-4,2.426147461E-3,-1.831054688E-3
6.277459453E0,-5.187988281E-4,2.716064453E-3,-2.899169922E-3
6.282494854E0,-7.934570312E-4,2.716064453E-3,-3.189086914E-3
6.287530254E0,-7.934570312E-4,2.716064453E-3,-2.380371094E-3
6.292565655E0,0.000000000E0,1.907348633E-3,-1.312255859E-3
6.297601055E0,2.746582031E-4,1.647949219E-3,-1.052856445E-3
6.302636455E0,2.746582031E-4,2.471923828E-3,-2.136230469E-4
6.307671856E0,2.746582031E-4,1.037597656E-3,-8.087158203E-4
6.312707256E0,1.113891602E-3,5.798339844E-4,-1.052856445E-3
6.317742657E0,4.882812500E-4,5.798339844E-4,-1.052856445E-3
6.322778057E0,2.746582031E-4,5.798339844E-4,-1.052856445E-3
6.327813457E0,2.746582031E-4,1.434326172E-3,-1.907348633E-3
6.332848858E0,-5.950927734E-4,7.781982422E-4,-3.814697266E-4
6.337884258E0,7.629394531E-5,5.798339844E-4,1.525878906E-5
6.342919658E0,2.029418945E-3,5.798339844E-4,-8.544921875E-4
6.347955059E0,1.510620117E-3,1.464843750E-3,-1.937866211E-3
6.352990459E0,1.342773438E-3,7.476806641E-4,-2.120971680E-3
6.358025860E0,-4.577636719E-4,5.798339844E-4,-2.120971680E-3
6.363061260E0,1.068115234E-4,1.480102539E-3,-2.120971680E-3
6.368096660E0,1.190185547E-3,7.171630859E-4,-1.190185547E-3
6.373132061E0,1.342773438E-3,5.798339844E-4,-2.899169922E-3
6.378167461E0,1.342773438E-3,-3.662109375E-4,-1.312255859E-3
6.383202862E0,3.967285156E-4,4.425048828E-4,-1.052856445E-3
6.388238262E0,2.746582031E-4,1.525878906E-3,-1.998901367E-3
6.393273662E0,2.746582031E-4,6.866455078E-4,-1.159667969E-3
6.398309063E0,2.746582031E-4,5.798339844E-4,-2.014160156E-3
6.403344463E0,1.235961914E-3,1.541137695E-3,-2.120971680E-3
6.408379864E0,1.342773438E-3,6.561279297E-4,-2.120971680E-3
6.413415264E0,1.342773438E-3,5.798339844E-4,-2.120971680E-3
6.418450664E0,3.356933594E-4,1.571655273E-3,-1.113891602E-3
6.423486065E0,2.746582031E-4,6.408691406E-4,-1.052856445E-3
6.428521465E0,2.746582031E-4,5.798339844E-4,-1.052856445E-3
6.433556866E0,1.281738281E-3,-4.425048828E-4,-3.082275391E-3
6.438592266E0,2.365112305E-3,5.340576172E-4,-1.129150391E-3
6.443627666E0,1.373291016E-3,2.639770508E-3,-2.075195312E-3
6.448663067E0,1.342773438E-3,1.663208008E-3,-1.068115234E-3
6.453698467E0,1.342773438E-3,2.685546875E-3,-2.090454102E-3
6.458733867E0,1.342773438E-3,2.716064453E-3,-3.173828125E-3
6.463769268E0,1.342773438E-3,1.647949219E-3,-1.052856445E-3
6.468804668E0,2.593994141E-4,1.632690430E-3,-1.037597656E-3
6.473840069E0,-7.934570312E-4,5.798339844E-4,1.525878906E-5
6.478875469E0,2.746582031E-4,1.602172852E-3,-1.052856445E-3
6.483910869E0,2.899169922E-4,-4.882812500E-4,-1.052856445E-3
6.488946270E0,1.342773438E-3,-4.882812500E-4,-1.052856445E-3
6.493981670E0,1.296997070E-3,-4.577636719E-4,-1.083374023E-3
6.499017071E0,2.746582031E-4,5.798339844E-4,-2.166748047E-3
6.504052471E0,2.136230469E-4,6.256103516E-4,-3.128051758E-3
6.509087871E0,-7.324218750E-4,1.571655273E-3,-2.120971680E-3
6.514123272E0,3.356933594E-4,5.035400391E-4,-2.120971680E-3
6.519158672E0,1.251220703E-3,-3.356933594E-4,-2.029418945E-3
6.524194073E0,4.425048828E-4,1.647949219E-3,-1.052856445E-3
6.529229473E0,2.212524414E-3,1.541137695E-3,-1.052856445E-3
6.534264873E0,2.746582031E-4,4.730224609E-4,-1.144409180E-3
6.539300274E0,3.814697266E-4,-2.746582031E-4,-2.120971680E-3
6.544335674E0,1.342773438E-3,1.525878906E-3,-2.120971680E-3
6.549371075E0,1.342773438E-3,7.019042969E-4,-2.120971680E-3
6.554406475E0,1.205444336E-3,1.510620117E-3,-1.983642578E-3
6.559441875E0,1.373291016E-4,4.425048828E-4,-1.174926758E-3
6.564477276E0,-6.561279297E-4,-4.882812500E-4,-1.968383789E-3
6.569512676E0,4.119873047E-4,-6.408691406E-4,-1.052856445E-3
6.574548076E0,1.495361328E-3,-1.556396484E-3,-1.052856445E-3
6.579583477E0,2.410888672E-3,-1.556396484E-3,-7.019042969E-4
6.584618877E0,2.227783203E-3,-1.205444336E-3,9.155273438E-4
6.589654278E0,1.342773438E-3,3.967285156E-4,-1.525878906E-4
6.594689678E0,1.144409180E-3,-4.882812500E-4,-1.235961914E-3
6.599725078E0,6.561279297E-4,-1.068115234E-4,-1.922607422E-3
6.604760479E0,1.998901367E-3,1.434326172E-3,-1.052856445E-3
6.609795879E0,2.746582031E-4,1.373291016E-4,-1.052856445E-3
6.614831280E0,2.746582031E-4,-1.342773438E-3,-1.052856445E-3
6.619866680E0,5.035400391E-4,-4.882812500E-4,-8.087158203E-4
6.624902080E0,1.342773438E-3,-4.882812500E-4,-2.136230469E-4
6.629937481E0,1.831054688E-3,-4.882812500E-4,-1.296997070E-3
6.634972881E0,3.219604492E-3,-2.441406250E-4,-1.602172852E-3
6.640008282E0,2.410888672E-3,5.798339844E-4,-2.441406250E-4
6.645043682E0,1.861572266E-3,3.051757812E-4,-1.052856445E-3
6.650079082E0,5.493164062E-4,6.103515625E-5,-1.052856445E-3
6.655114483E0,1.907348633E-3,1.358032227E-3,-1.052856445E-3
6.660149883E0,2.899169922E-3,2.899169922E-4,-1.052856445E-3
6.665185283E0,1.037597656E-3,-4.882812500E-4,-7.476806641E-4
6.670220684E0,-4.577636719E-5,-4.882812500E-4,-2.899169922E-4
6.675256084E0,-4.882812500E-4,-4.882812500E-4,-1.052856445E-3
6.680291485E0,5.798339844E-4,-8.087158203E-4,-1.358032227E-3
6.685326885E0,1.007080078E-3,-1.892089844E-3,-2.761840820E-3
6.690362285E0,9.307861328E-4,-1.968383789E-3,-3.585815430E-3
6.695397686E0,1.724243164E-3,-4.882812500E-4,-1.770019531E-3
6.700433086E0,2.746582031E-4,-4.882812500E-4,-1.052856445E-3
6.705468487E0,6.256103516E-4,-4.882812500E-4,-1.403808594E-3
6.710503887E0,1.342773438E-3,-4.882812500E-4,-2.120971680E-3
6.715539287E0,1.342773438E-3,-4.882812500E-4,-2.120971680E-3
6.720574688E0,9.613037109E-4,-4.882812500E-4,-2.120971680E-3
6.725610088E0,2.746582031E-4,-4.882812500E-4,-2.502441406E-3
6.730645489E0,6.561279297E-4,-1.068115234E-4,-2.395629883E-3
6.735680889E0,5.340576172E-4,1.678466797E-4,-1.052856445E-3
6.740716289E0,-7.934570312E-4,-4.882812500E-4,-1.052856445E-3
6.745751690E0,-1.220703125E-3,-9.155273438E-4,-1.464843750E-3
6.750787090E0,-1.449584961E-3,-1.556396484E-3,-1.693725586E-3
6.755822491E0,6.103515625E-5,-1.129150391E-3,-6.103515625E-4
6.760857891E0,1.342773438E-3,-6.103515625E-5,-4.119873047E-4
6.765893291E0,1.785278320E-3,-3.204345703E-4,-5.950927734E-4
6.770928692E0,1.953125000E-3,-1.113891602E-3,-4.272460938E-4
6.775964092E0,1.342773438E-3,-1.403808594E-3,-1.052856445E-3
6.780999492E0,1.800537109E-3,-2.624511719E-3,-1.052856445E-3
6.786034893E0,1.922607422E-3,-2.624511719E-3,-5.645751953E-4
6.791070293E0,8.544921875E-4,-2.624511719E-3,1.525878906E-5
6.796105694E0,-2.288818359E-4,-1.159667969E-3,-4.730224609E-4
6.801141094E0,-3.051757812E-4,-4.119873047E-4,-1.052856445E-3
6.806176494E0,7.629394531E-4,-1.556396484E-3,-5.493164062E-4
6.811211895E0,1.342773438E-3,-1.052856445E-3,-4.882812500E-4
6.816247295E0,8.239746094E-4,-4.882812500E-4,-1.052856445E-3
6.821282696E0,2.746582031E-4,-1.022338867E-3,-1.052856445E-3
6.826318096E0,2.746582031E-4,-1.556396484E-3,-1.052856445E-3
6.831353496E0,8.087158203E-4,-1.556396484E-3,-1.586914062E-3
6.836388897E0,1.342773438E-3,-1.022338867E-3,-1.571655273E-3
6.841424297E0,1.342773438E-3,-4.882812500E-4,-1.602172852E-3
6.846459698E0,7.781982422E-4,-1.052856445E-3,-2.670288086E-3
6.851495098E0,2.746582031E-4,-9.918212891E-4,-2.044677734E-3
6.856530498E0,2.746582031E-4,7.629394531E-5,-1.052856445E-3
6.861565899E0,2.746582031E-4,-1.525878906E-5,-4.577636719E-4
6.866601299E0,8.544921875E-4,9.155273438E-5,-5.645751953E-4
6.871636700E0,1.342773438E-3,5.798339844E-4,-4.425048828E-4
6.876672100E0,7.324218750E-4,-3.051757812E-5,-5.798339844E-4
6.881707500E0,2.746582031E-4,-4.882812500E-4,-1.663208008E-3
6.886742901E0,2.746582031E-4,1.220703125E-4,-2.120971680E-3
6.891778301E0,2.746582031E-4,5.798339844E-4,-1.495361328E-3
6.896813701E0,2.746582031E-4,1.205444336E-3,-4.119873047E-4
6.901849102E0,2.746582031E-4,1.007080078E-3,-6.103515625E-4
6.906884502E0,9.155273438E-4,5.798339844E-4,-3.967285156E-4
6.911919903E0,1.342773438E-3,1.235961914E-3,-1.296997070E-3
6.916955303E0,1.998901367E-3,1.647949219E-3,-2.120971680E-3
6.921990703E0,1.068115234E-3,3.051757812E-4,-2.120971680E-3
6.927026104E0,2.746582031E-4,1.831054688E-4,-1.434326172E-3
6.932061504E0,9.460449219E-4,-1.068115234E-4,-1.724243164E-3
6.937096905E0,6.408691406E-4,1.983642578E-4,-2.120971680E-3
6.942132305E0,2.746582031E-4,5.798339844E-4,-2.120971680E-3
6.947167705E0,9.765625000E-4,-1.373291016E-4,-2.120971680E-3
6.952203106E0,1.342773438E-3,9.307861328E-4,-1.403808594E-3
6.957238506E0,1.342773438E-3,1.647949219E-3,-1.052856445E-3
6.962273907E0,6.103515625E-4,1.831054688E-4,-1.052856445E-3
6.967309307E0,9.918212891E-4,-4.882812500E-4,-3.204345703E-4
6.972344707E0,2.075195312E-3,2.441406250E-4,-7.171630859E-4
6.977380108E0,9.002685547E-4,1.327514648E-3,-1.052856445E-3
6.982415508E0,-4.882812500E-4,1.220703125E-4,-2.899169922E-4
6.987450908E0,7.171630859E-4,-4.882812500E-4,-7.324218750E-4
6.992486309E0,1.342773438E-3,2.746582031E-4,-1.052856445E-3
6.997521709E0,5.493164062E-4,-2.136230469E-4,-1.831054688E-3
7.002557110E0,1.052856445E-3,-4.882812500E-4,-2.120971680E-3
7.007592510E0,5.340576172E-4,-4.882812500E-4,-2.120971680E-3
7.012627910E0,1.068115234E-3,3.051757812E-4,-5.187988281E-4
7.017663311E0,5.340576172E-4,-2.288818359E-4,-1.586914062E-3
7.022698711E0,-5.493164062E-4,-4.882812500E-4,-2.120971680E-3
7.027734112E0,1.525878906E-5,-4.882812500E-4,-2.120971680E-3
7.032769512E0,1.098632812E-3,-4.882812500E-4,-2.944946289E-3
7.037804912E0,1.342773438E-3,3.509521484E-4,-3.189086914E-3
7.042840313E0,1.342773438E-3,5.798339844E-4,-2.334594727E-3
7.047875713E0,4.882812500E-4,-2.746582031E-4,-2.120971680E-3
7.052911114E0,1.129150391E-3,-4.882812500E-4,-1.251220703E-3
7.057946514E0,2.197265625E-3,3.662109375E-4,-1.052856445E-3
7.062981914E0,1.525878906E-3,1.449584961E-3,-1.052856445E-3
7.068017315E0,1.342773438E-3,7.629394531E-4,-2.807617188E-3
7.073052715E0,2.227783203E-3,-3.204345703E-4,-3.189086914E-3
7.078088116E0,1.495361328E-3,1.312255859E-3,-2.273559570E-3
7.083123516E0,1.342773438E-3,7.324218750E-4,-1.205444336E-3
7.088158916E0,1.342773438E-3,1.495361328E-3,-1.968383789E-3
7.093194317E0,2.258300781E-3,7.171630859E-4,-2.120971680E-3
7.098229717E0,1.464843750E-3,5.798339844E-4,-2.120971680E-3
7.103265117E0,3.967285156E-4,-3.662109375E-4,-3.051757812E-3
7.108300518E0,2.746582031E-4,4.577636719E-4,-2.227783203E-3
7.113335918E0,2.746582031E-4,5.798339844E-4,-3.067016602E-3
7.118371319E0,1.235961914E-3,5.798339844E-4,-3.189086914E-3
7.123406719E0,2.304077148E-3,5.798339844E-4,-2.746582031E-4
7.128442119E0,1.419067383E-3,5.798339844E-4,1.525878906E-5
7.133477520E0,3.509521484E-4,5.798339844E-4,-9.613037109E-4
7.138512920E0,2.746582031E-4,5.798339844E-4,-2.044677734E-3
7.143548321E0,1.266479492E-3,5.798339844E-4,-1.068115234E-4
7.148583721E0,1.342773438E-3,1.571655273E-3,1.022338867E-3
7.153619121E0,1.342773438E-3,1.647949219E-3,-9.307861328E-4
7.158654522E0,1.342773438E-3,1.647949219E-3,-1.052856445E-3
7.163689922E0,3.051757812E-4,6.103515625E-4,-1.052856445E-3
7.168725323E0,2.746582031E-4,1.602172852E-3,-3.112792969E-3
7.173760723E0,1.312255859E-3,1.647949219E-3,-2.136230469E-3
7.178796123E0,1.342773438E-3,2.685546875E-3,-1.525878906E-5
7.183831524E0,1.342773438E-3,1.647949219E-3,-1.037597656E-3
7.188866924E0,2.746582031E-4,1.647949219E-3,-2.105712891E-3
7.193902325E0,1.342773438E-3,5.798339844E-4,-1.052856445E-3
7.198937725E0,1.342773438E-3,5.798339844E-4,-1.052856445E-3
7.203973125E0,1.312255859E-3,2.716064453E-3,-1.052856445E-3
7.209008526E0,2.899169922E-4,2.716064453E-3,-1.068115234E-3
7.214043926E0,1.296997070E-3,2.670288086E-3,-2.075195312E-3
7.219079326E0,2.746582031E-4,1.647949219E-3,-1.007080078E-3
7.224114727E0,3.051757812E-4,1.647949219E-3,1.525878906E-5
7.229150127E0,1.281738281E-3,1.647949219E-3,1.525878906E-5
7.234185528E0,3.814697266E-4,1.693725586E-3,-3.051757812E-5
7.239220928E0,2.410888672E-3,2.639770508E-3,-1.113891602E-3
7.244256328E0,2.410888672E-3,1.647949219E-3,-2.044677734E-3
7.249291729E0,2.227783203E-3,1.556396484E-3,-9.613037109E-4
7.254327129E0,3.509521484E-4,5.798339844E-4,-6.103515625E-5
7.259362530E0,1.235961914E-3,4.730224609E-4,-1.052856445E-3
7.264397930E0,2.746582031E-4,-2.899169922E-4,-9.460449219E-4
7.269433330E0,3.814697266E-4,1.525878906E-3,-9.155273438E-5
7.274468731E0,1.342773438E-3,5.798339844E-4,-9.460449219E-4
7.279504131E0,1.068115234E-3,8.392333984E-4,-1.068115234E-4
7.284539532E0,-9.307861328E-4,2.578735352E-3,-1.174926758E-3
7.289574932E0,-1.586914062E-3,1.785278320E-3,-2.120971680E-3
7.294610332E0,5.645751953E-4,2.563476562E-3,-2.258300781E-3
7.299645733E0,2.410888672E-3,1.480102539E-3,-2.868652344E-3
7.304681133E0,2.243041992E-3,5.798339844E-4,-1.052856445E-3
7.309716533E0,1.510620117E-3,3.967285156E-4,-1.220703125E-3
7.314751934E0,2.410888672E-3,-3.204345703E-4,-2.120971680E-3
7.319787334E0,2.410888672E-3,7.629394531E-4,-1.922607422E-3
7.324822735E0,2.410888672E-3,1.449584961E-3,-1.052856445E-3
7.329858135E0,2.197265625E-3,7.781982422E-4,-1.052856445E-3
7.334893535E0,1.342773438E-3,1.647949219E-3,-1.052856445E-3
7.339928936E0,1.342773438E-3,1.419067383E-3,-1.052856445E-3
7.344964336E0,1.342773438E-3,5.798339844E-4,-1.052856445E-3
7.349999737E0,1.342773438E-3,8.087158203E-4,-1.281738281E-3
7.355035137E0,1.571655273E-3,1.647949219E-3,-1.876831055E-3
7.360070537E0,2.410888672E-3,1.892089844E-3,-1.052856445E-3
7.365105938E0,2.151489258E-3,1.693725586E-3,-7.934570312E-4
7.370141338E0,1.068115234E-3,-1.556396484E-3,1.525878906E-5
7.375176739E0,0.000000000E0,-7.629394531E-4,-5.187988281E-4
7.380212139E0,-7.934570312E-4,1.647949219E-3,-1.846313477E-3
7.385247539E0,-2.441406250E-4,1.647949219E-3,-1.052856445E-3
7.390282940E0,1.052856445E-3,1.358032227E-3,-1.327514648E-3
7.395318340E0,2.746582031E-4,1.159667969E-3,-2.120971680E-3
7.400353741E0,2.746582031E-4,2.410888672E-3,-1.815795898E-3
7.405389141E0,2.746582031E-4,1.327514648E-3,-1.052856445E-3
7.410424541E0,2.746582031E-4,2.593994141E-4,-1.052856445E-3
7.415459942E0,9.155273438E-4,4.882812500E-4,-1.373291016E-3
7.420495342E0,2.410888672E-3,2.716064453E-3,-2.441406250E-3
7.425530742E0,2.059936523E-3,2.716064453E-3,-2.502441406E-3
7.430566143E0,1.342773438E-3,3.051757812E-3,-1.052856445E-3
7.435601543E0,1.342773438E-3,3.067016602E-3,-1.052856445E-3
7.440636944E0,9.765625000E-4,1.281738281E-3,-1.052856445E-3
7.445672344E0,6.408691406E-4,5.798339844E-4,-1.052856445E-3
7.450707744E0,9.613037109E-4,5.798339844E-4,-1.419067383E-3
7.455743145E0,6.561279297E-4,9.613037109E-4,-1.724243164E-3
7.460778545E0,1.724243164E-3,2.029418945E-3,-1.434326172E-3
7.465813946E0,1.998901367E-3,1.907348633E-3,-2.120971680E-3
7.470849346E0,1.342773438E-3,5.798339844E-4,-1.708984375E-3
7.475884746E0,1.342773438E-3,9.765625000E-4,-6.408691406E-4
7.480920147E0,5.035400391E-4,1.647949219E-3,1.525878906E-5
7.485955547E0,-7.934570312E-4,1.647949219E-3,1.525878906E-5
7.490990948E0,-7.934570312E-4,1.647949219E-3,-4.119873047E-4
7.496026348E0,-7.934570312E-4,1.647949219E-3,-5.950927734E-4
7.501061748E0,-3.509521484E-4,1.190185547E-3,1.525878906E-5
7.506097149E0,2.746582031E-4,5.798339844E-4,1.525878906E-5
7.511132549E0,2.746582031E-4,5.798339844E-4,-9.002685547E-4
7.516167950E0,7.324218750E-4,5.798339844E-4,-2.578735352E-3
7.521203350E0,1.342773438E-3,5.798339844E-4,-2.212524414E-3
7.526238750E0,8.392333984E-4,5.798339844E-4,-5.493164062E-4
7.531274151E0,7.629394531E-4,5.798339844E-4,-4.730224609E-4
7.536309551E0,8.392333984E-4,1.068115234E-3,-1.541137695E-3
7.541344951E0,7.781982422E-4,1.647949219E-3,-1.602172852E-3
7.546380352E0,1.342773438E-3,1.129150391E-3,-1.052856445E-3
7.551415752E0,8.087158203E-4,5.798339844E-4,-1.052856445E-3
7.556451153E0,1.342773438E-3,4.577636719E-5,-5.187988281E-4
7.561486553E0,1.312255859E-3,-4.882812500E-4,-5.187988281E-4
7.566521953E0,2.746582031E-4,-4.882812500E-4,-4.882812500E-4
7.571557354E0,8.239746094E-4,6.103515625E-5,-5.340576172E-4
7.576592754E0,1.342773438E-3,1.525878906E-5,-1.052856445E-3
7.581628155E0,1.983642578E-4,-4.882812500E-4,-1.052856445E-3
7.586663555E0,-1.373291016E-3,6.561279297E-4,-2.197265625E-3
7.591698955E0,-7.019042969E-4,2.227783203E-3,-2.593994141E-3
7.596734356E0,2.746582031E-4,2.120971680E-3,-2.700805664E-3
7.601769756E0,-3.356933594E-4,1.037597656E-3,-2.578735352E-3
7.606805157E0,-1.983642578E-4,-3.051757812E-5,-1.510620117E-3
7.611840557E0,-3.509521484E-4,1.220703125E-4,-1.663208008E-3
7.616875957E0,-1.831054688E-4,5.798339844E-4,-1.495361328E-3
7.621911358E0,-3.509521484E-4,-4.577636719E-5,-1.663208008E-3
7.626946758E0,-1.678466797E-4,1.373291016E-4,-2.120971680E-3
7.631982158E0,2.746582031E-4,-7.629394531E-5,-1.831054688E-4
7.637017559E0,-3.814697266E-4,-1.144409180E-3,4.425048828E-4
7.642052959E0,5.187988281E-4,-9.002685547E-4,1.525878906E-5
7.647088360E0,6.713867188E-4,1.678466797E-4,1.525878906E-5
7.652123760E0,9.307861328E-4,5.798339844E-4,-6.408691406E-4
7.657159160E0,1.342773438E-3,1.251220703E-3,-1.052856445E-3
7.662194561E0,6.561279297E-4,9.613037109E-4,-1.724243164E-3
7.667229961E0,2.746582031E-4,5.798339844E-4,-1.419067383E-3
7.672265362E0,2.746582031E-4,-8.392333984E-4,-3.356933594E-4
7.677300762E0,2.746582031E-4,-8.544921875E-4,1.525878906E-5
7.682336162E0,9.765625000E-4,-4.882812500E-4,-6.866455078E-4
7.687371563E0,6.103515625E-4,-1.220703125E-3,-1.052856445E-3
7.692406963E0,2.746582031E-4,-8.392333984E-4,-1.052856445E-3
7.697442364E0,2.746582031E-4,2.441406250E-4,-1.785278320E-3
7.702477764E0,-1.220703125E-3,-1.678466797E-4,-1.373291016E-3
7.707513164E0,-1.113891602E-3,-4.882812500E-4,-1.800537109E-3
7.712548565E0,-7.934570312E-4,2.593994141E-4,-5.950927734E-4
7.717583965E0,-1.571655273E-3,1.342773438E-3,-1.510620117E-3
7.722619366E0,-1.861572266E-3,1.647949219E-3,-2.120971680E-3
7.727654766E0,-3.051757812E-4,7.629394531E-5,-1.327514648E-3
7.732690166E0,2.746582031E-4,-1.281738281E-3,-1.052856445E-3
7.737725567E0,2.746582031E-4,-1.556396484E-3,-2.441406250E-4
7.742760967E0,1.068115234E-3,-7.629394531E-4,1.525878906E-5
7.747796367E0,1.342773438E-3,-4.882812500E-4,-1.586914062E-3
7.752831768E0,1.342773438E-3,3.204345703E-4,-1.296997070E-3
7.757867168E0,5.035400391E-4,-2.593994141E-4,-1.876831055E-3
7.762902569E0,1.098632812E-3,3.356933594E-4,-1.281738281E-3
7.767937969E0,3.021240234E-3,1.419067383E-3,-1.983642578E-4
7.772973369E0,3.479003906E-3,7.934570312E-4,-1.663208008E-3
7.778008770E0,1.770019531E-3,-2.746582031E-4,-4.119873047E-4
7.783044170E0,-3.814697266E-4,1.220703125E-3,-2.563476562E-3
7.788079571E0,6.103515625E-5,7.781982422E-4,-2.319335938E-3
7.793114971E0,2.746582031E-4,5.798339844E-4,-2.120971680E-3
7.798150371E0,2.746582031E-4,-3.051757812E-4,-1.235961914E-3
7.803185772E0,2.746582031E-4,-1.388549805E-3,-1.052856445E-3
7.808221172E0,1.159667969E-3,-6.713867188E-4,-1.052856445E-3
7.813256573E0,4.272460938E-4,4.119873047E-4,-1.052856445E-3
7.818291973E0,2.746582031E-4,-3.356933594E-4,-1.052856445E-3
7.823327373E0,1.190185547E-3,-1.419067383E-3,-1.052856445E-3
7.828362774E0,4.119873047E-4,-1.556396484E-3,-1.052856445E-3
7.833398174E0,1.205444336E-3,-1.556396484E-3,-1.983642578E-3
7.838433575E0,1.342773438E-3,-6.256103516E-4,-2.441406250E-4
7.843468975E0,1.342773438E-3,-4.882812500E-4,1.525878906E-5
7.848504375E0,1.342773438E-3,-4.882812500E-4,-9.307861328E-4
7.853539776E0,3.662109375E-4,-1.464843750E-3,-7.629394531E-5
7.858575176E0,2.746582031E-4,-5.950927734E-4,1.525878906E-5
7.863610576E0,2.746582031E-4,-4.882812500E-4,-9.613037109E-4
7.868645977E0,2.746582031E-4,4.882812500E-4,-1.052856445E-3
7.873681377E0,2.746582031E-4,5.798339844E-4,-6.103515625E-5
7.878716778E0,-7.324218750E-4,-4.272460938E-4,1.525878906E-5
7.883752178E0,-7.934570312E-4,-4.882812500E-4,-9.765625000E-4
7.888787578E0,2.136230469E-4,-4.882812500E-4,-1.052856445E-3
7.893822979E0,-7.629394531E-4,-4.882812500E-4,-2.075195312E-3
7.898858379E0,-7.934570312E-4,-1.525878906E-3,-2.120971680E-3
7.903893780E0,2.288818359E-4,-5.340576172E-4,-2.120971680E-3
7.908929180E0,2.746582031E-4,5.493164062E-4,-2.120971680E-3
7.913964580E0,2.746582031E-4,5.798339844E-4,-1.052856445E-3
7.918999981E0,1.327514648E-3,5.798339844E-4,1.525878906E-5
7.924035381E0,2.746582031E-4,5.798339844E-4,-1.052856445E-3
7.929070782E0,2.746582031E-4,-4.882812500E-4,-1.052856445E-3
7.934106182E0,2.746582031E-4,1.617431641E-3,-1.037597656E-3
7.939141582E0,2.746582031E-4,-4.882812500E-4,0.000000000E0
7.944176983E0,2.899169922E-4,-5.187988281E-4,-1.052856445E-3
7.949212383E0,1.373291016E-3,-1.525878906E-3,-1.083374023E-3
7.954247783E0,2.319335938E-3,-4.882812500E-4,-2.120971680E-3
7.959283184E0,2.746582031E-4,-5.493164062E-4,-2.120971680E-3
7.964318584E0,2.746582031E-4,-1.556396484E-3,-2.120971680E-3
7.969353985E0,2.746582031E-4,-1.434326172E-3,-2.044677734E-3
7.974389385E0,1.983642578E-4,5.035400391E-4,-9.002685547E-4
7.979424785E0,-7.171630859E-4,-4.119873047E-4,1.007080078E-3
7.984460186E0,1.831054688E-4,6.561279297E-4,-6.103515625E-5
7.989495586E0,-7.171630859E-4,1.556396484E-3,-1.052856445E-3
7.994530987E0,4.577636719E-4,5.798339844E-4,-1.144409180E-3
7.999566387E0,2.288818359E-3,5.798339844E-4,-2.120971680E-3
8.004601787E0,1.342773438E-3,5.798339844E-4,-1.876831055E-3
8.009637188E0,1.464843750E-3,5.798339844E-4,-1.068115234E-4
8.014672588E0,2.410888672E-3,4.425048828E-4,-1.174926758E-3
8.019707989E0,2.258300781E-3,-3.509521484E-4,-1.968383789E-3
8.024743389E0,1.342773438E-3,5.798339844E-4,-1.052856445E-3
8.029778789E0,1.174926758E-3,5.798339844E-4,-1.205444336E-3
8.034814190E0,2.746582031E-4,5.798339844E-4,-2.120971680E-3
8.039849590E0,2.746582031E-4,5.798339844E-4,-2.120971680E-3
8.044884991E0,9.155273438E-5,3.967285156E-4,-1.937866211E-3
8.049920391E0,-4.425048828E-4,-3.204345703E-4,-1.052856445E-3
8.054955791E0,1.342773438E-3,3.814697266E-4,-8.544921875E-4
8.059991192E0,1.342773438E-3,-6.866455078E-4,-1.678466797E-4
8.065026592E0,1.342773438E-3,-1.556396484E-3,-6.408691406E-4
8.070061992E0,1.342773438E-3,-1.144409180E-3,8.850097656E-4
8.075097393E0,1.342773438E-3,5.798339844E-4,-1.983642578E-4
8.080132793E0,1.113891602E-3,3.509521484E-4,-1.052856445E-3
8.085168194E0,5.035400391E-4,-2.593994141E-4,-8.087158203E-4
8.090203594E0,1.098632812E-3,3.356933594E-4,-2.136230469E-4
8.095238994E0,2.746582031E-4,-2.441406250E-4,-1.541137695E-3
8.100274395E0,2.746582031E-4,8.239746094E-4,-2.929687500E-3
8.105309795E0,0.000000000E0,1.907348633E-3,-1.846313477E-3
8.110345196E0,-5.340576172E-4,2.441406250E-3,-7.781982422E-4
8.115380596E0,8.239746094E-4,1.358032227E-3,-2.593994141E-4
8.120415996E0,2.410888672E-3,2.899169922E-4,-7.629394531E-4
8.125451397E0,2.700805664E-3,-1.983642578E-4,-2.746582031E-4
8.130486797E0,3.173828125E-3,2.746582031E-4,-7.476806641E-4
8.135522198E0,2.410888672E-3,1.220703125E-4,-5.950927734E-4
8.140557598E0,2.090454102E-3,1.647949219E-3,-1.800537109E-3
8.145592998E0,1.342773438E-3,1.327514648E-3,-1.358032227E-3
8.150628399E0,1.007080078E-3,9.002685547E-4,-2.120971680E-3
8.155663799E0,2.746582031E-4,1.312255859E-3,-1.785278320E-3
8.160699200E0,9.460449219E-4,9.155273438E-4,-1.388549805E-3
8.165734600E0,2.059936523E-3,1.647949219E-3,-1.419067383E-3
8.170770000E0,1.693725586E-3,1.281738281E-3,1.525878906E-5
8.175805401E0,2.044677734E-3,5.798339844E-4,1.525878906E-5
8.180840801E0,1.342773438E-3,5.798339844E-4,-7.171630859E-4
8.185876201E0,9.613037109E-4,5.798339844E-4,-2.487182617E-3
8.190911602E0,-1.068115234E-4,-1.831054688E-4,-2.807617188E-3
8.195947002E0,-4.119873047E-4,-1.174926758E-3,-2.502441406E-3
8.200982403E0,2.746582031E-4,-4.882812500E-4,-2.777099609E-3
8.206017803E0,2.746582031E-4,-9.155273438E-5,-1.296997070E-3
8.211053203E0,6.866455078E-4,9.918212891E-4,-3.967285156E-4
8.216088604E0,9.155273438E-4,1.220703125E-3,-1.052856445E-3
8.221124004E0,1.129150391E-3,1.373291016E-4,-1.480102539E-3
8.226159405E0,2.838134766E-3,-4.882812500E-4,-2.120971680E-3
8.231194805E0,3.021240234E-3,-4.882812500E-4,-1.220703125E-3
8.236230205E0,2.410888672E-3,-4.882812500E-4,1.525878906E-5
8.241265606E0,1.953125000E-3,-4.577636719E-5,-4.272460938E-4
8.246301006E0,1.342773438E-3,1.495361328E-3,-5.798339844E-4
8.251336407E0,1.342773438E-3,2.243041992E-3,-9.155273438E-4
8.256371807E0,8.544921875E-4,1.159667969E-3,-2.593994141E-3
8.261407207E0,7.629394531E-4,1.068115234E-3,-2.685546875E-3
8.266442608E0,1.342773438E-3,1.144409180E-3,-1.617431641E-3
8.271478008E0,1.342773438E-3,7.629394531E-5,-1.052856445E-3
8.276513408E0,8.239746094E-4,-4.882812500E-4,-1.052856445E-3
8.281548809E0,7.781982422E-4,1.525878906E-5,-1.052856445E-3
8.286584209E0,1.861572266E-3,1.098632812E-3,-1.052856445E-3
8.291619610E0,1.876831055E-3,2.166748047E-3,-1.052856445E-3
8.296655010E0,1.342773438E-3,3.250122070E-3,-1.586914062E-3
8.301690410E0,7.934570312E-4,2.685546875E-3,-1.571655273E-3
8.306725811E0,-8.392333984E-4,2.197265625E-3,-1.052856445E-3
8.311761211E0,-2.426147461E-3,2.151489258E-3,-1.052856445E-3
8.316796612E0,-1.235961914E-3,1.647949219E-3,-1.052856445E-3
8.321832012E0,2.746582031E-4,1.647949219E-3,-1.617431641E-3
8.326867412E0,8.544921875E-4,1.052856445E-3,-2.120971680E-3
8.331902813E0,1.342773438E-3,1.159667969E-3,-2.120971680E-3
8.336938213E0,7.324218750E-4,1.647949219E-3,-1.510620117E-3
8.341973614E0,2.746582031E-4,1.647949219E-3,-1.052856445E-3
8.347009014E0,8.850097656E-4,1.647949219E-3,-1.663208008E-3
8.352044414E0,1.342773438E-3,1.022338867E-3,-2.120971680E-3
8.357079815E0,1.342773438E-3,5.798339844E-4,-1.495361328E-3
8.362115215E0,7.629394531E-5,5.798339844E-4,-4.119873047E-4
8.367150616E0,4.882812500E-4,1.220703125E-3,-6.256103516E-4
8.372186016E0,-6.256103516E-4,1.647949219E-3,-3.967285156E-4
8.377221416E0,-1.205444336E-3,2.960205078E-3,1.525878906E-5
8.382256817E0,-7.934570312E-4,3.112792969E-3,-6.408691406E-4
8.387292217E0,-1.373291016E-4,2.044677734E-3,-1.052856445E-3
8.392327617E0,2.746582031E-4,2.899169922E-4,-1.052856445E-3
8.397363018E0,-4.119873047E-4,-4.882812500E-4,-2.410888672E-3
8.402398418E0,-7.934570312E-4,-4.882812500E-4,-3.189086914E-3
8.407433819E0,6.103515625E-4,1.617431641E-3,-2.471923828E-3
8.412469219E0,6.256103516E-4,1.281738281E-3,-1.403808594E-3
8.417504619E0,1.693725586E-3,5.798339844E-4,-1.754760742E-3
8.422540020E0,2.410888672E-3,1.296997070E-3,-2.120971680E-3
8.427575420E0,1.678466797E-3,9.155273438E-4,-2.120971680E-3
8.432610821E0,5.950927734E-4,5.798339844E-4,-2.853393555E-3
8.437646221E0,-4.730224609E-4,1.312255859E-3,-1.693725586E-3
8.442681621E0,-4.577636719E-5,8.850097656E-4,-1.052856445E-3
8.447717022E0,2.746582031E-4,1.327514648E-3,-1.052856445E-3
8.452752422E0,2.746582031E-4,8.697509766E-4,-1.815795898E-3
8.457787823E0,1.037597656E-3,-1.983642578E-4,-1.342773438E-3
8.462823223E0,2.120971680E-3,-4.882812500E-4,-1.052856445E-3
8.467858623E0,8.239746094E-4,1.083374023E-3,-1.831054688E-3
8.472894024E0,2.746582031E-4,2.441406250E-3,-1.312255859E-3
8.477929424E0,2.746582031E-4,1.098632812E-3,-1.846313477E-3
8.482964825E0,2.746582031E-4,1.388549805E-3,-4.730224609E-4
8.488000225E0,2.746582031E-4,8.087158203E-4,-8.087158203E-4
8.493035625E0,2.746582031E-4,5.798339844E-4,-1.861572266E-3
8.498071026E0,2.746582031E-4,5.798339844E-4,-2.944946289E-3
8.503106426E0,1.113891602E-3,1.419067383E-3,-2.334594727E-3
8.508141826E0,4.730224609E-4,7.781982422E-4,-2.120971680E-3
8.513177227E0,-5.950927734E-4,1.434326172E-3,-1.251220703E-3
8.518212627E0,6.103515625E-5,-9.155273438E-5,-1.907348633E-3
8.523248028E0,2.746582031E-4,-4.882812500E-4,-2.120971680E-3
8.528283428E0,2.746582031E-4,-4.882812500E-4,-2.120971680E-3
8.533318828E0,2.746582031E-4,-4.882812500E-4,-2.120971680E-3
8.538354229E0,2.746582031E-4,-4.882812500E-4,-1.220703125E-3
8.543389629E0,2.746582031E-4,4.119873047E-4,-1.052856445E-3
8.548425030E0,-6.408691406E-4,5.798339844E-4,-1.373291016E-4
8.553460430E0,1.037597656E-3,5.798339844E-4,-9.002685547E-4
8.558495830E0,1.342773438E-3,5.798339844E-4,-1.220703125E-4
8.563531231E0,1.342773438E-3,5.798339844E-4,9.613037109E-4
8.568566631E0,1.342773438E-3,-3.662109375E-4,1.083374023E-3
8.573602032E0,1.342773438E-3,-4.882812500E-4,1.525878906E-4
8.578637432E0,3.814697266E-4,-4.882812500E-4,1.525878906E-5
8.583672832E0,-7.019042969E-4,4.730224609E-4,9.918212891E-4
8.588708233E0,1.144409180E-3,-3.967285156E-4,1.220703125E-4
8.593743633E0,3.509521484E-4,4.882812500E-4,1.525878906E-5
8.598779033E0,1.251220703E-3,5.798339844E-4,1.007080078E-3
8.603814434E0,3.509521484E-4,-4.119873047E-4,-8.850097656E-4
8.608849834E0,1.266479492E-3,5.035400391E-4,-4.577636719E-5
8.613885235E0,3.356933594E-4,5.798339844E-4,-9.765625000E-4
8.618920635E0,-7.476806641E-4,1.586914062E-3,-2.059936523E-3
8.623956035E0,2.136230469E-4,1.647949219E-3,-1.098632812E-3
8.628991436E0,2.746582031E-4,6.103515625E-4,-2.075195312E-3
8.634026836E0,-7.629394531E-4,1.602172852E-3,-1.083374023E-3
8.639062237E0,1.281738281E-3,5.950927734E-4,-1.052856445E-3
8.644097637E0,1.342773438E-3,-4.730224609E-4,0.000000000E0
8.649133037E0,-1.831054688E-3,5.645751953E-4,-1.037597656E-3
8.654168438E0,2.593994141E-4,-4.882812500E-4,-1.052856445E-3
8.659203838E0,-7.934570312E-4,-4.882812500E-4,1.525878906E-5
8.664239239E0,-7.934570312E-4,-4.882812500E-4,-1.037597656E-3
8.669274639E0,-7.629394531E-4,-4.882812500E-4,1.525878906E-5
8.674310039E0,1.342773438E-3,-5.493164062E-4,1.525878906E-5
8.679345440E0,1.342773438E-3,-2.502441406E-3,1.525878906E-5
8.684380840E0,1.251220703E-3,1.556396484E-3,1.525878906E-5
8.689416241E0,-6.408691406E-4,-5.950927734E-4,1.525878906E-5
8.694451641E0,2.456665039E-3,-2.517700195E-3,1.525878906E-5
8.699487041E0,3.341674805E-3,-5.645751953E-4,1.525878906E-5
8.704522442E0,1.342773438E-3,-1.556396484E-3,-4.577636719E-5
8.709557842E0,1.419067383E-3,-1.647949219E-3,-1.129150391E-3
8.714593242E0,2.319335938E-3,-2.456665039E-3,-2.029418945E-3
8.719628643E0,1.251220703E-3,-4.882812500E-4,-9.613037109E-4
8.724664043E0,2.746582031E-4,-6.866455078E-4,-1.678466797E-4
8.729699444E0,3.662109375E-4,-2.624511719E-3,-2.120971680E-3
8.734734844E0,1.220703125E-3,-2.517700195E-3,-1.998901367E-3
8.739770244E0,2.746582031E-4,-1.434326172E-3,-1.052856445E-3
8.744805645E0,3.967285156E-4,-4.882812500E-4,-1.052856445E-3
8.749841045E0,1.205444336E-3,-3.662109375E-4,-1.174926758E-3
8.754876446E0,4.119873047E-4,5.798339844E-4,-2.120971680E-3
8.759911846E0,1.190185547E-3,4.272460938E-4,-2.258300781E-3
8.764947246E0,2.746582031E-4,-6.561279297E-4,-2.868652344E-3
8.769982647E0,4.272460938E-4,-1.724243164E-3,-8.850097656E-4
8.775018047E0,1.342773438E-3,-2.288818359E-3,-1.525878906E-4
8.780053448E0,1.510620117E-3,-4.882812500E-4,-1.052856445E-3
8.785088848E0,2.410888672E-3,-4.882812500E-4,-8.544921875E-4
8.790124248E0,2.014160156E-3,-6.866455078E-4,-3.662109375E-4
8.795159649E0,6.103515625E-5,-1.159667969E-3,-1.907348633E-3
8.800195049E0,-7.934570312E-4,3.814697266E-4,-1.235961914E-3
8.805230450E0,-1.525878906E-4,-4.882812500E-4,-1.892089844E-3
8.810265850E0,1.953125000E-3,-7.171630859E-4,-1.052856445E-3
8.815301250E0,3.051757812E-5,-1.327514648E-3,-1.052856445E-3
8.820336651E0,-7.934570312E-4,-4.882812500E-4,-1.052856445E-3
8.825372051E0,-5.493164062E-4,-4.882812500E-4,-1.052856445E-3
8.830407451E0,5.187988281E-4,-4.882812500E-4,-1.296997070E-3
8.835442852E0,1.068115234E-3,-4.882812500E-4,-2.380371094E-3
8.840478252E0,2.746582031E-4,-7.629394531E-4,-3.189086914E-3
8.845513653E0,5.493164062E-4,-1.007080078E-3,-2.624511719E-3
8.850549053E0,1.342773438E-3,0.000000000E0,-1.052856445E-3
8.855584453E0,1.342773438E-3,-1.266479492E-3,-7.476806641E-4
8.860619854E0,1.632690430E-3,-7.934570312E-4,-2.746582031E-4
8.865655254E0,2.410888672E-3,-1.251220703E-3,-1.358032227E-3
8.870690655E0,2.090454102E-3,-8.087158203E-4,-1.800537109E-3
8.875726055E0,1.342773438E-3,-1.556396484E-3,-1.373291016E-3
8.880761455E0,1.007080078E-3,-9.002685547E-4,-2.120971680E-3
8.885796856E0,-4.119873047E-4,5.798339844E-4,-1.770019531E-3
8.890832256E0,-1.174926758E-3,5.798339844E-4,-1.052856445E-3
8.895867657E0,2.746582031E-4,-1.373291016E-4,-1.403808594E-3
8.900903057E0,2.746582031E-4,-1.556396484E-3,-2.120971680E-3
8.905938457E0,2.746582031E-4,-1.556396484E-3,-1.754760742E-3
8.910973858E0,2.746582031E-4,-8.239746094E-4,-6.713867188E-4
8.916009258E0,6.561279297E-4,1.831054688E-4,-3.662109375E-4
8.921044658E0,1.724243164E-3,-4.882812500E-4,-1.052856445E-3
8.926080059E0,2.807617188E-3,-9.155273438E-5,-1.052856445E-3
8.931115459E0,2.670288086E-3,1.678466797E-4,-1.052856445E-3
8.936150860E0,1.739501953E-3,-4.882812500E-4,-1.861572266E-3
8.941186260E0,1.983642578E-3,-9.155273438E-4,-2.761840820E-3
8.946221660E0,1.342773438E-3,-1.144409180E-3,-2.532958984E-3
8.951257061E0,1.342773438E-3,-4.882812500E-4,-2.319335938E-3
8.956292461E0,1.342773438E-3,-4.882812500E-4,-1.495361328E-3
8.961327862E0,1.785278320E-3,-4.577636719E-5,-1.663208008E-3
8.966363262E0,1.937866211E-3,1.037597656E-3,-1.052856445E-3
8.971398662E0,8.697509766E-4,1.647949219E-3,-1.052856445E-3
8.976434063E0,1.220703125E-3,1.159667969E-3,-5.645751953E-4
8.981469463E0,1.922607422E-3,9.155273438E-5,5.035400391E-4
8.986504864E0,1.342773438E-3,-4.882812500E-4,5.950927734E-4
8.991540264E0,8.392333984E-4,-4.882812500E-4,5.187988281E-4
8.996575664E0,2.746582031E-4,0.000000000E0,9.155273438E-5
9.001611065E0,2.746582031E-4,6.103515625E-5,-1.052856445E-3
9.006646465E0,2.746582031E-4,1.525878906E-5,-5.340576172E-4
9.011681866E0,7.934570312E-4,5.798339844E-4,-5.035400391E-4
9.016717266E0,8.087158203E-4,1.098632812E-3,-1.052856445E-3
9.021752666E0,8.087158203E-4,1.647949219E-3,-5.035400391E-4
9.026788067E0,1.342773438E-3,1.647949219E-3,-5.187988281E-4
9.031823467E0,7.781982422E-4,1.647949219E-3,-1.602172852E-3
9.036858867E0,2.746582031E-4,1.083374023E-3,-1.556396484E-3
9.041894268E0,8.392333984E-4,1.144409180E-3,-1.617431641E-3
9.046929668E0,7.629394531E-4,4.882812500E-4,-2.120971680E-3
9.051965069E0,1.434326172E-3,-1.083374023E-3,-2.700805664E-3
9.057000469E0,2.410888672E-3,-9.765625000E-4,-1.998901367E-3
9.062035869E0,1.800537109E-3,1.068115234E-4,-1.647949219E-3
9.067071270E0,1.342773438E-3,5.798339844E-4,-2.120971680E-3
9.072106670E0,1.953125000E-3,5.798339844E-4,-2.731323242E-3
9.077142071E0,1.785278320E-3,-4.577636719E-5,-3.189086914E-3
9.082177471E0,1.342773438E-3,-4.882812500E-4,-2.548217773E-3
9.087212871E0,1.342773438E-3,-4.882812500E-4,-1.480102539E-3
9.092248272E0,1.342773438E-3,-4.882812500E-4,-1.052856445E-3
9.097283672E0,1.342773438E-3,1.525878906E-4,-1.693725586E-3
9.102319073E0,1.342773438E-3,5.798339844E-4,-2.120971680E-3
9.107354473E0,1.342773438E-3,-9.155273438E-5,-2.120971680E-3
9.112389873E0,1.342773438E-3,1.831054688E-4,-1.434326172E-3
9.117425274E0,6.561279297E-4,1.251220703E-3,-3.097534180E-3
9.122460674E0,2.746582031E-4,9.460449219E-4,-3.555297852E-3
9.127496075E0,-4.272460938E-4,5.798339844E-4,-3.189086914E-3
9.132531475E0,6.103515625E-4,-1.373291016E-4,-3.189086914E-3
9.137566875E0,2.044677734E-3,2.136230469E-4,-2.471923828E-3
9.142602276E0,2.410888672E-3,-1.525878906E-4,-2.120971680E-3
9.147637676E0,1.678466797E-3,2.288818359E-4,-2.120971680E-3
9.152673076E0,1.342773438E-3,-1.678466797E-4,-2.120971680E-3
9.157708477E0,1.342773438E-3,-4.882812500E-4,-2.120971680E-3
9.162743877E0,1.342773438E-3,2.593994141E-4,-2.120971680E-3
9.167779278E0,5.798339844E-4,-1.831054688E-4,-2.120971680E-3
9.172814678E0,2.746582031E-4,2.746582031E-4,-2.120971680E-3
9.177850078E0,-5.035400391E-4,5.798339844E-4,-2.120971680E-3
9.182885479E0,7.629394531E-4,2.136230469E-3,-2.899169922E-3
9.187920879E0,1.342773438E-3,2.716064453E-3,-2.395629883E-3
9.192956280E0,-2.593994141E-4,2.716064453E-3,-1.312255859E-3
9.197991680E0,0.000000000E0,1.907348633E-3,-1.846313477E-3
9.203027080E0,2.746582031E-4,2.441406250E-3,-2.914428711E-3
9.208062481E0,2.746582031E-4,1.892089844E-3,-2.365112305E-3
9.213097881E0,2.746582031E-4,8.087158203E-4,-2.944946289E-3
9.218133282E0,2.746582031E-4,-2.593994141E-4,-3.189086914E-3
9.223168682E0,1.098632812E-3,3.356933594E-4,-3.189086914E-3
9.228204082E0,2.182006836E-3,5.798339844E-4,-3.189086914E-3
9.233239483E0,7.019042969E-4,5.798339844E-4,-2.334594727E-3
9.238274883E0,1.129150391E-3,1.434326172E-3,-2.120971680E-3
9.243310283E0,-3.967285156E-4,1.647949219E-3,-1.251220703E-3
9.248345684E0,7.629394531E-5,-1.068115234E-4,-1.922607422E-3
9.253381084E0,-6.103515625E-4,3.814697266E-4,-2.120971680E-3
9.258416485E0,9.155273438E-5,1.464843750E-3,-1.220703125E-3
9.263451885E0,2.746582031E-4,7.476806641E-4,-1.052856445E-3
9.268487285E0,1.174926758E-3,-1.235961914E-3,-1.953125000E-3
9.273522686E0,1.342773438E-3,-6.561279297E-4,-1.205444336E-3
9.278558086E0,4.119873047E-4,4.272460938E-4,-1.220703125E-4
9.283593487E0,2.746582031E-4,1.495361328E-3,-1.831054688E-3
9.288628887E0,2.746582031E-4,1.647949219E-3,-1.174926758E-3
9.293664287E0,2.746582031E-4,7.019042969E-4,-1.052856445E-3
9.298699688E0,1.220703125E-3,1.525878906E-3,-2.944946289E-3
9.303735088E0,1.342773438E-3,6.866455078E-4,-1.266479492E-3
9.308770489E0,-5.950927734E-4,-3.967285156E-4,-1.052856445E-3
9.313805889E0,-7.934570312E-4,-4.882812500E-4,-1.052856445E-3
9.318841289E0,-7.934570312E-4,2.441406250E-3,-1.052856445E-3
9.323876690E0,-7.934570312E-4,1.724243164E-3,-2.029418945E-3
9.328912090E0,-1.800537109E-3,-1.342773438E-3,-2.120971680E-3
9.333947491E0,-8.697509766E-4,-5.645751953E-4,-2.120971680E-3
9.338982891E0,2.136230469E-4,-4.882812500E-4,-2.120971680E-3
9.344018291E0,2.746582031E-4,5.187988281E-4,-2.120971680E-3
9.349053692E0,-7.629394531E-4,1.602172852E-3,-3.143310547E-3
9.354089092E0,-1.831054688E-3,1.647949219E-3,-3.189086914E-3
9.359124492E0,-8.392333984E-4,6.103515625E-4,-2.151489258E-3
9.364159893E0,-7.934570312E-4,1.617431641E-3,-1.525878906E-5
9.369195293E0,-7.934570312E-4,2.700805664E-3,1.525878906E-5
9.374230694E0,2.593994141E-4,5.798339844E-4,-1.037597656E-3
9.379266094E0,1.342773438E-3,5.798339844E-4,-1.052856445E-3
9.384301494E0,2.746582031E-4,5.645751953E-4,-2.105712891E-3
9.389336895E0,2.746582031E-4,-4.882812500E-4,-1.037597656E-3
9.394372295E0,1.342773438E-3,5.798339844E-4,1.525878906E-5
9.399407696E0,1.312255859E-3,5.950927734E-4,-3.051757812E-5
9.404443096E0,2.746582031E-4,1.678466797E-3,-2.075195312E-3
9.409478496E0,2.746582031E-4,2.639770508E-3,-1.007080078E-3
9.414513897E0,2.746582031E-4,5.798339844E-4,-3.051757812E-5
9.419549297E0,3.814697266E-4,5.798339844E-4,-1.052856445E-3
9.424584698E0,2.334594727E-3,6.408691406E-4,-1.052856445E-3
9.429620098E0,1.190185547E-3,1.647949219E-3,-1.190185547E-3
9.434655498E0,-7.171630859E-4,1.556396484E-3,-3.005981445E-3
9.439690899E0,2.746582031E-4,5.798339844E-4,-1.052856445E-3
9.444726299E0,3.662109375E-4,5.798339844E-4,-1.052856445E-3
9.449761700E0,1.220703125E-3,5.798339844E-4,-1.052856445E-3
9.454797100E0,2.746582031E-4,6.866455078E-4,-1.052856445E-3
9.459832500E0,1.525878906E-4,1.754760742E-3,-1.159667969E-3
9.464867901E0,-7.934570312E-4,2.441406250E-3,-2.243041992E-3
9.469903301E0,-6.713867188E-4,4.425048828E-4,-2.914428711E-3
9.474938701E0,-1.525878906E-5,-3.509521484E-4,-9.002685547E-4
9.479974102E0,-1.724243164E-3,5.798339844E-4,-1.220703125E-4
9.485009502E0,-7.934570312E-4,7.324218750E-4,-1.052856445E-3
9.490044903E0,-7.934570312E-4,1.144409180E-3,-8.850097656E-4
9.495080303E0,-6.256103516E-4,-1.388549805E-3,1.525878906E-5
9.500115703E0,4.425048828E-4,-6.713867188E-4,1.983642578E-4
9.505151104E0,1.342773438E-3,-1.190185547E-3,1.083374023E-3
9.510186504E0,1.144409180E-3,5.798339844E-4,9.002685547E-4
9.515221905E0,2.746582031E-4,7.781982422E-4,-1.831054688E-4
9.520257305E0,6.866455078E-4,1.647949219E-3,-1.052856445E-3
9.525292705E0,1.968383789E-3,1.647949219E-3,-6.103515625E-4
9.530328106E0,4.882812500E-4,1.647949219E-3,8.697509766E-4
9.535363506E0,1.098632812E-3,1.403808594E-3,1.525878906E-5
9.540398907E0,5.035400391E-4,3.356933594E-4,-2.136230469E-4
9.545434307E0,1.586914062E-3,-4.882812500E-4,-7.934570312E-4
9.550469707E0,2.151489258E-3,1.525878906E-5,1.525878906E-5
9.555505108E0,1.342773438E-3,1.113891602E-3,-5.035400391E-4
9.560540508E0,1.342773438E-3,-4.882812500E-4,-2.120971680E-3
9.565575908E0,7.781982422E-4,-2.136230469E-4,-2.120971680E-3
9.570611309E0,-7.934570312E-4,5.798339844E-4,-1.831054688E-3
9.575646709E0,-5.035400391E-4,-1.525878906E-5,-1.052856445E-3
9.580682110E0,2.746582031E-4,-1.556396484E-3,-1.052856445E-3
9.585717510E0,2.746582031E-4,-9.460449219E-4,-7.324218750E-4
9.590752910E0,2.746582031E-4,2.593994141E-4,-2.899169922E-4
9.595788311E0,-6.103515625E-5,-4.882812500E-4,-1.052856445E-3
9.600823711E0,-4.730224609E-4,-1.678466797E-4,-1.373291016E-3
9.605859112E0,2.746582031E-4,2.288818359E-4,-1.770019531E-3
9.610894512E0,6.103515625E-4,-4.882812500E-4,-3.509521484E-4
9.615929912E0,9.765625000E-4,-1.373291016E-4,7.324218750E-4
9.620965313E0,-9.155273438E-5,5.798339844E-4,-3.356933594E-4
9.626000713E0,-4.425048828E-4,2.136230469E-4,-6.866455078E-4
9.631036114E0,2.746582031E-4,-1.220703125E-4,1.525878906E-5
9.636071514E0,2.746582031E-4,1.831054688E-4,-7.476806641E-4
9.641106914E0,2.746582031E-4,-8.850097656E-4,-1.724243164E-3
9.646142315E0,-1.373291016E-4,-1.159667969E-3,-6.408691406E-4
9.651177715E0,-7.934570312E-4,-4.882812500E-4,-3.814697266E-4
9.656213116E0,-7.934570312E-4,-4.882812500E-4,-6.408691406E-4
9.661248516E0,-7.934570312E-4,-7.629394531E-5,-3.967285156E-4
9.666283916E0,4.577636719E-5,9.918212891E-4,-6.256103516E-4
9.671319317E0,9.002685547E-4,1.205444336E-3,1.525878906E-5
9.676354717E0,7.019042969E-4,5.798339844E-4,-4.119873047E-4
9.681390117E0,8.850097656E-4,5.798339844E-4,-5.950927734E-4
9.686425518E0,7.171630859E-4,1.220703125E-4,-4.272460938E-4
9.691460918E0,8.697509766E-4,-3.051757812E-5,-1.052856445E-3
9.696496319E0,7.324218750E-4,1.068115234E-4,-1.052856445E-3
9.701531719E0,8.544921875E-4,-4.882812500E-4,-1.525878906E-3
9.706567119E0,2.746582031E-4,-1.525878906E-5,-1.632690430E-3
9.711602520E0,7.629394531E-4,7.629394531E-5,-5.493164062E-4
9.716637920E0,8.392333984E-4,-9.918212891E-4,1.525878906E-5
9.721673321E0,2.746582031E-4,-1.052856445E-3,1.525878906E-5
9.726708721E0,1.296997070E-3,-4.882812500E-4,1.525878906E-5
9.731744121E0,1.876831055E-3,-4.882812500E-4,-5.035400391E-4
9.736779522E0,1.342773438E-3,3.051757812E-5,-5.187988281E-4
9.741814922E0,7.934570312E-4,3.051757812E-5,-5.187988281E-4
9.746850323E0,-8.239746094E-4,-4.882812500E-4,-1.052856445E-3
9.751885723E0,-2.136230469E-4,-4.882812500E-4,-1.602172852E-3
9.756921123E0,1.892089844E-3,-1.052856445E-3,-2.120971680E-3
9.761956524E0,2.410888672E-3,-9.918212891E-4,-2.120971680E-3
9.766991924E0,1.251220703E-3,-1.068115234E-3,-1.541137695E-3
9.772027325E0,8.544921875E-4,-9.765625000E-4,-4.577636719E-4
9.777062725E0,7.476806641E-4,-4.882812500E-4,1.525878906E-5
9.782098125E0,8.697509766E-4,-4.882812500E-4,-5.798339844E-4
9.787133526E0,1.342773438E-3,-4.882812500E-4,-1.052856445E-3
9.792168926E0,7.171630859E-4,-1.113891602E-3,-1.052856445E-3
9.797204326E0,2.746582031E-4,-9.460449219E-4,-4.272460938E-4
9.802239727E0,2.746582031E-4,-4.882812500E-4,-6.103515625E-4
9.807275127E0,2.746582031E-4,-4.882812500E-4,2.288818359E-4
9.812310528E0,1.556396484E-3,-4.882812500E-4,1.083374023E-3
9.817345928E0,1.754760742E-3,-1.144409180E-3,-2.136230469E-4
9.822381328E0,6.713867188E-4,-2.441406250E-4,-3.814697266E-4
9.827416729E0,9.307861328E-4,5.798339844E-4,-6.408691406E-4
9.832452129E0,6.561279297E-4,5.798339844E-4,-1.052856445E-3
9.837487530E0,9.460449219E-4,-7.934570312E-4,-1.052856445E-3
9.842522930E0,1.342773438E-3,-8.697509766E-4,-1.052856445E-3
9.847558330E0,1.342773438E-3,1.983642578E-4,-1.739501953E-3
9.852593731E0,1.342773438E-3,-1.373291016E-4,-2.822875977E-3
9.857629131E0,6.256103516E-4,2.136230469E-4,-3.890991211E-3
9.862664532E0,2.746582031E-4,-1.525878906E-4,-3.524780273E-3
9.867699932E0,2.746582031E-4,-1.220703125E-3,-1.724243164E-3
9.872735332E0,2.746582031E-4,-9.155273438E-5,-1.785278320E-3
9.877770733E0,-4.730224609E-4,-1.678466797E-4,-2.120971680E-3
9.882806133E0,7.019042969E-4,2.593994141E-4,-6.103515625E-4
9.887841533E0,1.342773438E-3,-1.831054688E-4,1.525878906E-5
9.892876934E0,1.342773438E-3,-4.882812500E-4,-1.510620117E-3
9.897912334E0,2.105712891E-3,-4.882812500E-4,-5.645751953E-4
9.902947735E0,1.617431641E-3,-4.882812500E-4,1.525878906E-5
9.907983135E0,1.342773438E-3,1.098632812E-3,1.525878906E-5
9.913018535E0,1.342773438E-3,8.392333984E-4,-7.781982422E-4
9.918053936E0,2.136230469E-3,-2.288818359E-4,-2.441406250E-4
9.923089336E0,1.586914062E-3,-4.882812500E-4,1.525878906E-5
9.928124737E0,1.342773438E-3,3.204345703E-4,1.525878906E-5
9.933160137E0,2.975463867E-3,-2.441406250E-4,-1.617431641E-3
9.938195537E0,4.302978516E-3,1.998901367E-3,-2.120971680E-3
9.943230938E0,2.853393555E-3,3.555297852E-3,-1.266479492E-3
9.948266338E0,1.556396484E-3,2.090454102E-3,-1.983642578E-4
9.953301739E0,1.342773438E-3,1.647949219E-3,1.525878906E-5
9.958337139E0,1.342773438E-3,2.502441406E-3,-8.392333984E-4
9.963372539E0,4.577636719E-4,9.155273438E-5,-1.922607422E-3
9.968407940E0,2.746582031E-4,3.814697266E-4,-3.509521484E-4
9.973443340E0,1.159667969E-3,-1.205444336E-3,1.525878906E-5
9.978478741E0,1.342773438E-3,-6.713867188E-4,-1.754760742E-3
9.983514141E0,1.342773438E-3,1.296997070E-3,-2.120971680E-3
9.988549541E0,1.342773438E-3,-1.678466797E-4,-1.205444336E-3
9.993584942E0,2.258300781E-3,-4.882812500E-4,7.934570312E-4
9.998620342E0,5.493164062E-4,4.272460938E-4,1.678466797E-4
1.000365574E1,2.746582031E-4,-3.662109375E-4,1.525878906E-5
1.000869114E1,1.205444336E-3,-4.882812500E-4,1.525878906E-5
1.001372654E1,-5.493164062E-4,-4.882812500E-4,-9.155273438E-4
1.001876194E1,1.083374023E-3,-1.434326172E-3,-1.052856445E-3
1.002379734E1,3.662109375E-4,-1.556396484E-3,-2.014160156E-3
1.002883274E1,2.746582031E-4,-5.950927734E-4,-2.120971680E-3
1.003386815E1,2.746582031E-4,-1.480102539E-3,-2.120971680E-3
1.003890354E1,2.746582031E-4,-5.798339844E-4,-2.120971680E-3
1.004393895E1,2.746582031E-4,4.882812500E-4,-2.120971680E-3
1.004897435E1,1.266479492E-3,-4.272460938E-4,-2.120971680E-3
1.005400975E1,1.342773438E-3,-4.882812500E-4,-2.120971680E-3
1.005904515E1,1.342773438E-3,-4.882812500E-4,-2.120971680E-3
1.006408055E1,1.342773438E-3,-4.882812500E-4,-2.120971680E-3
1.006911595E1,1.342773438E-3,-4.882812500E-4,-6.103515625E-5
1.007415135E1,2.365112305E-3,-4.882812500E-4,-1.007080078E-3
1.007918675E1,2.410888672E-3,-4.882812500E-4,-1.052856445E-3
1.008422215E1,2.899169922E-4,-1.556396484E-3,1.525878906E-5
1.008925755E1,2.395629883E-3,-4.745483398E-3,-1.037597656E-3
1.009429295E1,1.342773438E-3,-1.556396484E-3,1.525878906E-5
1.009932835E1,1.342773438E-3,-4.882812500E-4,-1.037597656E-3
1.010436375E1,1.342773438E-3,-4.882812500E-4,3.051757812E-5
1.010939915E1,1.358032227E-3,5.493164062E-4,1.068115234E-3
1.011443455E1,2.380371094E-3,-4.882812500E-4,1.525878906E-5
1.011946995E1,1.296997070E-3,-4.882812500E-4,-1.525878906E-5
1.012450535E1,2.288818359E-4,-4.882812500E-4,-1.129150391E-3
1.012954075E1,-7.476806641E-4,-4.882812500E-4,-3.021240234E-3
1.013457615E1,3.814697266E-4,-4.882812500E-4,-3.051757812E-5
1.013961155E1,2.334594727E-3,-4.272460938E-4,-1.113891602E-3
1.014464695E1,1.342773438E-3,5.035400391E-4,-2.120971680E-3
1.014968235E1,1.342773438E-3,-4.882812500E-4,-2.120971680E-3
1.015471775E1,1.510620117E-3,-4.882812500E-4,-2.029418945E-3
1.015975316E1,3.280639648E-3,-3.967285156E-4,-1.052856445E-3
1.016478856E1,1.342773438E-3,4.730224609E-4,-9.460449219E-4
1.016982396E1,1.220703125E-3,-3.814697266E-4,1.525878906E-5
1.017485936E1,2.746582031E-4,5.798339844E-4,-9.155273438E-5
1.017989476E1,2.746582031E-4,3.204345703E-4,-1.174926758E-3
1.018493016E1,1.373291016E-4,-1.296997070E-3,-2.120971680E-3
1.018996556E1,-7.934570312E-4,5.798339844E-4,-1.678466797E-3
1.019500096E1,-7.934570312E-4,5.798339844E-4,1.083374023E-3
1.020003636E1,-6.408691406E-4,4.119873047E-4,9.307861328E-4
1.020507176E1,5.950927734E-4,-4.882812500E-4,-1.373291016E-4
1.021010716E1,2.410888672E-3,-4.882812500E-4,-1.052856445E-3
1.021514256E1,2.044677734E-3,-4.882812500E-4,-1.052856445E-3
1.022017796E1,7.629394531E-5,-4.882812500E-4,-1.235961914E-3
1.022521336E1,-6.103515625E-4,-6.866455078E-4,-1.724243164E-3
1.023024876E1,2.746582031E-4,-1.159667969E-3,-1.831054688E-4
1.023528416E1,6.103515625E-5,3.662109375E-4,-1.251220703E-3
1.024031956E1,-7.934570312E-4,-6.103515625E-5,-2.120971680E-3
1.024535496E1,-7.934570312E-4,1.647949219E-3,-2.120971680E-3
1.025039036E1,-7.934570312E-4,1.647949219E-3,-1.647949219E-3
1.025542576E1,-7.934570312E-4,1.159667969E-3,1.525878906E-5
1.026046116E1,-5.493164062E-4,-4.882812500E-4,-4.730224609E-4
1.026549656E1,1.525878906E-5,-4.882812500E-4,-1.861572266E-3
1.027053196E1,-1.068115234E-3,-2.288818359E-4,-7.781982422E-4
1.027556736E1,-1.861572266E-3,5.798339844E-4,-2.441406250E-4
1.028060276E1,-2.151489258E-3,2.899169922E-4,-7.629394531E-4
1.028563816E1,-2.929687500E-3,-2.136230469E-4,-2.593994141E-4
1.029067356E1,-2.639770508E-3,-5.950927734E-4,-1.342773438E-3
1.029570897E1,-1.861572266E-3,-3.097534180E-3,-1.815795898E-3
1.030074437E1,-1.251220703E-3,-1.251220703E-3,-1.358032227E-3
1.030577977E1,5.798339844E-4,-1.831054688E-4,-1.800537109E-3
1.031081517E1,1.342773438E-3,2.593994141E-4,-1.358032227E-3
1.031585057E1,1.007080078E-3,1.525878906E-4,-2.120971680E-3
1.032088597E1,5.950927734E-4,1.312255859E-3,-2.120971680E-3
1.032592137E1,6.561279297E-4,9.155273438E-4,-1.770019531E-3
1.033095677E1,-4.425048828E-4,1.281738281E-3,-6.866455078E-4
1.033599217E1,2.746582031E-4,5.798339844E-4,-3.356933594E-4
1.034102757E1,6.256103516E-4,9.307861328E-4,-1.052856445E-3
1.034606297E1,9.613037109E-4,1.647949219E-3,-1.419067383E-3
1.035109837E1,2.746582031E-4,1.266479492E-3,-1.739501953E-3
1.035613377E1,-5.187988281E-4,5.798339844E-4,-1.434326172E-3
1.036116917E1,-1.861572266E-3,5.798339844E-4,-2.120971680E-3
1.036620457E1,-1.464843750E-3,1.678466797E-4,-2.120971680E-3
1.037123997E1,-7.934570312E-4,-4.882812500E-4,-1.281738281E-3
