"Time (s)";"Linear Acceleration x (m/s^2)";"Linear Acceleration y (m/s^2)";"Linear Acceleration z (m/s^2)"
1.291068150E-1;9.804964066E-3;1.461017132E-2;6.923675537E-3
1.471441070E-1;2.338737249E-4;1.388728619E-2;-3.125953674E-2
1.651734050E-1;-4.762440920E-3;-4.631996155E-3;-3.234863281E-3
1.832106360E-1;5.199462175E-4;1.852214336E-2;-2.166271210E-2
2.012583040E-1;5.154073238E-3;1.404464245E-2;-1.692295074E-2
2.192991980E-1;5.046203732E-3;3.864049911E-3;-1.265144348E-2
2.373366120E-1;-4.117429256E-3;1.857924461E-2;-1.688385010E-2
2.553697550E-1;5.033075809E-3;8.774280548E-3;-7.286071777E-3
2.734137000E-1;5.370065570E-3;1.849317551E-2;-3.601551056E-2
2.914508090E-1;5.694031715E-4;3.793001175E-3;1.719474792E-3
3.094908490E-1;8.852183819E-4;1.329636574E-2;-2.638149261E-2
3.275295440E-1;5.796357989E-3;-1.130223274E-3;-7.227897644E-3
3.455595130E-1;-4.007965326E-3;1.326406002E-2;-2.637958527E-2
3.636088290E-1;-4.034832120E-3;-1.161932945E-3;-7.824897766E-3
3.816434980E-1;1.045440137E-2;3.500461578E-3;-2.156543732E-2
3.996781040E-1;-4.116445780E-3;3.648400307E-3;-7.232666016E-3
4.177042270E-1;-3.730624914E-3;8.099794388E-3;-1.196575165E-2
4.357505530E-1;1.102158427E-2;3.405332565E-3;-1.197242737E-2
4.538027990E-1;1.578733325E-3;8.119583130E-3;-2.631759644E-2
4.718350860E-1;1.774072647E-3;-1.360416412E-3;-2.997398376E-3
4.898751870E-1;1.393452287E-3;1.265907288E-2;-2.150058746E-2
5.079151650E-1;7.409453392E-4;8.178949356E-3;-3.007888794E-3
5.259479400E-1;1.040601730E-2;1.289451122E-2;-1.675605774E-2
5.439862100E-1;5.511417985E-3;3.523111343E-3;-1.199913025E-2
5.620163010E-1;1.502692699E-3;8.130073547E-3;-1.674938202E-2
5.800657990E-1;1.501441002E-3;8.383035660E-3;-1.678466797E-2
5.981093790E-1;1.499325037E-3;8.529782295E-3;-1.680564880E-2
6.161396520E-1;-3.324583173E-3;-8.444786072E-4;-1.683330536E-2
6.341769450E-1;1.732811332E-3;1.344299316E-2;-1.203441620E-2
6.522205240E-1;-3.237381577E-3;8.639574051E-3;-1.203441620E-2
6.702583040E-1;1.049891114E-3;8.622407913E-3;-1.203823090E-2
6.883007850E-1;8.796304464E-4;8.766293526E-3;-7.275581360E-3
7.063319130E-1;4.954636097E-4;-8.728504181E-4;-1.205730438E-2
7.243705480E-1;6.392002106E-4;3.736019135E-3;-1.203060150E-2
7.424127850E-1;1.937448978E-4;8.504271507E-3;-1.203441620E-2
7.604517860E-1;5.169093609E-3;3.595113754E-3;-1.201438904E-2
7.784916420E-1;4.073530436E-4;1.314663887E-2;-1.679706573E-2
7.965246010E-1;-3.629177809E-3;1.296985149E-2;-1.197624207E-2
8.145602460E-1;5.986094475E-3;8.007407188E-3;-7.164955139E-3
8.326084640E-1;-3.973543644E-3;3.366827965E-3;-1.197624207E-2
8.506432530E-1;-3.788962960E-3;-1.326680183E-3;-7.201194763E-3
8.686787750E-1;9.285211563E-4;3.550529480E-3;-7.215499878E-3
8.867119180E-1;5.498662591E-3;8.426904678E-3;-1.201629639E-2
9.047546420E-1;4.931524396E-3;8.568406105E-3;-7.259368896E-3
9.227981600E-1;-9.659588337E-3;8.656978607E-3;-7.273674011E-3
9.408355750E-1;2.243071795E-4;8.640050888E-3;2.304077148E-3
9.588766520E-1;1.917779446E-5;1.340436935E-2;-7.266998291E-3
9.769093660E-1;-1.617968082E-4;3.924965858E-3;-7.283210754E-3
9.949471470E-1;-3.441870213E-4;8.478641510E-3;-2.467155457E-3
1.012987674E0;-3.652125597E-4;3.463387489E-3;-7.221221924E-3
1.031027104E0;4.457637668E-3;8.124589920E-3;-7.203102112E-3
1.049067020E0;3.920495510E-3;8.268713951E-3;-7.230758667E-3
1.067107059E0;-6.031140685E-3;8.412003517E-3;-7.255554199E-3
1.085150211E0;-5.854263902E-3;8.343338966E-3;-7.244110107E-3
1.103178776E0;-1.091042161E-2;3.650069237E-3;-2.474784851E-3
1.121221073E0;1.315923035E-2;-1.309871674E-3;-7.234573364E-3
1.139263187E0;-6.416618824E-3;8.191227913E-3;-7.229804993E-3
1.157295658E0;-2.072662115E-3;-1.233577728E-3;-2.471923828E-3
1.175332218E0;-6.878405809E-3;8.211493492E-3;-7.239341736E-3
1.193374943E0;2.958700061E-3;1.292502880E-2;2.345085144E-3
1.211412296E0;-1.734703779E-3;3.444790840E-3;2.333641052E-3
1.229451969E0;-6.915390491E-3;3.373742104E-3;-1.201820374E-2
1.247494022E0;3.120750189E-3;7.927298546E-3;-2.408027649E-3
1.265512150E0;2.912074327E-3;-1.655697823E-3;2.375602722E-3
1.283567691E0;2.971857786E-3;7.791638374E-3;-7.177352905E-3
1.301604068E0;-6.710961461E-3;7.934331894E-3;-7.198333740E-3
1.319644718E0;-2.122879028E-3;-1.540064812E-3;6.544113159E-3
1.337669620E0;2.917990088E-3;7.959723473E-3;-2.415657043E-3
1.355719547E0;-6.484597921E-3;3.159999847E-3;1.775741577E-3
1.373759708E0;3.038004041E-3;3.199458122E-3;1.770019531E-3
1.391797001E0;-2.114756405E-2;8.074998856E-3;1.753807068E-3
1.409825382E0;-2.060830593E-3;3.167033195E-3;1.770019531E-3
1.427874820E0;2.552911639E-3;7.881045341E-3;-2.409934998E-3
1.445909855E0;-2.020120621E-3;7.864356041E-3;1.135444641E-2
1.463947940E0;7.345870137E-3;-1.717686653E-3;6.567955017E-3
1.481986759E0;-1.205340028E-2;7.889866829E-3;-3.012657166E-3
1.500019169E0;6.876051426E-3;7.926940918E-3;2.363204956E-3
1.518068729E0;-2.497911453E-3;7.800579071E-3;-3.000259399E-3
1.536100833E0;-2.872273326E-3;7.943391800E-3;1.760482788E-3
1.554138920E0;-3.093376756E-3;3.195047379E-3;1.751899719E-3
1.572181339E0;-8.166030049E-3;1.279771328E-2;2.341270447E-3
1.590220707E0;-3.539368510E-3;8.208513260E-3;1.713752747E-3
1.608260929E0;-8.429020643E-3;1.302754879E-2;1.127910614E-2
1.626292850E0;1.022398472E-3;1.306009293E-2;6.487846375E-3
1.644334110E0;-8.693233132E-3;8.258104324E-3;6.487846375E-3
1.662373783E0;-3.802493215E-3;3.349781036E-3;1.720428467E-3
1.680413700E0;1.239106059E-3;8.116364479E-3;2.325057983E-3
1.698452641E0;-3.934279084E-3;3.422141075E-3;1.127910614E-2
1.716488102E0;8.205324411E-4;1.280856133E-2;-2.453804016E-3
1.734514286E0;-1.364274323E-2;8.110880852E-3;-3.065109253E-3
1.752567325E0;9.641498327E-4;-1.419901848E-3;1.128959656E-2
1.770604251E0;-8.934289217E-3;8.132457733E-3;6.502151489E-3
1.788644474E0;-4.088997841E-3;3.385782242E-3;6.497383118E-3
1.806678715E0;-3.830775619E-3;7.992148399E-3;1.131153107E-2
1.824716495E0;-8.377417922E-3;3.134608269E-3;6.539344788E-3
1.842759464E0;1.323685050E-3;7.952451706E-3;1.751899719E-3
1.860796756E0;-8.120059967E-3;3.152847290E-3;1.754760742E-3
1.878837833E0;-3.385663033E-3;7.760047913E-3;6.565093994E-3
1.896870365E0;-8.119553328E-3;3.012418747E-3;6.560325623E-3
1.914908817E0;-3.338664770E-3;3.050208092E-3;6.553649902E-3
1.932951969E0;-8.087828755E-3;1.270413399E-2;-3.027915955E-3
1.950987064E0;-3.265276551E-3;7.797122002E-3;6.561279297E-3
1.969029239E0;-2.511277795E-3;2.841949463E-3;6.595611572E-3
1.987068546E0;-7.036715746E-3;2.672195435E-3;1.619434357E-2
2.005101200E0;2.726793289E-3;2.501010895E-3;1.143455505E-2
2.023141117E0;-2.398058772E-3;2.650380135E-3;6.623268127E-3
2.041182255E0;-2.591758966E-3;1.236283779E-2;6.601333618E-3
2.059222293E0;-7.384121418E-3;1.229131222E-2;1.825332642E-3
2.077259891E0;-1.232595742E-2;2.816915512E-3;1.810073853E-3
2.095293827E0;2.398684621E-3;2.753615379E-3;6.608963013E-3
2.113328372E0;-7.087007165E-3;7.469177246E-3;-2.950668335E-3
2.131371586E0;2.203032374E-3;7.508277893E-3;6.610870361E-3
2.149416324E0;-7.336094975E-3;7.493138313E-3;6.612777710E-3
2.167453983E0;-2.675294876E-3;1.236748695E-2;1.138496399E-2
2.185488223E0;-2.212122083E-3;2.571821213E-3;1.142311096E-2
2.203527531E0;-2.304941416E-3;2.456545830E-3;6.651878357E-3
2.221566837E0;-2.396315336E-3;7.064223289E-3;1.890182495E-3
2.239606876E0;-7.063105702E-3;1.661026478E-2;6.681442261E-3
2.257646671E0;-1.971796155E-3;2.188205719E-3;1.909255981E-3
2.275675907E0;-2.186328173E-3;6.746292114E-3;1.937866211E-3
2.293720097E0;-2.148464322E-3;-2.992510796E-3;1.961708069E-3
2.311759281E0;2.678766847E-3;1.782298088E-3;-2.821922302E-3
2.329799503E0;-2.000093460E-3;6.608009338E-3;1.959800720E-3
2.347828312E0;2.780809999E-3;6.594061852E-3;-2.823829651E-3
2.365868351E0;-1.951768994E-3;1.799702644E-3;6.749153137E-3
2.383912724E0;-6.726160645E-3;6.731987000E-3;-7.628440857E-3
2.401952090E0;-2.116441727E-3;1.828312874E-3;1.957893372E-3
2.419987675E0;-2.353698015E-3;1.602888107E-3;1.986503601E-3
2.438031437E0;-2.430081367E-3;1.104795933E-2;6.788253784E-3
2.456063907E0;-2.323284745E-3;6.249070168E-3;2.005577087E-3
2.474102725E0;-2.285137773E-3;1.238584518E-3;2.038002014E-3
2.492133121E0;-7.257446647E-3;6.008744240E-3;6.822586060E-3
2.510184452E0;-7.214844227E-3;1.088190079E-2;-2.759933472E-3
2.528223698E0;-2.391338348E-3;1.064932346E-2;6.844520569E-3
2.546256778E0;2.320840955E-3;1.014113426E-3;2.066612244E-3
2.564294864E0;-2.433955669E-3;1.109242439E-3;-2.731323242E-3
2.582326603E0;-2.494975924E-3;1.099467278E-3;2.054214478E-3
2.600377262E0;2.210035920E-3;1.248598099E-3;2.032279968E-3
2.618416813E0;-7.096514106E-3;1.078248024E-3;2.059936523E-3
2.636449283E0;-7.046073675E-3;1.121640205E-3;-2.731323242E-3
2.654489566E0;-1.176169515E-2;-3.720402718E-3;6.849288940E-3
2.672529178E0;-2.044960856E-3;5.888938904E-3;-2.725601196E-3
2.690568852E0;-1.892283559E-3;5.821347237E-3;6.856918335E-3
2.708610050E0;-2.328038216E-3;5.915045738E-3;6.837844849E-3
2.726641239E0;-2.381473780E-3;1.173138618E-3;-2.739906311E-3
2.744681278E0;-6.773009896E-3;5.732774734E-3;2.082824707E-3
2.762724124E0;-6.562218070E-3;-3.842592239E-3;6.872177124E-3
2.780760868E0;1.293747127E-2;-7.035505772E-2;-7.464408875E-3
2.798800968E0;-1.360713094E-1;-1.842039824E-1;2.460479736E-4
2.816836124E0;-9.845851362E-2;-3.607414961E-1;4.449844360E-3
2.834873599E0;2.166357636E-2;-1.147750616E-1;-2.708435059E-2
2.852916019E0;-1.892699748E-1;-2.543697357E-1;1.806125641E-1
2.870953862E0;-3.479139209E-1;-2.389595509E-1;-2.148704529E-1
2.888989445E0;8.656345606E-1;1.803761721E-1;2.400255203E-1
2.907032657E0;-2.634157538E-1;-4.704058170E-2;4.397106171E-2
2.925065555E0;-7.608972788E-1;6.405472755E-3;-4.394855499E-1
2.943109806E0;-4.401155114E-1;3.904160261E-1;2.037897110E-1
2.961146793E0;-1.364679217E0;5.038478374E-1;-8.480358124E-2
2.979188114E0;-2.060887337E0;-5.719983578E-2;1.519594193E-1
2.997224186E0;-2.014291048E0;4.282019138E-1;-7.171850204E-1
3.015258731E0;-1.370102525E0;5.646542311E-1;3.252410889E-1
3.033298099E0;-8.719316125E-1;7.212690115E-1;1.337890625E-1
3.051340092E0;-7.193171382E-1;7.213274240E-1;-7.576646805E-1
3.069378910E0;-8.578450084E-1;4.524538517E-1;9.453773499E-2
3.087418705E0;-6.444600821E-1;5.679318905E-1;-2.260780334E-2
3.105451725E0;-6.151214838E-1;3.421324492E-1;-1.662235260E-1
3.123487125E0;-2.161952853E-1;3.611205816E-1;-2.255792618E-1
3.141534794E0;3.590211868E-1;4.822432995E-1;2.665519714E-3
3.159570865E0;8.782520294E-1;4.153455496E-1;4.253387451E-4
3.177613224E0;9.926029444E-1;3.932852745E-1;-2.836112976E-1
3.195632816E0;1.024638891E0;3.163269758E-1;-1.307487488E-3
3.213684635E0;1.013360500E0;4.466807842E-1;2.466869354E-2
3.231729496E0;8.602376580E-1;3.750393391E-1;-1.040506363E-1
3.249764835E0;9.829049706E-1;4.150632620E-1;-1.110830307E-1
3.267803653E0;9.228529930E-1;4.107091427E-1;1.836109161E-2
3.285841678E0;8.221077919E-1;4.226480722E-1;-9.168624878E-3
3.303880558E0;6.910125613E-1;4.231632948E-1;-1.711111069E-1
3.321919132E0;5.091130733E-1;3.895092010E-1;-8.816719055E-3
3.339957767E0;3.334601521E-1;3.556821346E-1;-9.315490723E-3
3.357995792E0;1.964904964E-1;3.599882126E-1;-1.329669952E-1
3.376034793E0;-4.869535565E-2;3.753186464E-1;-1.760873795E-1
3.394073429E0;-8.541068435E-2;4.837714434E-1;-7.896614075E-2
3.412112430E0;-1.980245411E-1;5.555722713E-1;-1.357192993E-1
3.430138492E0;-3.242079616E-1;6.071616411E-1;-2.252445221E-1
3.448188846E0;-2.412356436E-1;5.424492359E-1;5.174255371E-2
3.466227420E0;1.618821621E-1;4.459692240E-1;4.161338806E-1
3.484266361E0;-3.898535669E-1;4.736211300E-1;-2.482776642E-1
3.502304386E0;-6.998939514E-1;6.292783022E-1;-1.998329163E-1
3.520343448E0;1.617531776E-1;5.742751360E-1;2.375679016E-1
3.538381473E0;-4.777155519E-1;5.422303677E-1;-1.314802170E-1
3.556420658E0;4.081147313E-1;7.881644964E-1;7.924270630E-2
3.574443485E0;-1.165788651E0;2.508827448E-1;-7.504634857E-1
3.592494999E0;1.016098261E-2;6.742551327E-1;7.942285538E-1
3.610535648E0;-1.110246181E0;1.563450933E0;-1.496094704E0
3.682690433E0;1.325854778E0;1.869567990E0;-1.275444031E-2
3.700728946E0;8.278502822E-1;1.967811465E0;-2.357101440E-1
3.718766178E0;4.288203120E-1;2.367145061E0;-4.103755951E-2
3.736806644E0;-1.629233956E-1;2.368163347E0;-9.946718216E-1
3.754844791E0;4.170617461E-1;3.060314178E0;-3.127479553E-2
3.772882938E0;8.610273600E-1;2.144285679E0;5.035619736E-1
3.790921512E0;1.228451252E0;2.767546654E0;-1.338488579E0
3.808945072E0;-1.419949532E-2;2.698272705E0;-6.943225861E-1
3.826997379E0;4.028453231E-1;2.317415476E0;2.338068962E0
3.845038334E0;1.533148885E-1;3.325495243E0;-2.569594860E0
3.863075382E0;9.643351436E-1;1.299407959E0;3.024559021E-1
3.881114139E0;3.088644743E-1;3.324710369E0;-7.382030487E-1
3.899153080E0;4.286429882E-1;2.186361790E0;-1.003711700E0
3.917191593E0;-1.288221478E-1;2.674180031E0;2.396862984E0
3.935229374E0;1.574869156E0;1.705908060E0;-9.366827011E-1
3.953265323E0;1.339327097E-1;3.327980518E0;-2.537655830E0
3.971308231E0;1.133524776E-1;2.088742971E0;-1.967267990E-1
3.989344486E0;-1.578961372E0;2.993145466E0;-3.342552185E-1
4.007383976E0;-4.753740430E-1;3.510852814E0;-2.735386372E0
4.025423038E0;-2.942604303E0;1.529216647E0;1.289282799E0
4.043456913E0;-1.252965927E0;2.195906878E0;1.123784065E0
4.061497257E0;-3.026190281E0;1.370551586E0;-7.073450089E-1
4.079541264E0;-1.401208162E0;3.820109367E-2;-1.048327446E0
4.097576542E0;-2.043879271E0;-1.697812080E-1;1.278410912E0
4.115615421E0;1.426806450E-1;-9.886237979E-1;3.752813339E-1
4.133654178E0;-1.165020466E-2;-8.446830511E-1;-1.140913963E0
4.151692386E0;3.643543124E-1;-1.515069008E0;2.399143219E0
4.169730899E0;1.445771694E0;1.055727839E0;-1.532335281E0
4.187753544E0;1.051556349E0;7.553439140E-1;7.796745300E-1
4.205808292E0;1.338408232E0;2.795541048E0;-2.268859863E0
4.223846439E0;-1.470291615E-2;1.561102509E0;1.929443359E0
4.241885196E0;4.071404040E-1;2.731283903E0;-6.675872803E-1
4.259923954E0;-1.443285465E0;4.434955597E0;4.319868088E-1
4.277957218E0;-1.629218578E0;6.839029789E-1;-8.467760086E-1
4.296000370E0;-7.465826273E-1;3.513351440E0;8.126640320E-1
4.314039310E0;-2.446535110E0;-1.261613607E0;-1.133587837E0
4.332077701E0;-1.842944384E0;1.486931205E0;5.714006424E-1
4.350116702E0;-5.099196911E0;-1.030707836E0;-3.341827393E-1
4.368154728E0;-2.636402607E0;-2.673445940E-1;1.618615150E0
4.386193546E0;-1.531602025E0;-1.268541813E-1;-2.299144268E0
4.404232120E0;-2.671166182E0;2.400015593E-1;2.166749001E0
4.422269474E0;-1.167363644E0;-2.701223850E0;-1.557981491E0
4.440307438E0;-5.992328525E-1;-1.080517054E0;2.818547249E0
4.458349369E0;-5.052151680E-1;-1.575658798E0;-1.807588577E0
4.476386234E0;1.353561997E0;-2.997318983E0;1.123008728E0
4.494425174E0;1.737790406E-1;-1.060572982E0;1.558227539E-1
4.512448428E0;9.257720709E-1;-1.006919742E0;-1.368767738E0
4.530504154E0;-2.698338330E-1;-1.025571346E0;6.642150879E-1
4.548540348E0;1.018324137E0;-1.264545321E0;7.156944275E-2
4.566579044E0;6.223250628E-1;6.297814846E-2;-1.754699230E0
4.584617130E0;1.355545282E0;-7.843474746E-1;1.988459587E0
4.602655948E0;9.379364848E-1;2.265095711E-2;-8.699817657E-1
4.620694522E0;3.865275979E-1;-2.069942236E0;2.844754219E0
4.638732487E0;-7.870904356E-2;1.512257457E0;-1.271948814E0
4.656753910E0;5.462332964E-1;-3.739423752E-1;-1.141624451E0
4.674810001E0;8.014594913E-1;2.458695173E-1;9.046030045E-1
4.692848758E0;3.762471676E-1;1.366595030E-1;-1.812440395E0
4.710887210E0;8.320537210E-1;-3.350136280E-1;7.727909088E-1
4.728925419E0;-9.892796278E-1;2.158387184E0;-1.437608719E0
4.746964054E0;3.119107783E-1;-1.476447821E0;2.748310089E0
4.765002872E0;5.313825607E-1;-1.375557303E0;-6.758213043E-1
4.783041507E0;-2.452155948E-2;2.660192251E-1;6.114387512E-2
4.801079471E0;4.140070081E-1;-2.048549652E-1;-1.680094719E0
4.819115115E0;7.417215109E-1;8.227816820E-1;5.943813324E-1
4.837159611E0;-1.330913067E0;4.077965021E-1;-3.910007477E-1
4.855195255E0;-1.007183075E0;-1.036369562E0;6.842098236E-1
4.873229923E0;-1.827352524E0;2.254375458E0;-7.491436005E-1
4.891272037E0;-1.316058993E0;1.422674656E0;-2.667880535E0
4.909309268E0;-1.934890985E0;-7.278299928E-1;1.860485077E0
4.927351078E0;-2.859882116E0;1.150450230E0;-3.173933029E-1
4.945387638E0;-2.665653229E0;-1.344244123E0;4.866304398E-1
4.963426395E0;-2.225551605E0;1.886145353E0;4.879894257E-1
4.981464786E0;-2.416386366E0;-7.885482907E-1;-2.802378654E0
4.999503604E0;-1.870516539E-1;-8.310916424E-1;1.245164871E0
5.017541385E0;1.024167180E0;-2.688781023E-1;-5.792140961E-1
5.035568851E0;-1.503980160E-1;-1.236121416E0;7.093935013E-1
5.053618717E0;2.414776087E-1;-5.547916889E-1;-1.912698746E-1
5.071657779E0;-1.574386716E0;-6.885084510E-1;1.969088554E0
5.089695682E0;-4.064296722E0;-1.298917532E0;-2.352113724E-1
5.107734806E0;-4.838053226E0;1.645817995E0;5.984210968E-1
5.125760868E0;-3.736240864E0;6.007089615E-1;-2.770713806E0
5.143809025E0;-2.462965488E0;-1.217727065E0;3.026299477E0
5.161852421E0;-1.855538607E0;-3.276554108E0;-2.920044422E0
5.179888370E0;5.839471817E-1;-1.671159983E0;4.577462196E0
5.197926944E0;-4.889203310E-1;-4.260349274E-2;-1.313935280E0
5.215965518E0;-1.213828683E0;-4.013504028E0;-1.703928947E0
5.234003849E0;-1.467865705E0;-5.631320477E-1;4.066741943E0
5.252042301E0;-2.489229918E0;1.086764336E0;-2.208746910E0
5.270080570E0;-8.267006874E-1;2.347499728E-1;3.689357758E0
5.288119877E0;-1.192545891E0;3.030258179E0;-3.292409420E0
5.306157291E0;-1.649995565E0;-1.702857018E-2;2.569900513E0
5.324184513E0;-1.320586085E0;-9.633532166E-1;1.339133263E0
5.342234989E0;-7.517194748E-2;1.698937178E0;1.617736816E-1
5.360262699E0;6.691763401E-1;1.059169412E0;9.780578613E-1
5.378311405E0;-1.739640832E0;1.040906191E0;1.377313614E0
5.396350223E0;1.189133644E0;5.027598143E-1;-8.665628433E-1
5.414389103E0;-2.725053072E0;3.211137056E-1;6.982517242E-2
5.432427677E0;-3.587351799E0;1.532713175E0;-4.035015106E-1
5.450465702E0;-1.953115821E0;3.994196653E-2;1.218269348E0
5.468504337E0;-1.881611347E-1;-8.391262889E-1;1.975211143E0
5.486542911E0;-1.724683762E0;-3.922632635E-1;-1.227469444E0
5.504581241E0;-1.693171024E0;2.048170090E0;2.591930389E0
5.522619449E0;-1.877014518E0;-2.571695566E0;3.722476959E-2
5.540658451E0;-5.008559227E-1;2.381225109E0;9.406509399E-1
5.558695866E0;-1.346333027E-1;1.246457934E0;-1.890348911E0
5.576736149E0;1.660766602E-1;2.052570105E0;3.204735756E0
5.594758975E0;-9.550881386E-2;2.499604940E0;-1.492738247E0
5.612815006E0;-1.820629597E0;2.665568113E0;-1.727226257E0
5.630850711E0;-1.779879332E0;2.314409018E0;3.796311378E0
5.648889652E0;-1.111233234E0;6.201041937E-1;-8.240795135E-2
5.666924381E0;-1.095315933E0;1.596996069E0;8.160753250E-1
5.684969242E0;-2.081810951E0;1.857932806E0;4.312639236E-1
5.703004520E0;-2.078244686E-1;2.080763340E0;-6.575279236E-1
5.721043399E0;-6.423211098E-1;-9.593385458E-1;1.798707008E0
5.739081241E0;2.069795132E-1;8.980855346E-1;2.414806366E0
5.757116703E0;3.612756729E-2;1.902153015E0;-3.351937294E0
5.775161686E0;8.379802704E-1;3.456724286E-1;1.172371864E0
5.793193790E0;-4.122302532E-1;1.339318514E0;4.550981522E-1
5.811235416E0;-2.206774235E0;-6.980348825E-1;-5.129677296E0
5.829274173E0;-3.897488117E-1;-1.614593506E0;4.713619232E0
5.847312381E0;-3.253936768E-3;-9.260594845E-1;-1.162047386E0
5.865351261E0;1.339570045E0;-1.287463427E0;-1.488628387E0
5.883389530E0;-3.450133801E-1;4.558137655E-1;1.997127533E0
5.901427860E0;1.252396107E-1;-1.494079590E0;-1.106082916E0
5.919466312E0;7.706582546E-1;3.092152119E0;-1.482718468E0
5.937504825E0;-1.095405817E0;-1.814753056E0;1.420172691E0
5.955543094E0;-8.737819195E-1;1.052821875E-1;2.545199394E0
5.973564029E0;-1.806488276E0;1.851259470E-1;-2.073534489E0
5.991619511E0;-1.173135877E0;1.240873933E-1;3.793597221E0
6.009659733E0;-1.003200769E0;8.470841050E-1;-2.620089054E0
6.027696903E0;5.005226135E-1;-9.089511633E-1;-5.483007431E-1
6.045735538E0;-2.499651909E-1;4.322116971E-1;6.023378372E-1
6.063774295E0;2.491118908E-1;-1.592841744E-1;-9.371042252E-1
6.081812992E0;-6.909723282E-1;-1.666870832E0;2.207773209E0
6.099850651E0;-4.620370865E-1;-3.009519577E-1;-1.932370663E0
6.117886417E0;-1.262893796E0;1.096040130E0;-5.883502960E-1
6.135927799E0;-1.699415565E0;-4.911865234E0;4.696576118E0
6.153966861E0;-2.833674192E0;2.850006580E0;-7.426147461E-1
6.172004276E0;-2.576387167E0;-4.718021750E-1;-8.942356110E-1
6.190043582E0;-3.603027582E0;4.011245966E-1;1.632013321E0
6.208077091E0;-2.577650547E-1;4.375470281E-1;6.887931824E-1
6.226120548E0;-8.874201775E-1;3.337142467E0;-2.031949997E0
6.244158634E0;8.818378448E-1;7.879144549E-1;1.760451317E0
6.262197574E0;-5.103802681E-2;-5.277280807E-1;2.898511887E0
6.280235782E0;7.346427441E-1;2.111962318E0;-3.983807564E0
6.298274356E0;-3.325724602E-1;-2.167677641E0;2.641410828E0
6.316312382E0;6.507728100E-1;2.258765221E0;9.694404602E-1
6.334351200E0;-7.143642902E-1;-3.430430889E-1;-1.525267601E0
6.352389347E0;-2.861912251E-1;-1.919326186E-1;2.542714119E0
6.370427738E0;-1.260647774E-1;-2.174278498E-1;6.550559998E-1
6.388466800E0;-4.845761061E-1;1.552804828E0;-2.786359787E-1
6.406505130E0;-5.825370550E-1;-4.657367468E-1;-1.289268494E0
6.424543583E0;-3.135120869E-1;8.175704479E-1;3.469362259E-1
6.442582218E0;-6.642162800E-1;-4.449321032E-1;-4.640789032E-1
6.460619999E0;-4.978275299E-2;4.515393972E-1;4.221720695E0
6.478657963E0;5.922458172E-1;3.321284294E0;-3.491919518E0
6.496698063E0;-3.811930418E-1;-2.463792562E-1;2.377157211E0
6.514733097E0;1.547166586E0;3.926002502E0;1.343402863E-1
6.532776676E0;1.996530294E-1;9.892109632E-1;-4.911399841E0
6.550812687E0;1.018365741E0;-4.291881323E-1;4.243745804E0
6.568851017E0;7.801518440E-1;2.491488695E0;-1.884142876E0
6.586889652E0;8.159364462E-1;1.513677835E-1;-2.757107735E0
6.604922855E0;2.999322414E-1;-3.764530182E0;3.223886490E-1
6.622970951E0;-4.509774446E-1;2.149773836E0;2.895355225E-3
6.641005008E0;-6.853734851E-1;4.776337147E-1;-2.142143250E0
6.659043643E0;-7.346104383E-1;-3.166614056E0;5.840301514E0
6.677081669E0;7.623749971E-1;9.276323318E-1;-8.182935715E-1
6.695120060E0;-8.428694010E-1;1.703612685E0;-3.659627438E0
6.713155216E0;-6.006362438E-1;-4.921454191E-1;1.189065933E0
6.731202274E0;-5.949771404E-2;-6.543508768E-1;-1.170134544E0
6.749235477E0;5.526540279E-1;-2.762343884E0;1.285358429E0
6.767274112E0;-4.487324357E-1;3.110702038E-1;1.100077629E0
6.785312442E0;-1.455571651E-1;1.416504502E0;-2.007306099E0
6.803351200E0;-7.547740936E-1;-1.235230327E0;1.567088127E0
6.821371036E0;7.034122944E-2;-5.822846889E-1;9.266843796E-1
6.839427189E0;-1.168620825E0;1.715038419E0;-4.801970482E0
6.857467166E0;-1.353314519E-1;-1.921891093E0;1.166037560E0
6.875505069E0;-5.399667025E-1;-2.692136288E0;3.967025757E0
6.893543033E0;-3.210235238E-1;-1.528801918E-1;-1.992201805E0
6.911581791E0;-7.063411474E-1;-7.466885448E-1;1.007047653E0
6.929620243E0;-2.856910229E-3;1.692423820E-1;-2.854261398E-1
6.947659122E0;-3.218567967E-1;5.861504078E-1;-5.369119644E-1
6.965696903E0;-6.670315862E-1;1.938868046E0;5.626821518E-1
6.983732486E0;2.383182645E-1;6.237279177E-1;-4.265031815E-1
7.001777042E0;7.530648112E-1;2.953306437E-1;2.386387825E0
7.019812747E0;7.701891065E-1;-5.839511156E-1;-5.685272217E-1
7.037850712E0;5.843446851E-1;2.648928881E0;-2.041259289E0
7.055886905E0;3.380160332E-1;6.769225597E-1;1.868432045E0
7.073927860E0;-9.124952555E-2;-3.432115316E-1;-2.223121166E0
7.091966678E0;1.183490157E-1;-1.154662609E0;-1.002965927E0
7.110004581E0;6.595910192E-1;9.011608362E-1;1.856876373E0
7.128043338E0;8.440269232E-1;2.785937786E-1;-1.434489250E0
7.146081669E0;7.076737285E-1;-1.148706675E0;-9.969387054E-1
7.164120365E0;-3.709262609E-1;-7.431161404E-2;1.735652924E0
7.182158329E0;2.592011094E-1;1.960146427E0;-1.417634010E0
7.200202518E0;-6.984063983E-1;1.972702742E-1;-1.352713585E0
7.218235233E0;-7.753489017E-1;-7.841193676E-2;1.029567719E-1
7.236274417E0;-1.796233952E-1;-4.843316078E-1;-7.145357132E-1
7.254312443E0;-9.077275395E-1;9.149495363E-1;1.223705292E0
7.272351139E0;1.364855170E-1;2.667869329E-1;4.989051819E-2
7.290389652E0;-7.385311723E-1;-2.411668777E0;-4.372663498E-1
7.308427860E0;-1.413400412E0;1.591305614E0;1.694983482E0
7.326466190E0;-3.686965108E-1;2.995967865E0;-3.680376053E0
7.344494022E0;-7.489491701E-1;-2.108855724E0;2.476825714E0
7.362540165E0;-2.129846215E-1;-1.417109609E0;5.083397865E0
7.380585026E0;-2.309768796E-1;8.765662909E-1;3.184846878E0
7.398619084E0;-5.099564791E-2;1.941905260E0;3.891973495E-1
7.416659184E0;-7.846439481E-1;3.664193153E0;-8.580060959E0
7.434694034E0;-5.593312979E-1;1.579037428E0;-6.118288040E0
7.452734623E0;-3.598355651E-1;-4.486762524E0;2.657253265E0
7.470777958E0;-7.198787928E-1;7.375074625E-1;1.265755653E0
7.488812381E0;-7.494633198E-1;-4.022756577E0;-9.150743484E-1
7.506851017E0;-2.033859730E0;-8.671037555E-1;6.126899719E-1
7.524889591E0;-1.042003155E0;6.872069836E-1;-3.005098343E0
7.542927616E0;-2.296807766E0;-2.928692341E0;1.609945297E0
7.560966251E0;-2.000048161E0;-2.985043526E0;1.458522797E0
7.579002323E0;-1.257441401E0;1.127435327E0;-7.183790207E-1
7.597043338E0;-7.263211608E-1;-1.130158186E0;5.902900696E-1
7.615084171E0;-1.858524323E0;3.741017580E-1;-6.418256760E-1
7.633124637E0;-7.544497848E-1;1.031453609E0;1.091101646E0
7.651158817E0;-8.907978535E-1;3.877798319E-1;3.189587593E0
7.669192631E0;-8.803098202E-1;3.631484509E0;-4.355352402E0
7.687221744E0;-1.333036304E0;2.357415915E0;-5.617570877E-1
7.705277347E0;-1.392550826E0;-2.076476812E-1;7.864074707E-1
7.723312381E0;-1.080683112E0;-1.676102281E0;1.075891495E0
7.741351261E0;-1.783251643E0;-2.811736584E0;4.491478920E0
7.759389286E0;-1.438774824E0;4.955817223E0;-3.989669800E0
7.777427921E0;-1.464878321E0;-1.597025514E0;1.599614143E0
7.795466495E0;-2.291427612E0;-8.088123798E-2;9.350175858E-1
7.813505008E0;-1.987326026E0;-2.391851902E0;-4.971618652E-1
7.831540103E0;-9.529718161E-1;-1.946912050E0;3.063601494E0
7.849585026E0;-1.067126870E0;1.250764132E-1;-1.464371681E0
7.867620304E0;-1.806559563E0;8.804069757E-1;9.851522446E-1
7.885659061E0;-9.839111567E-1;1.257067084E0;6.675033569E-1
7.903701847E0;-1.126875043E0;2.693234444E0;7.469367981E-2
7.921736270E0;-1.583424330E0;1.979271054E0;-1.572828293E-1
7.939774051E0;-1.337758064E0;1.196793675E0;2.687077522E0
7.957813175E0;-1.691121697E0;1.858082175E0;-7.765274048E-1
7.975850712E0;-1.404419661E0;3.004788160E-1;-2.153275967E0
7.993889835E0;-1.534774184E0;-2.669165134E-1;1.257082939E0
8.011929630E0;-8.953998089E-1;-1.143207431E0;-1.081397057E0
8.029965702E0;-1.391512632E0;-1.402920842E0;1.902183533E0
8.048004825E0;-1.809960127E0;9.807050228E-2;-4.168405533E-1
8.066043156E0;-1.456135035E0;-1.448999643E0;5.185089111E-1
8.084082890E0;-5.907211304E-1;-1.320214272E-1;5.458831787E-3
8.102120853E0;-7.209976912E-1;-1.604955673E0;4.105118752E0
8.120159000E0;-1.660697460E-1;4.416787624E-2;-1.359562874E0
8.138185733E0;-1.567637682E0;3.107351065E-1;-6.197471619E-1
8.156236026E0;-1.390649199E0;2.655994892E-1;2.662490845E0
8.174275028E0;-1.522112012E0;2.156566381E0;-2.981297016E0
8.192313175E0;-2.137132883E0;-1.136011958E0;1.293987274E0
8.210351688E0;-2.326981306E0;-8.369688988E-1;6.813020706E-1
8.228390140E0;-2.338668346E0;-8.544911146E-1;5.186595917E-1
8.246429141E0;-1.198696494E0;-9.606075287E-2;2.417253494E0
8.264466923E0;-1.525205731E0;1.593268514E0;-1.187326431E0
8.282501896E0;-1.590525150E0;-3.335279226E-1;-1.351804733E-1
8.300542606E0;-4.467728138E-1;6.142687798E-2;1.259894371E0
8.318584415E0;-5.595988035E-1;-1.934799671E0;8.295822144E-1
8.336620792E0;-2.556583881E-1;-1.071197987E-1;2.933883667E-1
8.354655094E0;-6.864415407E-1;1.293408632E0;1.040969849E0
8.372702580E0;-8.098514080E-1;2.048957348E-1;-1.868894100E0
8.390737064E0;-1.170933723E0;-3.331381083E-1;3.934453964E0
8.408774112E0;-1.930676341E0;3.522801399E0;-8.878917694E-1
8.426819706E0;-1.764458299E0;2.835728168E0;-3.842491627E0
8.444852176E0;-1.998969078E0;-3.055744171E-1;3.606316566E0
8.462891117E0;-7.999507189E-1;1.954170942E0;-2.791784286E0
8.480929142E0;-1.409033060E0;-2.405427933E0;1.585416794E-1
8.498966495E0;-1.254860878E0;3.009864092E-1;3.650918961E0
8.516999638E0;-9.661710262E-1;-1.832396150E0;-2.082414627E0
8.535031071E0;-1.015839100E0;-1.561197639E0;4.502729416E0
8.553085513E0;-1.230289102E0;-6.513796449E-1;-7.282438278E-1
8.571121952E0;-1.635438204E0;-5.134074688E-1;-5.503120422E-1
8.589160343E0;-9.886077642E-1;8.416876793E-1;-2.445259094E-1
8.607199466E0;-1.437390924E0;-3.545809984E-1;2.161462784E0
8.625237186E0;-1.122140169E0;1.892811179E0;5.929365158E-1
8.643271854E0;-2.030932903E0;8.706521988E-2;-2.830027580E0
8.661314457E0;-5.985054970E-1;5.892014503E-2;3.377761841E0
8.679350590E0;-1.822703004E0;-3.186360598E-1;-2.351525784E0
8.697394108E0;-9.433531761E-1;-1.363946319E0;4.108494759E0
8.715430118E0;-1.582646966E0;1.149701476E0;-4.194211960E-1
8.733468387E0;-1.708416462E0;-2.879408598E0;-2.313905239E0
8.751495671E0;-2.242586136E0;-2.884364128E0;3.076920509E0
8.769545475E0;-5.228438377E-1;-1.291099072E0;-6.561489105E-1
8.787584415E0;-1.301992178E0;1.198817849E0;1.409885406E0
8.805622745E0;-5.823122263E-1;2.262975693E0;-3.435192108E-1
8.823656681E0;-8.958314657E-1;-2.224931717E-1;1.271582603E0
8.841699650E0;-5.733083487E-1;2.696481705E0;-6.848068237E-1
8.859738468E0;-8.132280111E-1;-2.629699707E-1;1.847629547E0
8.877777042E0;-1.483517766E0;3.897286654E-1;1.108041763E0
8.895815555E0;-1.644681811E0;-1.463210225E0;1.664343834E0
8.913853702E0;-1.454433203E0;4.259850979E-1;8.396329880E-1
8.931892460E0;-1.552446842E0;1.042852283E0;-2.927577496E0
8.949931156E0;-2.356792927E0;1.664252758E0;1.700897217E-1
8.967970157E0;-1.379569769E0;-1.386092901E-1;1.097087860E-1
8.986008182E0;-1.114924788E0;-3.396988153E0;-3.626203537E-1
9.004043644E0;-1.921795130E0;3.175789118E-1;4.440509796E0
9.022088383E0;-2.499267817E0;-1.397947311E0;-3.833915710E0
9.040124149E0;-1.517176628E0;8.055988550E-1;2.424911499E0
9.058157963E0;-1.704447508E0;-5.178960562E-1;-1.117218971E0
9.076200809E0;-1.927156925E0;-4.482960701E-1;7.860202789E-1
9.094239444E0;-1.988377690E0;-1.373138547E0;2.125350952E0
9.112278385E0;-1.728021026E0;-7.883425355E-1;6.235237122E-1
9.130316715E0;-2.247101784E0;8.276077509E-1;-3.811655045E-1
9.148355106E0;-1.771823406E0;-4.303429127E-1;-5.840024948E-1
9.166394046E0;-1.006366730E0;6.968497038E-1;3.202939987E0
9.184432620E0;-1.431295991E0;1.782890201E0;-4.130148411E0
9.202470585E0;-9.492516518E-1;-1.851508260E0;1.534188271E0
9.220497501E0;-1.604888797E0;-5.917409062E-1;1.526975632E0
9.238545170E0;-6.615343094E-1;-2.632867813E0;1.225339890E0
9.256589481E0;-2.032907009E-1;5.541574955E-2;1.447569847E0
9.274620426E0;-1.060759783E0;1.781901717E0;-1.778636456E0
9.292667973E0;-6.478250027E-1;-2.478524685E0;-1.102381706E0
9.310702152E0;-1.446042180E0;-1.221724749E-1;2.708633423E0
9.328740299E0;-1.644169569E0;2.474184036E0;-1.942327499E0
9.346780032E0;-1.579876184E0;1.199935079E0;-1.194803238E0
9.364813175E0;-1.988865256E0;5.331035852E-1;3.027783394E0
9.382852238E0;-1.304391980E0;6.993154287E-1;-8.303451538E-2
9.400899906E0;-3.571596146E-1;2.042372704E0;6.260023117E-1
9.418933292E0;-1.557227731E0;8.206903934E-2;1.980967522E0
9.436972416E0;-1.998772621E-1;-3.399915695E-1;-1.535267353E0
9.455010685E0;-5.546458960E-1;-1.753257513E-1;3.110790253E-2
9.473049747E0;-5.315068960E-1;1.912456751E-1;-1.148846626E0
9.491087711E0;-7.077751160E-1;-2.621640682E0;7.915840149E-1
9.509126468E0;-8.792124987E-1;4.698655605E-1;1.578083038E0
9.527165470E0;-7.496980429E-1;8.261511326E-1;-8.770723343E-1
9.545204105E0;-1.203295112E0;4.319334030E-2;4.650929451E0
9.563238895E0;-1.623039722E0;2.723971367E0;-3.064744473E0
9.581277958E0;-1.447229981E0;1.253468633E0;-1.438349724E0
9.599310795E0;-1.651270986E0;-1.218082905E-1;2.454568863E0
9.617353520E0;-1.029007792E0;-2.410235405E-1;-2.116497040E0
9.635401066E0;-1.529167652E0;-1.693015814E0;1.678587914E0
9.653430545E0;-8.864935637E-1;-1.268085241E0;2.627989769E0
9.671474063E0;-9.155730009E-1;-1.163621187E0;-5.548095703E-2
9.689512638E0;-1.786924362E0;-1.800498962E-1;-7.323656082E-1
9.707550724E0;-1.766718507E0;-1.775722742E0;1.539161682E0
9.725589542E0;-2.112535954E0;-9.536814690E-2;1.675453186E0
9.743628177E0;-1.678449154E0;-2.049312592E0;3.541812897E-1
9.761667057E0;-1.767047405E0;-1.699763536E-1;3.101339340E-1
9.779705326E0;-2.032727003E0;-1.735376954E0;-2.264068127E0
9.797744144E0;-1.385719061E0;-1.177937508E0;3.147516251E0
9.815782352E0;-9.785413742E-1;1.587567329E0;7.039279938E-1
9.833810306E0;-1.025048018E0;6.374073029E-1;-2.193519592E0
9.851856327E0;-5.186275244E-1;2.047578573E0;-2.033300400E-1
9.869901371E0;-4.807403088E-1;2.234154940E-1;1.840979576E0
9.887934025E0;-7.752155066E-1;-4.473280907E-2;5.681791306E-1
9.905978702E0;-4.493556023E-1;-3.265588284E-1;-1.786441803E-1
9.924013920E0;-1.446228981E0;-1.017868519E0;4.719343185E-1
9.942052677E0;-1.081413746E0;8.267647028E-1;7.609052658E-1
9.960091251E0;-1.802817106E0;-1.584374905E-2;-4.526414871E-1
9.978126895E0;-1.630319834E0;-1.179386020E0;1.896522522E0
9.996168339E0;-1.692768812E0;-9.106338024E-1;4.742002487E-1
1.001420722E1;-1.013220310E0;7.039589882E-1;4.540615082E-1
1.003224585E1;-1.468146920E0;8.739451170E-1;-1.697141171E0
1.005028485E1;-1.449075103E0;-1.015923381E0;5.793991089E-1
1.006831073E1;-5.575429201E-1;7.919303179E-1;4.190177917E-1
1.008636152E1;-1.290242314E0;1.071247458E0;-6.959276199E-1
1.010440039E1;-1.779353619E-1;-1.753221989E0;4.957307816E0
1.012243891E1;-1.071872592E0;2.494727612E0;-3.273496628E-1
1.014047693E1;-9.939261675E-1;-4.847645760E-2;-1.706843853E0
1.015851581E1;-1.272016525E0;-1.248053312E-1;3.363304138E-1
1.017655445E1;-1.036038995E0;-7.897208333E-1;1.016601562E0
1.019459198E1;-1.041359663E0;-3.924853802E-1;-9.413871765E-1
1.021262146E1;-9.519888163E-1;-2.260425568E0;-4.018411636E-1
1.023066810E1;-7.679705620E-1;-1.621836782E0;3.067860603E0
1.024871039E1;-3.928956985E-1;-1.466782808E0;2.555917740E0
1.026674866E1;4.322600365E-2;-4.983029366E-1;2.114110947E0
1.028478601E1;-1.496503711E0;2.908843994E0;-6.536572933E0
1.030281275E1;-5.647425652E-1;-1.518667936E0;-9.398412704E-1
1.032086060E1;-1.614256024E0;3.464903831E-1;4.973626137E0
1.033890516E1;-7.671194077E-1;-1.042282820E0;-1.761407852E-1
1.035694037E1;-2.292606831E0;2.291574001E0;1.087937355E0
1.037497919E1;-2.326230049E0;6.602060795E-1;-4.453646183E0
1.039301807E1;-1.133022428E0;-1.778346658E0;1.375068665E0
1.041105677E1;-2.226951838E0;1.494456530E0;4.860392570E0
1.042909497E1;-1.174850464E0;-3.651891947E-1;-8.323612213E-1
1.044712714E1;-1.645271420E0;1.654210091E-1;1.612812042E0
1.046517279E1;-8.529639244E-1;-2.699966431E-1;-5.752151012E0
1.048320752E1;-1.360759258E0;-2.735161781E-2;1.038808823E-1
1.050124921E1;-6.359292269E-1;-2.454218626E0;5.732229233E0
1.051928803E1;-6.966847181E-1;1.013421655E0;7.098798752E-1
1.053732416E1;-1.262920618E0;3.888883591E-1;4.782859802E0
1.055536622E1;-8.448309898E-1;5.704125404E0;-7.057672024E0
1.057340320E1;-1.324883461E0;9.877792597E-1;-7.879057407E0
1.059144263E1;-3.352899551E-1;-3.763060093E0;3.255237579E0
1.060948261E1;-1.635377169E0;-1.675966740E0;4.939509392E0
1.062751905E1;-1.281857491E-1;1.461724877E0;-3.415268898E0
1.064555848E1;-3.888741732E-1;-5.083867073E0;8.557325363E0
1.066359742E1;-1.503054857E0;3.108678818E0;-1.478670120E0
1.068162452E1;-1.707161784E0;-3.088242769E0;-4.135329247E0
1.069967279E1;-2.945541143E0;-6.231555939E-1;9.096139908E0
1.071771472E1;-1.934728384E0;-7.940713167E-1;-2.760948658E0
1.073575141E1;-2.923163176E0;-1.891358733E0;4.951324463E-1
1.075379053E1;-1.854634523E0;-1.946934819E0;5.760517120E-1
1.077182923E1;-1.480440855E0;-1.538290262E0;-2.813024521E0
1.078986768E1;-1.400325894E0;8.641846180E-1;2.947560310E0
1.080790619E1;-1.394219160E0;7.436897755E-1;-3.561668396E-1
1.082594483E1;-2.648298740E-1;2.095784903E0;-2.599342346E0
1.084398102E1;-8.028204441E-1;-2.816906452E0;5.494079590E0
1.086201007E1;-9.193902016E-1;-2.023571014E0;1.845200539E0
1.088006372E1;-5.209335089E-1;-3.512231112E-1;3.078105927E0
1.089810584E1;-1.743427515E0;5.022274971E0;-9.645948410E-1
1.091613208E1;-1.532348275E0;3.287388086E0;-4.552659988E0
1.093417524E1;-2.872483730E0;9.127925634E-1;1.032621384E0
1.095221656E1;-2.019981384E0;-8.310370445E-1;1.358469009E0
1.097025385E1;-1.126325011E0;-8.837556839E-2;-5.157232285E-1
1.098829297E1;-1.562891722E0;-2.790787697E0;2.247137070E0
1.100633094E1;-2.043667555E0;-2.361821175E0;-2.883710861E-1
1.102437012E1;-1.342964292E0;-2.436467648E0;5.064731598E0
1.104240863E1;-9.917707443E-1;1.125899076E0;-1.093245506E0
1.106043872E1;-1.018961787E0;-8.144101501E-1;-2.394722462E0
1.107848572E1;-1.921894550E0;3.818344831E0;-1.456584930E0
1.109652442E1;-1.680361271E0;-3.813695908E-2;-3.410043716E0
1.111456018E1;-2.642589569E0;6.358245611E-1;6.781301498E-1
1.113260523E1;-2.414724350E0;-2.026864767E0;3.996448517E0
1.115062940E1;-2.015861273E0;2.372044086E0;-1.280303001E0
1.116867658E1;-1.743685842E0;-3.054757833E0;2.987415314E0
1.118670716E1;-1.771037579E0;-7.893978953E-1;-4.660367966E-1
1.120474585E1;-4.400947094E-1;-9.374640465E0;1.270597267E1
1.122278382E1;-1.851362586E0;6.537631035E0;-3.887252808E-1
1.124082233E1;-2.292968512E0;-5.974761248E-1;-7.127676010E0
1.125886115E1;-3.643219948E0;2.409174204E0;5.636024475E0
1.127689984E1;-1.949642658E0;8.310528994E-1;5.943428040E0
1.129494855E1;-2.294715881E0;4.176617146E0;-2.360182285E0
1.131297669E1;-2.792588472E0;1.385018587E0;-1.236479759E0
1.133101600E1;-3.427583694E0;-3.529955387E0;2.145634651E0
1.134905469E1;-3.761973858E0;-2.060444832E0;5.929295540E0
1.136710724E1;-3.507923841E0;-2.289528131E0;-6.177389145E0
1.138513160E1;-3.922291279E0;-4.717113495E0;1.362399769E1
1.140317841E1;-4.801713467E0;2.437137127E0;1.534264565E0
1.142122089E1;-1.060145140E0;4.004916191E0;-1.131195164E1
1.143924738E1;-1.707793951E0;-3.287969112E0;4.697142601E0
1.145729773E1;-2.570361853E0;5.518398285E-1;9.478287697E0
1.147533661E1;-9.350597858E-1;4.623579979E0;-5.964236259E0
1.149337555E1;-1.632353663E0;3.042198420E0;-3.692092896E-1
1.151141346E1;-2.188297033E0;-4.443424225E0;1.104441643E1
1.152944312E1;-2.813854218E-1;2.658053398E0;-4.082994938E0
1.154748914E1;2.335195541E0;2.569602013E0;-9.094965935E0
1.156553260E1;3.355742693E0;-1.089012527E1;1.316075230E1
1.158356824E1;1.658309937E0;-2.687227011E0;5.848112106E-1
1.160160743E1;2.136326790E0;-1.397014260E0;-1.539472961E1
1.161964594E1;2.997931719E0;-5.002917290E0;6.242547989E0
1.163768512E1;-2.279408216E0;-1.223475552E1;1.346813869E1
1.165572303E1;-2.085656643E0;-6.456985474E0;1.466876030E0
1.167376221E1;-1.453630686E0;1.890426874E0;1.221158028E0
1.169179999E1;-1.468935251E0;-7.430385113E0;-6.474807739E0
1.170984064E1;4.816205502E-1;-6.188145638E0;5.575605392E0
1.172787781E1;-2.492068768E0;-4.408006668E-1;2.738624573E0
1.174591700E1;-2.630262375E0;2.254558802E0;2.588071823E-1
1.176394385E1;-3.598423004E-1;1.707838058E0;-1.756072998E0
1.178199311E1;3.726084709E0;1.539721966E0;-5.553353310E0
1.180003388E1;2.928472996E0;2.594684362E0;8.619513512E0
1.181807154E1;1.761165857E0;8.257134438E0;-1.270763874E0
1.183611036E1;-1.314573050E0;4.214681625E0;-4.460824013E0
1.185414936E1;1.081904411E0;-3.861417770E-1;3.127040863E0
1.187218744E1;1.729977846E0;9.055502415E-1;2.231403351E0
1.189022663E1;2.038927078E0;2.051738930E1;-9.405880928E0
1.190826532E1;-1.532280445E-1;-4.641144753E0;-1.217332363E0
1.192630445E1;3.263067484E0;-5.495966673E-1;1.221311855E1
1.194434247E1;1.325082779E0;1.449032497E1;-2.695631981E0
1.196238135E1;-1.324770451E0;8.175250053E0;-1.124929905E1
1.198042011E1;-3.778832674E0;5.053412914E0;1.017405415E1
1.199845905E1;-6.701875687E0;7.108314037E-1;-3.900745392E0
1.201649366E1;-3.260637760E0;-3.320438385E0;3.760039330E0
1.203453876E1;-5.717050552E0;3.482634783E0;1.099966049E0
1.205257605E1;-7.311065674E0;-7.228214741E0;-1.480802155E1
1.207061408E1;-2.227621317E0;-1.174997139E1;1.524697971E1
1.208865106E1;-4.204179764E0;-3.885896683E0;1.084132099E1
1.210669208E1;-6.049357414E0;-8.002582550E0;-9.882840157E0
1.212472998E1;-5.636435986E0;-3.656394958E0;-4.124397278E0
1.214277027E1;-5.632558823E0;-1.158873367E1;2.484881401E0
1.216080701E1;-2.877784967E0;-5.682976723E0;-9.173011780E-1
1.217884595E1;-1.832668662E0;-3.086167336E0;2.819782257E0
1.219688483E1;-2.288001537E0;1.053674316E1;-5.830408096E0
1.221491205E1;-4.077625275E0;-1.368902683E1;-9.616178513E0
1.223294629E1;2.064382553E0;1.395100832E0;2.309826279E1
1.225099964E1;-1.582145691E-2;5.888096809E0;-3.560767651E0
1.226903992E1;2.933075428E0;2.087902069E0;-1.863600731E1
1.228708002E1;-1.351942539E0;-2.006618023E0;1.547304249E1
1.230511689E1;7.066552639E-1;1.041388893E1;4.320381165E0
1.232315284E1;-4.147382975E-1;4.703335762E-1;-9.239363670E0
1.234119483E1;3.908090591E-1;9.004957676E-1;6.618933678E0
1.235922242E1;-4.121961117E0;1.259430218E1;2.282925606E0
1.237727118E1;-9.567016363E-1;9.034101486E0;-5.650794983E0
1.239530799E1;-6.407641172E-1;4.372422218E0;1.064930916E1
1.241335279E1;7.435927391E-1;-3.639507294E-2;1.969432831E-2
1.243138880E1;7.431511879E-1;2.073002577E0;-8.146109581E0
1.244942694E1;1.057740450E0;-2.218141079E0;2.081174850E-1
1.246745411E1;2.109756708E0;-4.614479065E0;-7.376956940E-1
1.248550464E1;1.965011835E0;-4.239219189E0;7.355251312E0
1.250354364E1;4.003243446E0;-3.344134808E0;4.287594795E0
1.252158179E1;1.854513407E0;-2.253165054E1;1.065231037E1
1.253962110E1;1.871687651E0;-6.229522705E0;-7.099411488E0
1.255765992E1;3.605550766E0;-8.297907829E0;1.820399284E0
1.257569849E1;-1.608700991E0;-3.762413025E0;3.022317886E-1
1.259373700E1;1.714181900E-1;-8.286636353E0;-4.897725105E0
1.261177192E1;-1.012153268E0;-4.369974136E0;1.413421631E-1
1.262981550E1;-3.620841503E-1;-1.933221579E0;4.677111626E0
1.264785309E1;5.068411827E-1;7.057726383E0;-7.280819416E0
1.266589197E1;-3.115999460E0;-3.849124908E-1;-6.057765007E0
1.268393116E1;-2.421100855E0;1.159139633E0;5.095929146E0
1.270196973E1;-4.789947510E0;7.450208664E-1;-3.879902840E0
1.272000879E1;-1.711185217E0;9.549921036E0;-3.182555199E0
1.273804731E1;-3.314460278E0;-3.204079151E0;1.210742569E1
1.275608594E1;4.103920460E-1;1.161342335E1;1.932957649E0
1.277412470E1;-7.180393934E-1;5.200058937E0;-1.360288620E0
1.279216413E1;1.803774834E0;2.822708845E0;9.025824547E0
1.281020215E1;-4.475047588E0;1.503112602E1;-4.615935802E0
1.282824115E1;-1.471837759E0;-3.607229710E0;-7.252960205E-1
1.284627246E1;-1.139733219E1;1.151763439E1;-9.795441628E0
1.286431812E1;-5.751697540E0;7.507090569E-1;-6.140161514E0
1.288235791E1;-5.661759377E0;1.027520657E0;1.274087620E1
1.290039624E1;-8.737130165E0;-6.559207916E0;1.667750931E1
1.291843500E1;-3.419122458E0;-1.072500610E1;7.793628693E0
1.293647419E1;-8.823884010E0;-4.376108170E0;-3.005466461E0
1.295451355E1;-8.840744019E0;-9.572051048E0;-1.023653126E1
1.297254981E1;-5.109951019E0;-3.087145329E0;1.217978668E1
1.299058936E1;-4.532060146E0;-5.408948898E0;-3.253500462E0
1.300862903E1;-2.255988121E0;-2.876250744E0;-5.324525833E-1
1.302666810E1;-3.975352049E0;-1.592189312E0;3.478394508E0
1.304470655E1;-4.423761368E-1;-5.417796135E0;4.690054893E0
1.306274537E1;-2.648676395E0;-4.605875015E-1;-8.784632683E0
1.308076954E1;1.931245327E-1;1.896646261E0;-1.475454807E0
1.309881928E1;-1.951125383E0;1.110005379E1;4.751842499E0
1.311686451E1;-4.348695755E0;-2.572363281E1;1.174136162E0
1.313490162E1;2.696849108E0;2.570734406E1;5.997877121E-1
1.315293946E1;-6.488403320E0;1.324616432E0;-3.417492294E1
1.317097773E1;3.933961391E-1;-1.540128899E1;3.327819443E1
1.318901660E1;4.659916878E0;2.325326157E1;2.412801170E1
1.320705542E1;-3.008768559E0;-2.482693195E-1;-3.823919678E1
1.322508380E1;2.286532879E0;5.318386555E-1;2.907824135E1
1.324312879E1;2.801849365E0;1.076357746E1;1.350991154E1
1.326117194E1;1.107297421E0;-2.856212139E0;-1.229273605E1
1.327919898E1;4.623283863E0;-2.814677954E0;1.564954853E1
1.329724927E1;1.478496313E0;-6.885327339E0;-5.136699677E0
1.331528052E1;3.742308855E0;-8.674253464E0;-5.308781624E0
1.333332685E1;6.809973717E-2;-1.887163639E0;5.647160530E0
1.335136573E1;4.068474770E0;-1.178383064E1;3.868045807E0
1.336940485E1;1.080126524E0;-9.252519608E0;2.207695961E0
1.338744281E1;5.561563969E-1;-4.730124474E0;-1.700573444E0
1.340548218E1;4.154652596E0;-1.174347878E1;-5.377249718E0
1.342352076E1;1.403372765E0;-4.212148190E-1;-3.442049503E0
1.344156012E1;1.446858883E0;-1.813367486E0;3.702268600E-1
1.345958686E1;-3.556661844E0;-2.736344099E0;9.015645027E0
1.347763422E1;2.097907066E-1;-1.730582952E0;-1.799289227E0
1.349567902E1;1.644688606E0;4.257132530E0;-3.236121655E0
1.351371595E1;-3.166901112E0;6.384281158E0;-8.699563980E0
1.353175269E1;-1.970251322E0;-6.328322411E0;3.703613281E0
1.354978083E1;-1.916788936E0;1.628560829E1;2.324582100E0
1.356783130E1;-3.533030033E0;-3.956171513E0;-9.550847054E0
1.358587043E1;4.054381847E-1;9.468343735E0;-1.104974747E-1
1.360390863E1;-1.529471040E0;1.303198576E0;4.292008400E0
1.362194751E1;-2.089904547E-1;7.911398888E0;-1.101776600E1
1.363998658E1;4.736007452E-1;7.004383087E0;3.908939362E-1
1.365802515E1;1.437295675E-1;1.765871048E-2;6.755370140E0
1.367606397E1;-1.472398162E0;1.684898186E1;-8.182408333E0
1.369408789E1;-3.929367065E0;-7.305784225E-1;-8.007577896E0
1.371214209E1;-3.241344452E0;-9.433889389E-2;1.139616966E1
1.373018067E1;-3.057076454E0;-1.287920237E0;4.121791840E0
1.374821869E1;-5.248183250E0;5.376633167E0;-9.101725578E0
1.376625806E1;-3.201845407E0;-4.196228981E0;9.415558815E0
1.378429688E1;-2.148639441E0;-1.842101097E1;9.904490471E0
1.380233600E1;1.203193367E-1;-1.457093716E0;-1.805592537E0
1.382037397E1;-5.933666706E0;-7.965673447E0;1.020946503E0
1.383841333E1;-4.599225044E0;-6.262694359E0;1.027206421E0
1.385645020E1;-2.510885239E0;-8.158355713E0;-5.207581520E0
1.387448932E1;-1.555208206E0;-6.205432892E0;9.979647636E0
1.389253315E1;-1.798499748E-2;-4.274502277E0;-1.571804523E0
1.391056861E1;-2.903148413E0;-2.733036757E0;-4.626064777E0
1.392860047E1;-2.692380428E0;-1.939690351E0;-1.114879608E0
1.394664484E1;-2.958326340E-1;4.575005531E0;-2.122997761E0
1.396468482E1;3.241786659E-1;-2.821279287E0;-6.819830894E0
1.398272394E1;2.601093292E0;-2.407552242E0;1.016037750E1
1.400076239E1;-1.924663782E0;1.742223167E1;3.002237320E0
1.401879236E1;1.611763477E0;-9.578783989E0;-1.218339539E1
1.403682575E1;4.983392358E-1;1.028700829E1;1.113728046E1
1.405487561E1;-8.079913855E-1;3.802275896E0;-1.026163960E1
1.407291767E1;9.581375122E-2;6.697187424E-1;-9.203405380E0
1.409095642E1;-8.217684627E-1;1.499226189E1;2.683233261E0
1.410899549E1;7.600286007E-1;-2.089867353E0;-8.369385719E0
1.412703443E1;1.880247831E0;1.105596733E1;-4.074770451E0
1.414507331E1;2.578658581E0;3.080669641E0;-4.149923801E0
1.416309473E1;6.548655033E0;4.157331467E0;-5.050920486E0
1.418114765E1;7.207551003E0;3.274017572E0;-3.643751144E-1
1.419918049E1;5.780765533E0;-4.453518867E0;-1.624065399E0
1.421722797E1;5.069257736E0;-1.084060001E1;1.826167679E1
1.423526764E1;3.371051788E0;-5.207255363E0;4.743490219E-1
1.425330902E1;5.078357697E0;-4.209309578E0;-7.242212296E-1
1.427133283E1;7.135183811E0;-8.141975403E0;5.611696243E0
1.428938355E1;1.285541773E0;-1.053950310E1;-5.856180191E-1
1.430742237E1;4.413693547E-1;-9.814184189E0;7.363241196E0
1.432546253E1;1.491993785E0;-3.247781992E0;4.106025696E-1
1.434349891E1;-1.472423911E0;-1.093858624E1;2.897739410E-2
1.436153876E1;1.119034648E0;-2.082560062E-1;3.361059189E0
1.437957795E1;-3.547739983E-1;-1.029855490E0;-2.488720417E0
1.439761762E1;-2.435404539E0;1.428215265E0;-4.157262325E0
1.441565223E1;-2.655884504E0;-1.837002754E0;5.308845520E0
1.443369397E1;-2.454151869E0;9.618474960E0;-5.052882195E0
1.445173609E1;-2.327424765E0;-2.588694811E0;7.906627655E-1
1.446977149E1;-1.454322577E0;4.660923004E0;-4.637019634E0
1.448781055E1;-4.082680345E-1;4.374056816E0;-5.874881744E0
1.450584937E1;-5.679054260E-1;2.057791233E0;3.253087997E-1
1.452388874E1;1.471006155E0;1.407738781E1;-2.746782780E0
1.454193158E1;-6.445563436E-1;7.998464108E0;-5.166837692E0
1.455996601E1;8.529903293E-1;-7.260730267E-1;7.175531387E0
1.457800470E1;-2.018754959E0;7.535207748E0;1.409665108E0
1.459604377E1;-3.628746748E0;5.824438095E0;-1.168274117E1
1.461408222E1;-6.665941238E0;5.669711113E0;-7.435752869E0
1.463210779E1;-5.433598995E0;-3.544705391E0;8.604214668E0
1.465014954E1;-6.370519638E0;1.854732275E0;2.970559120E0
1.466819910E1;-6.910232067E0;-3.810579777E-1;-8.111619949E-1
1.468623725E1;-8.142915726E0;-7.477753639E0;8.488750458E-2
1.470427631E1;-5.411109924E0;-6.350812912E0;4.310974121E0
1.472231519E1;-4.381123543E0;-1.938021779E0;-6.039935112E0
1.474035431E1;-2.737781525E0;-1.331432056E1;6.085563660E0
1.475838111E1;2.431754112E0;-8.306335449E0;1.378925896E1
1.477642762E1;-8.343057036E-1;-5.819293976E0;-8.320377350E0
1.479446186E1;1.404159665E-1;-6.666857719E0;4.612689018E0
1.481249646E1;-5.877963305E-1;-3.073461056E0;2.283373833E0
1.483053650E1;1.241929412E0;-2.934892178E-1;-4.706732750E0
1.484857575E1;1.495896935E0;8.183465004E-1;6.248065948E0
1.486661451E1;1.081594110E0;1.600452662E0;-2.346052647E0
1.488465393E1;8.369250298E-1;2.846832991E0;-4.334341049E0
1.490269226E1;-5.762825608E-1;-1.626323223E0;1.232350254E1
1.492073090E1;1.532447338E-2;1.886915684E0;-1.594900131E0
1.493877039E1;-2.026515007E-1;7.148861885E0;-3.393461704E0
1.495680866E1;-2.101372480E0;3.527819157E0;4.180704117E0
1.497486103E1;9.500262737E-1;4.985239506E0;-3.146978855E0
1.499289777E1;-3.058545589E-1;3.014977694E0;-4.821605206E0
1.501093451E1;1.185435057E0;8.593551636E0;4.334962845E0
1.502897278E1;1.906875372E0;2.563528061E0;-4.210771561E0
1.504701654E1;2.271612167E0;7.804759979E0;6.215090752E0
1.506505268E1;4.887576103E0;1.014524841E1;8.262681961E-1
1.508309137E1;7.021943092E0;-9.072120190E-1;-1.174029827E1
1.510113080E1;6.655060291E0;3.944466829E0;-1.359148026E-1
1.511915216E1;5.708959579E0;-1.112231064E1;7.783333778E0
1.513720771E1;3.915482521E0;-9.302592278E0;7.728891373E0
1.515524683E1;3.267020941E0;-3.530105591E0;-4.388136864E0
1.517328150E1;4.143015385E0;-9.150888443E0;-1.057492256E0
1.519132453E1;4.081756115E0;-5.584084511E0;6.530869484E0
1.520936328E1;3.482410908E-1;-2.118355274E0;-6.173380852E0
1.522740210E1;3.128122091E-1;-1.428989983E1;3.116271019E0
1.524543329E1;-1.269871712E0;-1.805715561E-1;7.483444214E-1
1.526347535E1;7.970749736E-1;-4.304918289E0;-6.675397873E0
1.528152271E1;-2.038720369E0;-2.443989515E0;5.167494774E0
1.529954743E1;-6.926879883E-1;-8.591256142E0;8.825404167E0
1.531759668E1;1.535388947E0;6.082703590E0;-3.250513077E-1
1.533563477E1;-2.110696077E0;3.321583033E0;-8.709457397E0
1.535366645E1;-1.257063150E0;-1.044833660E0;-3.450102329E0
1.537171558E1;-2.212201953E-1;1.601069927E0;8.175162315E0
1.538975373E1;-1.793675780E0;-6.032622337E0;1.895234108E0
1.540778943E1;6.237977743E-2;5.185016632E0;2.790107727E0
1.542581433E1;-6.082211733E-1;1.350267172E0;-8.158275604E0
1.544386792E1;-6.612508893E-1;8.391426086E0;-8.219851494E0
1.546190699E1;8.441168666E-1;-2.754628420E0;1.145513248E1
1.547994141E1;3.208509088E-2;4.818276405E0;-2.393054962E-1
1.549798413E1;-2.371544838E0;1.185767937E1;-1.145283318E1
1.551602314E1;-3.557606220E0;-9.131343365E-1;-8.317403793E0
1.553406232E1;-3.525354862E0;-2.068533897E0;1.126269913E1
1.555210028E1;-4.351507664E0;4.050023556E0;-9.682188034E-1
1.557013971E1;-5.789134979E0;-1.275310278E0;-8.644880295E0
1.558817713E1;-5.656463623E0;5.905365944E-2;8.574707031E0
1.560621888E1;-5.071881771E0;-1.454665780E0;-3.772363663E-1
1.562425562E1;-1.822374582E0;-1.352556038E1;1.285400677E1
1.564229187E1;-2.268268347E0;-8.954089165E0;1.838891029E0
1.566033674E1;-7.637035251E-1;-1.159846306E0;-1.042513371E1
1.567837281E1;-5.232676983E0;5.334720612E-1;-5.585303307E0
1.569641089E1;-5.355764389E0;-1.635328484E1;1.060447979E1
1.571444403E1;2.130699396E0;6.292312145E-1;-3.008211136E0
1.573248645E1;-1.961292624E0;-1.171590519E1;-6.597813129E0
1.575053022E1;-7.410815358E-1;7.048811913E0;4.605531693E0
1.576856641E1;-5.943794250E-1;-7.008090973E0;3.691421509E0
1.578660547E1;-8.808166981E-1;3.853369236E0;-3.317663193E0
1.580464429E1;2.833659410E0;1.821996212E0;-5.847751617E0
1.582268311E1;7.625874281E-1;1.930184603E0;-9.651429176E0
1.584072144E1;1.298570633E0;3.532292604E0;6.432113647E0
1.585875928E1;8.179327846E-1;1.429852009E0;4.850213051E0
1.587679883E1;3.090125322E-1;6.777710915E0;-3.728278637E0
1.589483979E1;1.629710436E0;7.314291000E-1;-3.704840660E0
1.591287671E1;-1.770939231E-1;2.597243786E0;7.376318932E0
1.593091571E1;-1.093739390E0;9.049578667E0;-6.834220886E0
1.594894275E1;3.424167633E0;5.951908588E0;-6.783981323E-1
1.596699360E1;-1.196040273E0;2.116195917E0;9.160004616E0
1.598503193E1;5.483177662E0;-4.421861172E-1;6.681103706E0
1.600307105E1;3.928603411E0;1.829028130E-2;1.032649994E0
1.602110962E1;3.404981613E0;-1.885617733E0;8.135146141E0
1.603915430E1;6.714879036E0;4.125887394E0;-4.754638672E-2
1.605718683E1;7.490052223E0;8.957314491E-2;-8.729768753E0
1.607522608E1;6.451683044E0;-5.288825989E0;7.908109665E0
1.609326111E1;6.775284290E0;-8.234776497E0;4.795722961E-1
1.611130396E1;3.285579443E0;-5.703194618E0;-1.761970520E-1
1.612934235E1;3.499286175E0;-5.423154831E0;3.024039268E0
1.614738111E1;4.849060059E0;-3.535631180E0;1.594598770E0
1.616541986E1;2.579814792E-1;-7.087367058E0;5.007018089E0
1.618344831E1;2.094683170E0;-8.408163071E0;8.304405212E-1
1.620149726E1;6.401773095E-1;-9.819347858E-1;2.124801636E0
1.621953638E1;-1.349471807E0;-1.566136241E0;-1.309000492E0
1.623757502E1;-1.082895160E0;-4.713723183E0;-7.039539814E0
1.625561371E1;8.601739407E-1;3.571766853E0;-1.055094719E0
1.627365235E1;-2.292402983E0;2.332162857E-2;8.610085487E0
1.629169135E1;-3.722548783E-1;-2.276102543E0;-2.982470512E0
1.630973023E1;-1.508938789E0;7.046412945E0;-7.414306641E0
1.632777668E1;-3.494912863E0;2.983312607E-1;5.884533882E0
1.634580561E1;-1.000533104E0;-5.764270306E0;7.887896538E0
1.636384839E1;-6.852698326E-1;2.748187304E0;6.843767166E-1
1.638188526E1;-2.767428637E0;2.955131769E0;-8.464936256E0
1.639992432E1;5.608923435E-1;2.657814503E0;8.250645638E0
1.641796259E1;-2.228208780E0;6.421239376E0;-1.984977245E0
1.643599921E1;5.533334017E-1;-2.410634518E0;-2.949794769E0
1.645404297E1;-3.708986342E-1;6.429896355E0;4.334596634E0
1.647207941E1;-2.288306236E0;6.231743813E0;-6.139416695E0
1.649011469E1;-5.781532288E0;5.760601521E0;-1.124985981E1
1.650815943E1;-4.076716900E0;-4.888026237E0;9.598795891E0
1.652619556E1;-2.241352558E0;5.006274223E0;-2.684748173E0
1.654423468E1;-4.135100365E0;-4.347133636E-2;-7.719484329E0
1.656226062E1;-4.908619881E0;-1.127426529E1;4.475296021E0
1.658031104E1;-2.999948263E0;-1.946256876E0;8.498273849E0
1.659835157E1;-2.066649914E0;-4.586595058E0;-7.696080208E0
1.661638947E1;-2.967220783E0;-1.057287979E1;3.984573364E0
1.663442524E1;3.708533645E-1;-8.864261627E0;1.360071754E1
1.665246967E1;-1.138630867E0;4.547101021E0;-3.712148666E-1
1.667050562E1;-1.840500355E0;-1.492736721E1;-2.012642860E0
1.668854474E1;2.797379732E0;-7.689153194E0;8.372793198E0
1.670658295E1;1.057617188E0;1.647072792E0;-9.942617416E-1
1.672462177E1;1.090594530E0;-6.531930923E0;-6.662041664E0
1.674266065E1;1.490241289E0;-2.533544540E0;4.505413055E0
1.676069977E1;-1.502953053E0;1.587659359E0;-9.730777740E-1
1.677873682E1;9.783910513E-1;3.063898563E0;-2.708083153E0
1.679677753E1;-5.784665048E-2;-4.344985008E0;5.570074081E0
1.681481244E1;1.475025117E-1;8.032856941E0;-5.311189651E0
1.683285773E1;-9.688529968E-1;1.247130632E0;-1.130857944E1
1.685089270E1;3.216351032E0;1.322712421E0;7.265692711E0
1.686893189E1;1.534951925E-1;6.153390884E0;2.969103813E0
1.688697071E1;4.994357586E0;-5.248049736E0;-3.219831467E0
1.690500952E1;-2.963858843E-2;8.837301254E0;1.353544807E1
1.692304786E1;-2.292257845E-1;4.970664024E0;-1.494752502E1
1.694108667E1;3.990796328E0;1.654504776E0;-5.248529911E0
1.695911506E1;-1.628134251E0;1.649311781E0;1.345627785E1
1.697716809E1;1.788079977E0;9.526336670E0;-2.624429703E0
1.699519989E1;8.232104778E-1;-3.831768036E-1;-7.997185230E0
1.701324164E1;1.286893129E0;-4.872391224E-1;9.502517700E0
1.703126911E1;2.340867996E0;-1.006569624E0;5.774651527E0
1.704931659E1;3.305996180E0;-4.109076977E0;-8.476922989E0
1.706736084E1;3.497386217E0;7.641115189E-1;3.166345596E0
1.708539698E1;4.345926285E0;-1.336843300E1;-1.618131161E0
1.710343549E1;1.817910194E0;-9.644868851E0;9.717326164E0
1.712147437E1;-3.276994705E0;-2.239260674E0;5.318394661E0
1.713951270E1;6.789783239E-1;-5.821907043E0;-1.144992924E1
1.715755170E1;1.860718727E0;-6.478517056E-1;1.731561661E0
1.717559034E1;9.220566154E-1;-8.240947723E-1;6.035900116E-1
1.719362665E1;1.388375282E0;-4.450128555E0;9.593391418E-1
1.721165900E1;1.662113070E-1;1.137296486E1;-3.098608494E0
1.722970673E1;7.502563596E-1;-1.547315598E1;-6.298425674E0
1.724774561E1;1.713314295E0;5.791516781E0;3.100585938E-1
1.726578443E1;-4.124946296E-1;-2.728121996E0;1.191814423E0
1.728382270E1;-3.062190294E0;4.119887829E0;-6.254671574E0
1.730186158E1;9.709897637E-1;-5.734962225E-1;6.057323456E0
1.731990033E1;4.980843067E-1;-5.016967773E0;-1.564900875E0
1.733793634E1;-5.292254686E-1;-4.023772240E0;1.376005363E1
1.735598035E1;2.817428112E-2;2.911978006E0;3.307465553E0
1.737401660E1;-1.003786564E0;4.226732254E-2;-1.197000694E1
1.739205536E1;-6.706594229E-1;-9.163197517E0;1.350900936E1
1.741009192E1;-1.623789787E0;2.159311056E0;5.288956642E0
1.742813245E1;-4.749601185E-1;-1.989196301E0;-1.132425308E1
1.744617139E1;-4.891471863E-1;-2.529628515E0;1.019031239E1
1.746421015E1;-9.320908785E-1;-4.129524708E0;8.879428864E0
1.748224921E1;-1.115941405E0;-4.692263603E0;-6.788125038E0
1.750028766E1;-1.127445936E0;5.418542862E0;-6.360654831E-1
1.751832611E1;-5.093888640E-1;-3.892935276E0;8.128538132E-1
1.753636469E1;-8.648456931E-1;-2.082404137E0;3.061050415E0
1.755439161E1;3.100626469E-1;1.041027308E0;-6.660498619E0
1.757244220E1;-4.779338837E-3;1.809122801E0;-8.966212273E0
1.759048401E1;6.408623457E-1;-3.928039074E0;1.416009903E1
1.760851996E1;-1.261100650E0;3.548192263E0;-1.051201820E0
1.762655109E1;-9.050000310E-1;-3.992899895E0;-5.519581795E0
1.764458777E1;-7.076859474E-2;-6.639989614E-1;-2.110662460E-1
1.766263599E1;1.188324571E0;-1.728502870E0;2.575216293E0
1.768067481E1;-2.580363750E-1;2.692012787E-1;1.575174332E0
1.769871283E1;-2.728098392E0;-4.683356285E0;4.238310814E0
1.771675245E1;-2.715677738E0;-4.593022823E0;-7.797241211E-2
1.773479071E1;-1.082708120E0;1.157383537E1;-7.896299362E0
1.775282935E1;-7.580943704E-1;-9.444790840E0;9.428119659E-2
1.777086811E1;-2.491742373E0;-8.920736313E-1;3.231711388E0
1.778889478E1;-1.199923635E0;-2.504148722E0;-2.285547256E-1
1.780694355E1;-1.052075624E0;-2.538717508E0;4.364261627E-1
1.782498609E1;-4.588341713E-1;-7.520596504E0;5.601469994E0
1.784302344E1;-4.834441543E-1;3.719141483E0;-9.928915977E0
1.786106140E1;1.953199744E0;-5.119176388E0;-3.790275574E0
1.787908869E1;1.575126648E-1;-8.871452332E0;1.033272076E1
1.789713861E1;-9.582185745E-2;-4.107144356E0;1.348054886E0
1.791517798E1;-4.275534153E-1;-1.506128073E0;-4.197351933E0
1.793321253E1;1.394149899E0;-3.835400581E0;2.629275322E0
1.795125214E1;-5.424589515E-1;-1.488869190E-1;-2.275533676E-1
1.796929670E1;5.596495867E-1;3.454704285E0;-6.916027069E-1
1.798733277E1;-2.096564293E0;-5.279420853E0;5.426273346E-1
1.800537073E1;1.145936251E-1;5.321309566E-1;-8.836488724E-1
1.802339771E1;1.690518856E-2;8.616614342E-2;1.391849518E0
1.804144568E1;-2.267772675E0;-4.014207840E0;1.281048775E0
1.805949006E1;1.446847916E-1;2.038656712E0;5.038691521E0
1.807752533E1;-1.599058390E0;-3.057776213E0;-1.272677422E0
1.809555347E1;-3.704896569E-1;3.732316256E0;-1.367222786E0
1.811360132E1;1.412520289E0;1.370106459E0;3.933338165E0
1.813164392E1;8.177828789E-2;-2.859723568E0;3.499027252E0
1.814968018E1;5.097508430E-2;1.077351093E0;-6.303881645E0
1.816771918E1;1.037359238E-1;-9.058825970E-1;-2.882797241E0
1.818575776E1;1.428017735E0;4.555848122E0;-9.098720551E-2
1.820379670E1;9.328416586E-1;-1.414652705E0;9.012527466E-1
1.822183484E1;2.185978413E0;-1.135779023E0;5.907783508E-1
1.823987372E1;1.216131449E0;-2.231540203E0;-5.088191986E0
1.825789600E1;1.361526012E0;1.602733135E0;5.111108780E0
1.827594733E1;-7.664964199E-1;-3.902463436E0;-3.172263622E0
1.829399353E1;-9.705521464E-1;4.976701736E-2;-1.006967068E1
1.831202857E1;-1.342338681E0;3.379186153E0;-1.037277699E1
1.833006732E1;-1.390270710E0;-1.056829166E1;9.059774399E0
1.834809204E1;8.711924553E-1;6.881886482E0;1.243053818E1
1.836613300E1;-1.785814166E0;-9.033455849E0;-1.769742584E1
1.838417182E1;8.693008423E-1;6.876220226E0;8.792951584E0
1.840220996E1;5.004106760E-1;-5.259386063E0;1.052746010E1
1.842024933E1;7.534356713E-1;4.604131699E0;-8.493617058E0
1.843828730E1;5.533959866E-1;2.608930588E0;-3.266518116E0
1.845632636E1;-6.655070186E-1;-6.272837162E0;1.204858017E1
1.847437647E1;2.243824482E0;-1.546493769E-1;-2.123699188E-1
1.849240912E1;-4.515904486E-1;1.024433374E-1;-2.280982494E0
1.851045343E1;1.673042059E0;-2.266156435E0;4.568273544E0
1.852849237E1;-1.552942157E0;1.159386635E0;-4.986284733E0
1.854653101E1;-9.027701616E-1;-1.469534755E0;-4.433692455E0
1.856456970E1;1.785240412E0;-8.001644611E-1;4.096670151E0
1.858260816E1;2.778197527E-1;-2.799806833E0;3.389279366E0
1.860064667E1;-9.537075758E-1;7.428642511E-1;-5.965963364E0
1.861868293E1;1.806444645E0;-3.803463936E0;4.329795837E0
1.863672059E1;1.038043618E0;-4.853981972E0;5.825208664E0
1.865475934E1;4.365184307E-1;3.681708813E0;-3.635081768E0
1.867280451E1;1.099214435E0;2.449624062E0;-3.617616177E0
1.869083997E1;-1.968470216E-1;-2.484502792E-1;-5.744972229E0
1.870887922E1;2.014374733E0;-3.170179844E0;3.803324699E0
1.872690522E1;5.597485900E-1;-6.681715965E0;1.157925987E1
1.874495600E1;-3.775550798E-2;6.078694344E0;-8.291257858E0
1.876299451E1;1.464681864E0;-4.235354900E0;8.253231049E-1
1.878103351E1;-1.017717361E0;-3.829809427E-1;-5.627475262E0
1.879906244E1;1.991965771E0;-8.684915900E-1;-7.989628792E0
1.881711170E1;-7.195404172E-1;6.891365528E0;8.495208740E0
1.883514917E1;1.293863058E0;-1.132481694E0;-2.742281914E0
1.885318451E1;7.581756264E-2;-2.102298737E-1;-4.488459110E0
1.887122602E1;2.472684622E0;-1.982236266E0;6.262205124E0
1.888926361E1;1.120922446E0;4.009873867E0;2.529500008E0
1.890730457E1;1.588339508E-1;3.900997639E-1;-1.113628578E1
1.892534241E1;2.975068688E-1;-1.219358921E0;6.184221268E0
1.894338050E1;2.690071106E0;-3.917908669E0;8.988756180E0
1.896141944E1;6.820698977E-1;1.272208929E0;-4.603734016E0
1.897945789E1;2.198888063E0;6.028079987E-1;-1.106834412E-1
1.899749707E1;9.130861759E-1;-3.773864746E0;8.717765808E-1
1.901553455E1;2.252281189E0;-3.999260664E-1;8.797750473E-1
1.903357184E1;6.687230468E-1;6.897251606E-1;-4.433619499E0
1.905160236E1;1.332068443E0;-4.129096270E-1;6.654806137E-1
1.906965113E1;4.095441103E-1;1.449850559E0;2.327173233E0
1.908768915E1;-2.916036844E-1;1.843072653E0;-1.165545273E1
1.910571704E1;3.376420021E0;-3.549186707E0;8.659913063E0
1.912376825E1;-1.606706262E0;3.127398968E0;3.458403587E0
1.914180408E1;3.227977991E0;-3.400549412E0;-8.769406319E0
1.915984369E1;-2.128663778E0;-8.254118562E-1;4.091485977E0
1.917788227E1;1.893587589E0;5.186970711E0;7.847347260E-1
1.919592109E1;1.226750493E0;-3.071388721E0;-5.984218597E0
1.921395990E1;-4.872498512E-1;-1.384647489E0;8.336265564E0
1.923199823E1;7.613639235E-1;-4.026199818E0;-2.727302074E0
1.925003681E1;-2.423155308E0;9.419320822E-1;3.729629517E-1
1.926807428E1;1.398666263E0;4.015736580E-1;1.057188988E0
1.928611536E1;-3.303232789E-1;1.895612001E0;-1.693756104E0
1.930415204E1;2.866467953E0;-4.334463120E0;9.883251190E-1
1.932219129E1;-2.559202433E0;9.994230270E-1;-3.864204884E0
1.934022901E1;1.213928461E0;5.608192444E0;-9.364653587E0
1.935826923E1;3.353341818E-1;-1.738690138E0;-1.001781845E1
1.937630579E1;-2.187818527E0;-1.810998917E0;-8.093599319E0
1.939434540E1;9.676495552E0;-4.772727585E1;7.091477203E1
1.941238398E1;-9.947003126E-1;2.900976944E1;-2.321251106E1
1.943042286E1;6.114761829E0;-7.750231743E0;-6.584750652E0
1.944846082E1;-1.938985109E0;1.241130638E1;-1.969867325E1
1.946649976E1;9.761266708E-1;1.464514732E0;1.100335884E1
1.948453821E1;-1.513249040E0;1.881341577E0;8.427619934E-2
1.950257441E1;2.766419351E-1;2.546777487E0;-1.288639069E0
1.952061786E1;-1.872973740E-1;-1.479966760E0;7.662522316E0
1.953865290E1;3.755633831E-1;-1.274810672E0;7.065925598E-1
1.955669367E1;-3.376681805E-1;4.592335224E-1;9.458360672E-1
1.957472089E1;-1.069599390E-2;7.001491547E0;-5.962370396E0
1.959276624E1;1.289367080E0;-4.693941116E0;6.033127785E0
1.961081098E1;-5.779643059E-1;5.899013281E-1;-2.450263500E0
1.962884571E1;1.419725895E0;-3.722203732E0;-3.922400951E0
1.964688691E1;7.252766192E-2;-6.535161018E0;2.824003220E0
1.966492377E1;-1.806413174E0;-2.396161556E-1;-1.411823273E0
1.968296253E1;-1.080501318E0;-2.495574236E0;7.480592728E-1
1.970100116E1;-1.905903220E0;-1.173730850E0;-2.109648705E0
1.971902662E1;-3.326423168E-1;1.172385216E-1;1.909589767E-1
1.973707746E1;-2.058131844E-1;-4.006463051E0;2.731313705E0
1.975511670E1;-1.102103591E0;1.761946440E0;-3.194355488E0
1.977315204E1;1.524574459E-1;-2.742022991E0;1.230265617E0
1.979119403E1;-1.462003946E0;-4.504455090E0;3.062629700E-1
1.980921918E1;-3.583024979E0;-1.007247567E0;-7.721757889E-1
1.982727094E1;-1.637770891E0;-3.791054726E0;-4.981069565E-1
1.984530951E1;-1.286572695E0;1.455591583E1;-3.919009209E0
1.986334809E1;-2.064559460E0;1.571029377E1;-2.251472473E-1
1.988138611E1;-1.528963566E0;-2.467653656E1;2.543267822E1
1.989942499E1;1.380170465E0;-7.963578224E0;-4.885218143E0
1.991746357E1;3.916501045E0;-1.104774117E0;-2.366793156E0
1.993550214E1;-5.130307198E0;-7.270138741E0;-3.566547871E0
1.995352820E1;4.470214844E-1;-6.653175354E0;1.054252338E1
1.997157618E1;-4.104395866E0;-6.303626299E-1;-9.927134514E0
1.998962049E1;3.805536032E-1;1.904886007E0;-6.082792282E-1
2.000765644E1;-1.451655030E0;-1.025139093E-1;4.683105469E0
2.002569477E1;-2.099181414E-1;3.411848307E0;-4.241432667E0
2.004372217E1;-1.612085581E0;-1.457281590E0;2.835320473E0
2.006177179E1;4.407253265E-1;4.877793312E0;-1.771191120E0
2.007981055E1;-1.208419681E0;4.555273056E-1;-2.673801899E0
2.009784827E1;-8.011512756E-1;-1.096847534E0;4.857457161E0
2.011588739E1;-9.722684622E-1;-8.677071333E-1;-9.185886383E-1
2.013392597E1;-1.359372139E-1;-1.962885380E0;8.719978333E-1
2.015196454E1;-8.697471619E-1;-1.306750774E0;4.096355438E-1
2.017000287E1;-4.359213114E-1;-1.515030384E0;-1.125855446E0
2.018804212E1;2.099181414E-1;-1.798862219E-1;2.139875412E0
2.020608173E1;-2.808034420E-2;1.556490660E-1;-1.052881241E0
2.022411744E1;-7.361660004E-1;-1.103812933E0;2.802254677E0
2.024215662E1;-2.594280243E-2;6.754379272E-1;-2.464682579E0
2.026019550E1;-7.844172716E-1;1.120451927E0;-1.625071526E0
2.027823401E1;-4.309324026E-1;1.652424812E0;-1.999970913E0
2.029627271E1;-2.740019798E0;-1.762129188E0;1.985191345E0
2.031431092E1;-2.684091091E0;3.100740910E-1;2.562599182E0
2.033234974E1;-3.571150303E0;-8.849467039E-1;-1.627286911E0
2.035038837E1;-2.850317240E0;7.866263390E-1;-2.738819122E-1
2.036842700E1;-3.329858780E0;2.103425264E0;-2.004616261E0
2.038645331E1;-2.630712509E0;-2.322362661E0;2.519492149E0
2.040450373E1;-2.592269421E0;3.283119202E-1;-1.532185078E0
2.042254230E1;-2.554345369E0;3.648546457E0;6.075973511E-1
2.044057984E1;-2.646001816E0;-1.603388429E0;-9.150743484E-1
2.045861920E1;-2.119588852E0;-1.327828884E0;3.036356926E0
2.047665882E1;-1.503717661E0;-7.115615606E-1;1.732151985E0
2.049469642E1;-2.586837769E0;2.556010008E0;-1.850123882E0
2.051273542E1;-1.304689765E0;-2.014852047E0;1.270198822E0
2.053077295E1;-1.549468637E0;-5.883576870E-1;2.218354225E0
2.054881202E1;-7.742328644E-1;1.183659196E0;1.057024002E-1
2.056683832E1;-1.357088923E0;3.194904327E-1;-2.209299564E0
2.058488929E1;-1.402001381E-1;-2.639540672E0;1.012930584E1
2.060292743E1;-3.145027161E-1;4.692322254E0;-3.021243572E0
2.062096601E1;-6.298618317E-1;-7.360455990E-1;-4.047685146E0
2.063898847E1;-3.047132492E-1;3.908900738E0;6.312312126E0
2.065703705E1;-7.541694641E-1;-6.261739731E-1;-3.575448990E0
2.067507825E1;1.117550850E0;9.799844027E-1;2.682080269E0
2.069312708E1;9.096312523E-2;8.525732756E-1;3.535869598E0
2.071115870E1;8.608756065E-1;1.622915268E-2;-4.238627911E0
2.072919745E1;-1.313509226E0;2.366912365E-1;-3.476238251E-1
2.074723548E1;-1.287161112E0;-1.671066999E0;-5.153913498E-1
2.076527411E1;-2.013948917E0;-2.532583714E0;5.152557373E0
2.078331263E1;-1.860487819E0;2.299874067E0;-4.952010632E0
2.080134375E1;-3.653628111E0;-4.164977551E0;-1.774031162E0
2.081938923E1;-1.838030457E0;-5.355110168E-1;6.623225212E0
2.083742823E1;-8.314838409E-1;-3.640263677E-1;-5.261837959E0
2.085546650E1;-3.479353428E0;-9.148351550E-1;1.855031967E0
2.087350556E1;-7.068660259E-1;1.589819789E0;2.817078590E0
2.089154084E1;-2.579146862E0;1.969558477E0;-5.581472397E0
2.090957935E1;-3.786062956E0;5.205512047E-2;-2.015390396E-1
2.092762342E1;-2.656802177E0;-5.720046163E-1;2.842250824E0
2.094565943E1;-3.404232979E0;5.770938396E-1;-1.389127731E0
2.096369739E1;-2.354714632E0;-4.920571446E-1;2.246488571E0
2.098173627E1;-3.887965679E0;-1.420894623E0;7.157354355E-1
2.099977454E1;-5.212174892E0;-1.402436018E0;-5.310163498E-1
2.101781342E1;-3.513276577E0;5.814760327E-1;1.249069214E0
2.103583954E1;-3.552556276E0;1.511573076E0;7.816858292E-1
2.105388709E1;-2.547653675E0;-2.088503838E-1;3.840244293E0
2.107193158E1;-4.234895706E0;-9.944127798E-1;-1.055093765E0
2.108996747E1;-2.895925999E0;1.052235842E0;2.536573410E0
2.110800556E1;-3.569497585E0;4.312991142E0;-4.859762192E-1
2.112604023E1;-3.659726620E0;-4.295071661E-1;5.864912987E0
2.114408289E1;-3.119563818E0;1.557003498E0;9.096050262E-1
2.116212158E1;-1.869437695E0;-2.566200495E-1;5.294170380E-1
2.118015955E1;-1.634668589E0;2.837634385E-1;7.280314445E0
2.119818640E1;-3.368776083E0;-7.771664858E-1;-3.463902950E0
2.121623652E1;-1.433535099E0;1.688235104E-1;5.297744751E0
2.123427533E1;-3.125733614E0;4.118490219E0;4.004554749E-1
2.125231354E1;-4.178098202E0;7.836072445E-1;7.257823944E-1
2.127035205E1;-3.070392847E0;-2.607045174E0;5.238163948E0
2.128838788E1;-1.390495539E0;-1.949295849E-1;-7.246284485E-1
2.130643232E1;-8.587968349E-1;-4.732811153E-1;2.321989059E0
2.132446717E1;-5.391364098E-1;1.112893820E-1;2.913157463E0
2.134250653E1;-1.774126291E0;-1.134164810E0;4.144668579E-2
2.136054535E1;-8.076500893E-1;-9.541636705E-1;4.393801689E0
2.137858344E1;2.612755299E-1;1.005442142E0;-2.804724693E0
2.139662146E1;-1.045897722E0;2.139374733E0;-1.006565094E0
2.141466028E1;-1.026062727E0;-1.183488607E0;7.173223495E-1
2.143269898E1;1.929855347E-2;-4.405087233E-2;3.796615601E-1
2.145073737E1;-1.960172653E0;1.215215325E-1;2.222061157E-4
2.146877460E1;-1.873884797E0;4.498202801E-1;2.060985565E-1
2.148681562E1;-3.295268059E0;3.028057814E-1;-5.514144897E-3
2.150485224E1;-2.378073215E0;-7.778818607E-1;4.922224998E0
2.152289148E1;-1.891396284E0;8.083386421E-1;-9.552516937E-1
2.154092963E1;-2.364413261E0;1.800568700E-1;2.280616760E-2
2.155894690E1;-2.365257263E0;7.054930925E-1;1.452301025E0
2.157700922E1;-2.267578602E0;4.496753216E-3;-4.080931664E0
2.159504566E1;-3.413638592E0;-4.303703785E0;1.434969425E1
2.161308338E1;-5.891201496E-1;5.196469307E0;-7.632797241E0
2.163112250E1;-9.816339016E-1;-5.280974507E-1;-2.898036003E0
2.164916083E1;-4.325308323E0;9.540855289E-1;1.709451675E0
2.166719818E1;-1.930406570E0;-4.995725632E0;2.268915176E0
2.168523890E1;-2.965070248E0;9.113913774E-1;5.504161835E0
2.170327216E1;-1.032195091E0;3.833591938E-1;-4.362957478E0
2.172131464E1;-1.483581066E0;1.561441422E0;1.399627686E0
2.173935858E1;-1.395788908E0;-3.301357031E-1;2.570077896E0
2.175739142E1;-5.984492302E-1;9.635857344E-1;1.606263161E0
2.177542749E1;-1.685084820E0;3.273027897E0;-1.549334049E0
2.179347052E1;-1.530503273E0;-3.579630136E0;3.253469467E0
2.181150824E1;-7.474303246E-1;1.534778118E0;2.520700455E0
2.182954566E1;-1.960848808E0;5.076582432E-1;-4.095784664E0
2.184758411E1;-1.876590610E0;-1.616736412E0;3.961478233E0
2.186562275E1;-2.297147989E0;-8.265928030E-1;2.121519089E0
2.188366132E1;-2.253004551E0;-1.623388529E-1;-2.375050545E0
2.190169641E1;-2.532824516E0;-3.761601448E0;4.031995773E0
2.191972791E1;-1.354639411E0;7.676281929E-1;-2.528190613E-1
2.193776538E1;-1.527409673E0;3.592896700E0;-5.032498360E0
2.195580597E1;-1.279281497E0;-1.441713095E0;6.132754326E0
2.197384143E1;6.067752838E-1;1.743944764E0;4.722690582E-2
2.199188050E1;-4.542891979E-1;-2.653815269E0;1.640156746E0
2.200992109E1;-3.686335087E-1;3.442734718E0;9.528856277E-1
2.202795923E1;-1.306723952E0;-5.780324936E-1;-2.480360031E0
2.204599726E1;-6.269283295E-1;-9.193623066E-2;8.476518631E0
2.206403559E1;-1.935506582E0;6.679447889E-1;-4.315855980E0
2.208207306E1;-2.930643082E0;-7.308513522E-1;-3.456129551E0
2.210011237E1;-6.070110798E-1;3.504254103E0;4.278150558E0
2.211815796E1;-2.176226139E0;-3.134317398E0;-2.743563652E0
2.213618854E1;1.108594418E0;5.624091625E-1;4.310730934E0
2.215423841E1;-1.743702173E0;4.981492043E0;-5.398159027E0
2.217228028E1;-4.272949696E-1;-2.083358765E0;5.264517784E0
2.219031507E1;-2.286613226E0;2.365066051E0;8.242511749E-2
2.220833734E1;-1.488970041E0;-1.250751019E0;-6.617027283E0
2.222639100E1;-2.432500839E0;-3.857277870E0;8.374123573E0
2.224443311E1;-3.038760185E0;6.231811047E-1;-8.801612854E-1
2.226246912E1;-2.250647306E0;-1.566778421E-1;-3.215836048E0
2.228050794E1;-2.599110842E0;-1.976240873E-1;4.260367393E0
2.229854651E1;-1.647273421E0;-1.444817543E0;-3.764514923E-1
2.231658521E1;-1.055413485E0;-1.732389927E-1;8.568887711E-1
2.233462317E1;3.361110687E-1;-1.981755495E0;-1.076049805E-1
2.235266181E1;1.069424152E0;4.651284218E-2;1.475177765E0
2.237069855E1;1.916178465E0;-1.449128747E0;-3.662214279E-1
2.238874018E1;1.109121084E0;-1.196398139E0;-9.166069031E-1
2.240677808E1;-3.300893307E-1;6.515433788E-1;2.365424156E0
2.242481604E1;-1.226536036E-1;-2.644981146E-1;3.309229851E0
2.244284711E1;-2.773225307E-1;5.238797188E0;-7.850470066E0
2.246089270E1;-9.135140777E-1;-4.174943447E0;7.286643982E-2
2.247893586E1;-2.241794348E0;2.357679605E0;3.689393997E0
2.249697077E1;1.146825552E-1;-1.225237846E0;-8.742040634E0
2.251500849E1;-3.133919477E0;-7.509578466E-1;3.979234695E0
2.253304700E1;-1.748616695E-1;-1.480783105E0;3.962291718E0
2.255108515E1;1.874791265E0;2.786873579E-1;-5.286717415E0
2.256912390E1;6.226000786E-1;1.321018100E0;2.683826447E0
2.258716260E1;1.005795479E0;-3.014495850E0;1.408878326E0
2.260520075E1;1.732616425E-1;1.518392801E0;1.026268959E0
2.262323554E1;-4.426169395E-2;3.368742466E-1;-2.059117794E0
2.264127777E1;-6.514072418E-1;9.786050320E-1;1.370399475E0
2.265931629E1;1.043106675E0;-7.703933120E-1;-1.613790512E0
2.267734473E1;-1.079361558E0;1.615468264E0;1.217336655E-1
2.269538977E1;-4.286571741E-1;-1.775652289E0;6.909189224E-1
2.271342987E1;1.766338348E-1;1.183676720E-2;-1.502861977E0
2.273147028E1;-9.699828625E-1;-4.196723700E-1;1.730711937E0
2.274950904E1;-1.155552268E-1;-1.422242999E0;1.513960838E0
2.276754676E1;-1.469548941E-1;5.131692886E-1;-2.366667271E0
2.278558588E1;3.613390326E-1;-1.896570086E0;-7.689151764E-1
2.280362421E1;3.747923970E-1;-2.502265215E0;3.439105988E0
2.282166278E1;6.604202986E-1;3.003991365E0;-3.929519653E-1
2.283969782E1;1.230291128E-1;1.313624382E-1;-2.970917702E0
2.285774237E1;3.385084867E-1;-9.869459271E-1;5.567007065E0
2.287577802E1;3.795368075E-1;9.185189009E-1;-6.085393906E0
2.289381684E1;-8.484172821E-1;-4.920109510E-1;-1.546188354E0
2.291184259E1;-4.445916414E-1;-2.349120617E0;5.271563530E0
2.292989313E1;5.773574114E-2;4.487617016E-1;-3.237810135E0
2.294793244E1;-3.150900900E-1;-3.196857929E0;2.300305367E0
2.296597071E1;1.086978614E-1;-9.276056886E-1;-4.081153870E-1
2.298400861E1;-1.109798193E0;-9.224095941E-1;1.634693146E-1
2.300204761E1;8.108441830E-1;-9.196532965E-1;-6.705760956E-1
2.302008588E1;-2.851048112E-2;-1.572657466E0;2.196607590E-1
2.303811292E1;-8.663512468E-1;6.126697063E-1;4.474334717E-1
2.305615052E1;-6.585519314E-1;8.272272348E-1;-4.904699326E-1
2.307420160E1;-1.175474823E-1;-5.858926773E-1;1.866086960E0
2.309223963E1;-3.034980297E-1;-3.157548189E0;1.341721535E0
2.311027881E1;-8.632152677E-1;2.722315788E-1;-2.805728912E0
2.312831678E1;1.511003971E-1;-2.325875521E0;1.189607620E0
2.314635273E1;-8.570609689E-1;-1.469034553E0;-1.838547707E0
2.316439374E1;1.952839494E-1;-1.323875189E0;4.314719200E0
2.318243256E1;3.023326397E-2;8.454416990E-1;-1.438496590E0
2.320047058E1;5.665134788E-1;-5.405223370E-1;1.873092651E-1
2.321850916E1;-7.033453584E-1;2.030254126E0;3.827390671E-1
2.323654749E1;-3.093228042E-1;1.873149037E0;-4.596974850E0
2.325458643E1;6.126207113E-2;-4.450545788E0;5.547557831E0
2.327262439E1;-2.455279827E-1;1.176265478E0;3.413866043E0
2.329066297E1;-1.004412174E-1;8.822200298E-1;-2.336118221E0
2.330869898E1;-4.507680535E-1;1.016921520E0;-7.360439301E-1
2.332674280E1;-2.313267589E-1;-1.021248102E-1;-2.909646511E0
2.334477820E1;3.680723906E-1;-1.662437916E-1;1.318103790E0
2.336281708E1;9.021162987E-1;1.430272579E0;5.653285980E-1
2.338084369E1;6.873821616E-1;-3.871827841E0;2.929584503E0
2.339888977E1;2.146983743E-1;1.944337606E0;3.404235840E-1
2.341693207E1;9.574804306E-1;-1.869322777E0;-1.019029617E-1
2.343497083E1;-4.899454117E-1;7.597419024E-1;-1.205568314E-1
2.345300940E1;2.016690969E-1;-5.225807428E-1;-3.388279438E0
2.347104804E1;1.167196035E-2;-9.138213396E-1;2.618908882E0
2.348908618E1;7.749073505E-1;1.250616312E-1;5.702419281E-1
2.350712482E1;3.921324015E-1;-4.200408459E-1;-7.842063904E-3
2.352516303E1;1.199960709E-2;1.766461849E0;-1.570440292E0
2.354319861E1;-5.164785981E-1;-9.633548260E-1;1.217040062E0
2.356122931E1;-4.441435337E-1;-4.467749596E-2;-1.469792366E0
2.357927863E1;-3.152429163E-1;9.755152464E-1;6.818618774E-1
2.359731726E1;-5.571286678E-1;-4.845302105E-1;-7.764577866E-1
2.361534449E1;-7.652860880E-2;-3.285505295E0;2.971639633E0
2.363339392E1;-1.457732022E-1;-1.325157523E0;1.161659241E0
2.365143244E1;-2.786448300E-1;-3.030019999E-1;-2.484272480E0
2.366947138E1;-9.394094944E-1;-2.832494974E-1;-1.959184647E0
2.368751123E1;-3.958958387E-2;-5.589439869E-1;2.887574196E0
2.370554645E1;4.763171673E-1;-1.437720299E0;4.617166519E-1
2.372358661E1;-2.998643816E-1;-1.467971087E0;-4.807758331E-1
2.374162488E1;-1.031793356E-1;-4.026637077E-1;-8.287429810E-4
2.375966358E1;-2.412177622E-1;-6.832114458E-1;-9.608287811E-1
2.377769904E1;-3.369128704E-2;-2.171851158E0;1.160496712E0
2.379574268E1;1.494988799E-1;-3.438798189E-1;1.875864029E0
2.381377869E1;-2.314749062E-1;1.053599119E-1;-1.468743324E0
2.383181757E1;-6.778443456E-1;-1.193892956E-1;-3.667488098E-1
2.384985559E1;-5.759900808E-2;1.189724445E0;-1.531298637E0
2.386789423E1;-1.639605761E-1;-1.998585582E0;2.525548935E0
2.388592981E1;1.250450611E-1;-8.924093246E-1;1.439053535E0
2.390397437E1;-2.671501637E-1;-6.560571194E-1;5.142889023E-1
2.392200934E1;-2.272137105E-1;8.426262140E-1;-6.817131042E-1
2.394004804E1;-2.723317444E-1;-7.917593718E-1;-2.649482250E0
2.395807660E1;3.597331047E-2;-1.824916244E0;2.031945229E0
2.397612488E1;7.309676409E-1;1.089654326E0;-1.281335831E0
2.399415155E1;-3.771666884E-1;-3.169454336E-1;-5.688095093E-2
2.401219904E1;-4.715504050E-1;-1.180512667E0;1.431229591E0
2.403024317E1;-9.055626988E-1;-3.616750240E-2;-2.677430153E0
2.404827924E1;-1.106182337E-1;-8.948485851E-1;3.761700630E0
2.406631702E1;-1.042155623E0;2.142063141E0;-2.420884609E0
2.408435590E1;-7.321560383E-2;2.869328260E-1;-1.762566090E0
2.410239423E1;-3.384529352E-1;-1.283981800E0;1.987313271E0
2.412043299E1;-4.072557092E-1;9.702241421E-1;-2.396792412E0
2.413847065E1;4.898670912E-1;-3.037435055E0;2.703585625E0
2.415650782E1;-8.969307542E-1;-2.234244347E-1;1.798114777E-1
2.417453968E1;2.082420588E-1;-8.325239420E-1;-9.781932831E-2
2.419259088E1;-7.799686790E-1;2.193952084E0;-1.193357468E0
2.421062488E1;2.771904469E-1;-5.692183971E-1;2.021916389E0
2.422865601E1;-1.045432329E0;-2.149151802E0;-8.907890320E-2
2.424670112E1;-2.573010325E-1;5.454397202E-1;-9.156169891E-1
2.426474225E1;1.307973266E-1;-8.109319210E-2;-4.358415604E-1
2.428277820E1;-2.025879622E-1;3.749562502E-1;2.234630585E-1
2.430081732E1;2.704259753E-1;-1.732523441E0;1.903208733E0
2.431885590E1;-2.637771368E-1;-3.140541315E-1;2.036075592E-1
2.433689417E1;6.991490722E-1;3.284125328E-1;4.123916626E-1
2.435493250E1;-1.993361115E-1;4.357902050E0;-2.177809238E0
2.437296888E1;1.209629178E-1;-2.033448219E0;3.614082336E-1
2.439101007E1;-1.620589495E-1;-1.027624965E0;7.588901520E-1
2.440904798E1;1.019976735E0;-1.194805384E0;1.751119614E0
2.442708631E1;5.364577770E-1;1.422456980E0;-2.639840126E0
2.444512507E1;6.226767302E-1;-1.018447876E0;3.110141754E-1
2.446315870E1;-3.780349493E-1;-5.234777927E-1;1.183286667E0
2.448119916E1;-3.041238189E-1;-3.309520960E0;1.672859192E0
2.449924164E1;6.560636163E-1;1.679057360E0;-2.923405170E0
2.451728009E1;8.383214474E-2;5.196075439E-1;-9.876823425E-1
2.453531702E1;3.297693729E-1;-3.090376377E0;2.295485497E0
2.455335596E1;-9.085661173E-1;7.597330809E-1;-1.095440865E0
2.457139386E1;-5.108118057E-4;-1.708488345E0;1.392744064E0
2.458943256E1;-5.294824839E-1;1.317213178E0;-2.120876312E-1
2.460747089E1;5.284202695E-1;-2.374873877E0;-7.331266403E-1
2.462550574E1;-7.381004095E-1;-1.912107944E0;2.217859268E0
2.464355170E1;1.986385584E-1;1.724935770E-1;-4.327201843E-1
2.466158637E1;-2.381798327E-1;-2.740559340E0;1.926724434E0
2.467962482E1;6.046341062E-1;-3.422651291E-1;-1.810808659E0
2.469765186E1;-3.134358525E-1;1.843494654E0;-1.518066406E0
2.471569867E1;2.738125920E-1;-1.816124558E0;1.134160995E0
2.473374299E1;-4.668716490E-1;1.159498692E-1;3.564767838E-1
2.475177875E1;1.150846481E0;-2.583027840E0;1.165926933E0
2.476981732E1;5.515599847E-1;2.128024578E0;-7.707395554E-1
2.478785529E1;5.074691176E-1;-8.134982586E-1;-1.819680214E0
2.480589398E1;4.314099550E-1;3.638948202E-1;1.307110786E0
2.482393256E1;8.879572749E-1;-8.380264640E-1;2.926626205E-1
2.484197089E1;-1.128762364E-1;-6.867113709E-1;-1.235015869E0
2.486000885E1;1.401645780E0;-4.856477976E-1;6.153011322E-1
2.487804779E1;1.026585340E0;1.170185804E-1;4.159078598E-1
2.489608606E1;4.282694459E-1;-2.104980230E0;-4.310579300E-1
2.491412519E1;1.572128832E-1;3.089923859E-1;1.212117195E0
2.493216291E1;3.061808944E-1;1.865817070E0;-2.828509808E0
2.495020166E1;-9.952380061E-1;-1.425743103E0;4.790058136E-1
2.496823987E1;5.432224274E-2;-2.116303682E0;1.320950508E0
2.498627875E1;-2.178251743E-3;1.203301907E0;-1.780522823E0
2.500431629E1;-1.247089952E-1;-1.749473453E0;1.476869583E0
2.502234217E1;-8.831948042E-3;2.062798023E0;-1.210412025E0
2.504039673E1;-3.490462899E-2;6.002241373E-1;-4.406986237E-1
2.505843250E1;-1.978098750E-1;1.588908434E-1;2.778759003E-1
2.507646106E1;6.231805682E-2;-3.357253075E-1;1.162483215E0
2.509450635E1;-3.668241799E-1;7.694913149E-1;-2.087124825E0
2.511255036E1;-1.099309325E-1;-3.447138309E0;1.903407097E0
2.513058631E1;-3.378677070E-1;-4.343643188E-1;3.474568367E0
2.514862329E1;7.784077525E-2;-1.556091785E0;-1.564696312E0
2.516666388E1;-1.505712628E0;1.904432774E-1;1.596517563E-1
2.518470136E1;2.200418711E-2;1.020463943E0;-1.045838356E0
2.520274018E1;-9.635326862E-1;-1.170871615E0;-2.738780975E-1
2.522077796E1;8.948534727E-2;-1.252729416E0;3.067884445E-1
2.523881647E1;5.188847780E-1;-7.072663903E-1;1.627254486E-2
2.525685498E1;3.735433519E-1;-2.137405872E0;-5.652303696E-1
2.527489093E1;3.283077478E-1;-1.656018972E0;3.155256271E0
2.529292279E1;2.875962555E-1;1.982178807E0;-2.234987736E0
2.531097284E1;-1.532167196E-1;8.079198599E-1;-3.169965744E-1
2.532900666E1;-3.812166154E-1;2.163916826E-1;5.056581497E-1
2.534704987E1;3.314531744E-1;-1.591643929E0;-5.873422623E-1
2.536508527E1;-1.573416591E-2;2.632429600E-1;1.803975105E0
2.538312464E1;3.415554762E-1;4.571974277E-1;-1.833400726E0
2.540116260E1;-5.770607591E-1;4.564882517E-1;6.931304932E-1
2.541920105E1;1.911158860E-1;-1.415551901E0;7.456531525E-1
2.543723938E1;-5.128395557E-1;1.326873422E0;-9.983901978E-1
2.545527771E1;4.004653096E-1;-1.385717392E0;1.974362373E0
2.547330469E1;-6.256875992E-1;-7.471577525E-1;-1.357798576E0
2.549134101E1;-4.807150364E-2;-1.619515061E0;3.292865753E-1
2.550938202E1;-4.672258496E-1;-2.505075455E0;1.967402458E0
2.552742072E1;2.184922099E-1;8.395040035E-1;-9.900770187E-1
2.554546332E1;-4.318266511E-1;-3.777135611E-1;2.714233398E-1
2.556349872E1;-4.391932487E-1;8.469901085E-1;-1.529310226E0
2.558153437E1;1.095967889E-1;-1.316832185E0;-9.468460083E-2
2.559957355E1;3.471723795E-1;-1.228026867E0;2.008273125E0
2.561761231E1;-1.726050973E-1;-7.989508510E-1;-2.373764992E0
2.563566504E1;-1.318247616E-1;-2.122999430E0;1.392112732E0
2.565369318E1;6.189680099E-2;-1.640495062E-1;1.160935402E0
2.567174121E1;-2.048883736E-1;-7.269399762E-1;-5.905885696E-1
2.568977722E1;-3.763990104E-1;5.425972939E-1;-4.886827469E-1
2.570781592E1;-3.597451448E-1;-1.579976082E-1;1.117816925E0
2.572585376E1;-1.587698936E0;-2.636063099E-2;-4.382150650E0
2.574389277E1;2.861744761E-1;-1.182271719E0;2.150679588E0
2.576193103E1;1.475849748E-1;1.204715371E0;1.110516548E0
2.577996601E1;2.780038118E-2;-1.993114948E0;-6.101760864E-1
2.579800330E1;-1.902701855E-1;2.136265516E0;1.881732941E0
2.581605042E1;-2.216587663E-1;1.583573818E0;-5.124391556E0
2.583408252E1;-1.140768766E0;-5.277681351E-1;3.990676880E0
2.585212549E1;1.209045649E0;9.122047424E-1;-1.858529091E0
2.587016132E1;-9.029293060E-2;5.523234606E-1;4.352931976E-1
2.588820008E1;-3.515335917E-1;4.946362972E-2;1.255780220E0
2.590623847E1;-4.927398264E-1;1.244086027E0;3.057041168E-1
2.592427680E1;-1.147854567E0;6.883729696E-1;-2.448919296E0
2.594231202E1;1.664074063E-1;-1.309458852E0;3.780650139E0
2.596035663E1;-7.527886033E-1;1.664342403E0;-2.128996372E0
2.597838007E1;3.132553697E-1;-9.444471002E-1;2.106553078E0
2.599643085E1;-9.147157669E-1;1.151945591E-1;-8.059520721E-1
2.601446326E1;6.357840896E-1;5.165131092E-1;1.196250916E-1
2.603250763E1;-6.567914486E-1;-2.075287104E-1;1.469833374E0
2.605054218E1;-4.105021954E-1;-2.926980257E-1;-2.516075611E0
2.606858734E1;-4.494461417E-1;6.936107874E-1;3.194474220E0
2.608662214E1;6.179511547E-2;1.490145922E0;-2.553575993E0
2.610466083E1;-3.916829526E-1;-4.833235741E-1;3.170299530E-1
2.612269916E1;1.643495560E-1;1.912050128E0;9.106559753E-1
2.614073767E1;-2.952223420E-1;-1.523421288E0;-7.193450928E-1
2.615877448E1;-2.000856400E-1;-1.016973734E0;2.743577957E-1
2.617681586E1;-2.332114577E-1;-8.752582669E-1;-2.784156799E-2
2.619485242E1;-1.211519241E-1;-2.251881599E0;1.123434067E0
2.621289154E1;-3.635792732E-1;-3.535043001E-1;-9.230623245E-1
2.623092957E1;-5.758457184E-1;1.535154581E-1;2.164893150E0
2.624895771E1;2.307152748E-1;7.108023167E-1;-2.366773129E0
2.626700647E1;-2.232260227E0;1.118332982E0;1.333603859E0
2.628504511E1;-4.893465042E-1;3.676048517E-1;-1.388345718E0
2.630308283E1;-2.193680286E0;1.395159841E0;2.069853783E0
2.632112146E1;-1.659684658E0;9.954768419E-1;-1.286795616E0
2.633916004E1;2.315831184E-1;1.871866345E0;-2.549591064E-1
2.635719867E1;5.422909260E-1;1.253433943E0;-3.153588295E0
2.637523621E1;7.642129660E-1;-3.363014460E-1;3.320458412E0
2.639327106E1;-6.702645421E-1;3.585947752E0;-4.211841583E0
2.641131366E1;-4.771606922E-1;-4.422401428E0;1.818286896E0
2.642935248E1;-2.723429918E0;1.917136312E0;4.989133835E0
2.644739002E1;7.359735966E-1;-2.092736721E0;-2.932317734E0
2.646542859E1;-1.610237598E0;1.478226423E0;2.094350815E0
2.648346235E1;1.363264084E0;-7.883884907E-1;-5.396405220E0
2.650150550E1;-7.235962152E-1;1.744863629E0;1.342544556E0
2.651954352E1;9.565353394E-3;-2.746785879E0;2.994222641E0
2.653758197E1;-1.094196081E0;-4.415903091E-1;-3.467066765E0
2.655562043E1;-8.276310563E-1;1.353664398E0;1.818576813E0
2.657365644E1;-9.365003109E-1;1.490722179E0;9.105148315E-1
2.659170014E1;-8.293715715E-1;3.352882862E-1;-3.313719273E0
2.660973572E1;-4.299737811E-1;-1.856014252E0;2.482977867E0
2.662777387E1;-6.111577153E-1;-3.059673071E0;6.566541672E0
2.664581202E1;-1.009331942E0;2.086829185E0;-3.173492908E0
2.666385132E1;-5.837174058E-1;-1.570906758E0;-3.302347183E0
2.668188929E1;-1.472960949E0;-1.039418340E0;3.844327927E0
2.669992756E1;-4.032763839E-1;2.734922886E0;-2.717296600E0
2.671796631E1;-8.240861893E-1;2.566241741E0;-2.752092838E0
2.673598951E1;-1.477050781E-2;-2.609187365E0;4.919384956E0
2.675404541E1;-3.174877167E-2;2.550007820E0;-2.725571632E0
2.677208600E1;3.776233196E-1;-1.710950255E0;7.423591614E-2
2.679012061E1;-7.720021009E-1;2.077008724E0;4.388237000E-1
2.680815497E1;5.182639360E-1;-1.692450166E0;-3.982025146E0
2.682619782E1;-9.226462841E-1;-1.770207405E0;4.227826118E0
2.684423468E1;1.034307003E0;-1.031162143E0;6.371335983E-1
2.686226972E1;-6.693446040E-1;-2.068061829E0;2.818405151E0
2.688031018E1;1.136063099E0;4.927593231E0;-1.681875229E0
2.689835041E1;-4.530721903E-1;2.393270016E0;-3.284207821E0
2.691638813E1;2.902201414E-1;-1.001290083E0;2.499217987E-1
2.693442664E1;-1.670277119E-2;-4.551513195E0;1.371163368E0
2.695245618E1;-1.579546928E-2;-1.296061516E0;1.871643066E0
2.697050299E1;-1.142834067E0;3.430247307E-2;-3.013935089E0
2.698854200E1;-5.887642503E-1;4.721033573E-2;2.733968735E0
2.700658020E1;5.448212624E-1;-3.963444233E-1;-1.625387192E0
2.702461799E1;-1.687295675E0;-1.481303334E0;4.149481773E0
2.704265674E1;3.401309252E-1;2.568702698E0;-1.326035500E0
2.706069489E1;-1.051720977E0;1.260120630E0;-1.883000374E0
2.707873267E1;-7.700164318E-1;-1.816680074E0;4.547233582E-1
2.709677002E1;-6.978676319E-1;-2.122365475E0;1.138925552E0
2.711480695E1;-2.064858437E0;5.923219919E-1;3.444356918E-1
2.713285150E1;-1.315998077E0;2.364443302E0;-3.094747543E0
2.715088715E1;1.310733557E-1;-3.569097042E0;5.776044846E0
2.716892469E1;-7.273738384E-1;-1.038115501E0;-8.955802917E-1
2.718696350E1;-5.763615370E-1;-4.478843212E0;6.345701218E-1
2.720500184E1;-1.493583918E-1;5.449342728E-2;3.990591049E0
2.722304041E1;-7.069481611E-1;3.842307329E-1;-3.565913677E0
2.724106629E1;-1.335780501E0;6.904189587E-1;3.141098976E0
2.725911676E1;-5.612671971E-1;-7.898759842E-2;-4.515857697E-1
2.727715546E1;-1.281808376E0;3.573686600E0;-7.299194336E-1
2.729519355E1;-9.446263313E-2;-1.588373303E0;-2.508553982E0
2.731322840E1;-1.461549163E0;4.540983200E0;1.256538391E0
2.733126709E1;4.721868038E-1;-3.628171206E0;-2.293946743E0
2.734930860E1;-1.995667696E0;-2.756628513E0;3.939454079E0
2.736734723E1;-2.258637547E-1;4.160632133E0;-2.816008091E0
2.738538495E1;-5.852918029E-1;-2.610324144E0;-2.242994308E-1
2.740342420E1;-1.221997738E-1;3.450882435E-2;-9.947042465E-1
2.742146204E1;-3.148297668E-1;-1.938833714E0;3.299140930E-1
2.743950061E1;-6.984069943E-1;-5.719522238E-1;4.523626328E0
2.745753821E1;-6.050156951E-1;6.675733328E-1;-3.557982922E0
2.747557679E1;-4.281059504E-1;1.208688617E0;2.926240921E0
2.749361237E1;-1.191527247E0;1.715672731E0;-2.436667919E0
2.751165692E1;2.645124197E-1;-4.240760803E0;3.464779854E0
2.752969178E1;-6.825037003E-1;1.775075436E0;-9.094610214E-1
2.754773066E1;3.278732300E-1;2.110225439E0;-1.772857189E0
2.756576886E1;-1.011084437E0;9.412732124E-1;3.639851570E0
2.758380756E1;-6.269678473E-1;3.479036093E0;-4.940756321E0
2.760184528E1;-6.178652644E-1;1.892688274E-1;3.762088776E0
2.761988398E1;-1.527294517E0;2.651654482E0;1.068771362E0
2.763791901E1;-2.092305183E0;-4.493189335E0;8.554496765E-1
2.765596357E1;-2.130984068E0;5.631772280E-1;-2.582700253E0
2.767399836E1;-6.657163501E-1;-1.758165359E0;-1.288517952E0
2.769203693E1;-1.360111117E0;-7.986372709E-1;6.089347839E0
2.771007520E1;-2.812658548E-1;-3.401382923E0;-1.016232491E0
2.772810962E1;-7.647320628E-1;5.922617912E0;-2.871763229E0
2.774615650E1;5.240595341E-1;-3.874271154E0;2.540490150E0
2.776419049E1;-1.484619379E0;4.559245586E0;-6.125869751E-1
2.778222547E1;1.562362075E0;1.956566095E0;-2.326727867E0
2.780025928E1;-6.845176816E-1;-7.093782425E-1;2.054729462E0
2.781830524E1;8.548091650E-1;8.008470535E-1;-2.771284103E0
2.783634388E1;-1.894422293E0;-3.876166821E0;2.734479904E-1
2.785438221E1;1.462532282E0;5.139592171E0;9.061258316E0
2.787241797E1;-4.732141495E0;-3.127955675E0;-1.042668056E1
2.789046137E1;-1.010637760E0;6.127815247E-1;3.281745911E0
2.790849720E1;-1.482749820E0;-1.186687708E0;4.489137650E0
2.792652387E1;-1.491588593E0;8.592931032E-1;-7.024624825E0
2.794456366E1;6.148743629E-2;-1.969549060E0;1.008436298E1
2.796260822E1;-2.001735687E0;3.577387094E0;-5.251021862E0
2.798065412E1;-1.385542512E0;-4.720654488E-1;-1.160560989E1
2.799868781E1;-5.751831532E-1;-9.298903465E0;1.881378937E1
2.801672803E1;-1.608101368E0;6.732024670E0;-6.773971558E0
2.803476520E1;9.005877972E-1;1.620966673E0;-8.944934845E0
2.805280359E1;-2.132601976E0;-3.908488274E0;5.760434151E0
2.807084192E1;1.204708815E-1;8.769488335E-1;-3.995698929E0
2.808888056E1;7.642934322E-1;1.828456759E0;-1.352037430E0
2.810691822E1;9.427666664E-3;6.152533293E-1;-3.093891621E0
2.812495697E1;1.975011826E-1;-3.819152117E0;-2.646598816E-1
2.814299524E1;9.750602245E-1;-1.317533374E0;3.278824806E0
2.816103388E1;1.133801222E0;-3.347258329E0;1.020358086E0
2.817907404E1;-2.706102729E-1;-1.174199581E0;3.769994736E0
2.819710724E1;2.389073372E-1;3.953324795E0;-4.448457718E0
2.821515131E1;-2.074938774E0;1.372490168E0;-5.247605801E0
2.823318372E1;-2.996724844E-2;-3.506390572E0;5.591568947E0
2.825122467E1;-1.913153529E-1;4.006166458E0;-2.364821434E0
2.826926355E1;4.156135321E-1;8.247417212E-1;-7.827379227E0
2.828730194E1;6.296865344E-1;-1.936894655E0;4.820846558E0
2.830534046E1;1.043434143E0;-3.295931101E0;1.231772900E1
2.832337806E1;-4.104197025E-3;3.616174698E0;-7.091733932E0
2.834141388E1;1.845051289E0;-1.376883864E0;1.371517181E-1
2.835945813E1;-1.814829111E0;-7.930619717E-1;3.692340851E-1
2.837749360E1;2.275270700E0;-9.064157009E-1;-2.606481075E0
2.839553156E1;-5.650944710E-1;1.971426249E0;2.532474518E0
2.841356006E1;1.668606758E0;2.311251163E0;-1.947102070E0
2.843160645E1;3.873786330E-1;3.065767050E0;-2.926408768E0
2.844965003E1;3.460714817E-1;-2.445477486E0;-2.382659912E-2
2.846768494E1;6.122678518E-3;-1.356104970E0;3.063450813E0
2.848571387E1;8.260287046E-1;1.462047935E0;3.454284668E-1
2.850375324E1;1.657813191E-1;2.141435385E0;-2.392583370E0
2.852180017E1;2.520051003E-1;-9.199740887E-1;1.039333344E0
2.853983789E1;9.491370916E-1;-5.236756802E-1;-2.540979385E-1
2.855787592E1;4.078278244E-1;4.275957108E0;-1.393588066E0
2.857591462E1;1.456277847E0;-2.964722633E0;1.094724655E0
2.859395350E1;3.124849498E-1;-1.337576509E0;4.668216705E-1
2.861199103E1;1.346402407E0;-1.576447964E0;-4.544925690E-2
2.863002997E1;1.365203261E-1;-3.755911350E0;5.675570488E0
2.864806000E1;-1.074142754E-1;1.785157442E0;-3.471501827E0
2.866610682E1;2.341381311E-1;3.998126984E-1;-1.768599510E0
2.868414466E1;1.961438894E0;-2.638110399E0;3.131276131E0
2.870218317E1;1.026287556E0;-1.036728621E-1;2.888982773E0
2.872022156E1;1.239418983E0;4.251637459E0;-2.305883884E0
2.873825989E1;1.196159363E0;-8.258105516E-1;1.318672180E0
2.875629914E1;1.566255689E-1;2.247804165E0;-1.344114304E0
2.877433210E1;8.307665586E-1;1.814324021E0;-1.869532585E0
2.879237458E1;2.036248893E-2;-1.616489053E0;1.327303886E0
2.881041437E1;-4.581360817E-1;5.162945986E-1;-1.633243084E0
2.882845197E1;5.993211865E-1;-1.287633061E0;-1.505193710E-1
2.884648963E1;-9.520537257E-1;4.824876785E-2;-4.725897312E0
2.886452796E1;-2.662873566E-1;-2.465130329E0;4.823272705E0
2.888255463E1;9.104153514E-2;-2.842041492E0;1.528715134E0
2.890059723E1;-1.181183338E0;1.435608864E-1;1.064859390E0
2.891864185E1;4.814391583E-2;1.321604609E0;9.194898605E-1
2.893668164E1;-6.720583439E-1;2.734817028E0;-3.224506378E0
2.895471668E1;-3.223967552E-1;-5.154117346E-1;-7.538013458E-1
2.897276032E1;5.304788351E-1;-1.777538300E0;3.638797760E0
2.899079609E1;8.163151145E-1;1.787193894E0;6.589040756E-1
2.900883429E1;-3.725495934E-1;-2.776026011E0;-6.133063316E0
2.902687275E1;7.337448597E-1;-4.874558449E0;6.800240517E0
2.904489844E1;1.120260954E0;4.394388199E-1;1.994594574E0
2.906293830E1;4.708299041E-1;-2.726061344E0;-7.338021755E0
2.908097651E1;6.944249868E-1;-1.436123133E0;5.290319443E0
2.909901453E1;2.275296688E0;-6.045187950E0;1.061125278E1
2.911704755E1;-7.677762210E-2;7.154379845E0;-8.559312820E0
2.913509064E1;3.743060589E0;-2.121274471E0;-2.913434029E0
2.915312995E1;-1.147248387E0;-1.459864497E0;1.446664810E0
2.917116828E1;1.787019253E0;1.749825120E0;3.000646591E0
2.918920606E1;-3.610125184E-1;-3.244937897E0;-3.715009212E0
2.920724494E1;5.412098169E-1;3.139243603E0;-6.626691818E-1
2.922528345E1;5.421422124E-1;-5.993849039E-1;-1.806824684E0
2.924332209E1;9.672534466E-1;-5.144550800E0;1.193287849E0
2.926135791E1;9.109202623E-1;-8.541939855E-1;3.437386513E0
2.927941156E1;1.239696860E0;3.237808704E0;-3.588612556E0
2.929744721E1;1.553178549E0;5.660595894E-1;8.038406372E-1
2.931548304E1;1.261976480E0;-1.351442099E0;-5.096392155E0
2.933352613E1;1.569416046E0;3.938138008E0;9.563025475E0
2.935156366E1;1.733895063E0;2.453801870E0;-2.930008888E0
2.936960071E1;1.640414238E0;-1.312382936E0;-2.365379333E-1
2.938763880E1;8.139293194E-1;1.405151844E0;4.450701714E0
2.940567664E1;1.526710272E0;-4.020362854E0;-4.414131641E0
2.942371521E1;-5.136252046E-1;3.497844219E0;4.116775513E0
2.944175330E1;5.367866755E-1;-2.166770697E-1;-5.763154030E0
2.945979187E1;1.527880907E0;-3.797706842E0;5.690943718E0
2.947782966E1;1.786256313E0;2.600433350E0;3.604092598E0
2.949586609E1;1.553893089E0;2.401801348E-1;-7.829855919E0
2.951390357E1;9.697960615E-1;4.464272022E0;3.410326958E0
2.953194818E1;-3.089517355E-2;-3.254990578E0;-5.870806694E0
2.954998285E1;5.326744318E-1;1.940405369E-1;5.147589684E0
2.956802161E1;1.779854774E0;-6.055457592E-1;2.745599747E0
2.958605970E1;8.424909115E-1;3.805931091E0;-8.456809044E0
2.960409827E1;2.465265274E0;-3.281673908E0;3.731629372E0
2.962213605E1;2.377261400E0;-5.619674921E-1;1.058526611E1
2.964017462E1;4.713763595E-1;5.679187775E0;-6.695836544E0
2.965820227E1;5.433800817E-1;4.089937210E-1;-3.394828320E0
2.967625141E1;-5.640410781E-1;-4.913851261E0;1.638719559E0
2.969428913E1;7.206382751E-1;2.469459534E0;-2.541713238E0
2.971232776E1;1.986587048E-1;2.409210682E0;-1.812953949E0
2.973036481E1;1.284474730E0;-3.262712479E0;5.031991959E0
2.974840540E1;8.792585135E-1;1.499506712E0;-5.848512650E-1
2.976644226E1;7.861328125E-2;7.918336391E-1;-3.436511040E0
2.978448084E1;7.100836635E-1;-2.118352413E0;3.909619331E0
2.980251911E1;-9.376772046E-1;3.106627464E-1;-5.013845444E0
2.982055780E1;4.507844746E-1;-2.543753624E0;3.455055237E0
2.983859546E1;-7.496527433E-1;-9.201604128E-1;1.186852455E0
2.985663355E1;2.052637786E-1;5.466720104E0;-1.842014313E0
2.987466999E1;1.163060784E0;-1.040027738E0;6.191034317E-1
2.989271247E1;6.368480921E-1;-7.003816128E0;-2.574148178E-1
2.991073401E1;1.035749435E0;-1.982324958E0;6.855853081E0
2.992878870E1;1.045193911E0;-1.249935627E0;1.800502777E0
2.994682630E1;-2.022147179E-1;4.978605509E-1;-2.980146408E0
2.996486365E1;6.919047832E-1;1.206782937E0;-1.667212009E0
2.998290137E1;4.942801297E-1;-5.230519772E-1;-3.635025024E-2
3.000094037E1;4.873055816E-1;2.570048571E-1;-5.028439999E0
3.001897834E1;6.713889837E-1;-1.025804043E0;3.023330688E0
3.003701728E1;-1.124519408E-1;6.379960775E-1;3.250694275E-1
3.005504963E1;3.889133334E-1;-3.038056850E0;3.224705696E0
3.007309290E1;-9.038598537E-1;3.745257139E0;-1.268544197E0
3.009113141E1;6.660965085E-1;-4.326015711E-1;-1.870808125E0
3.010916986E1;-2.699728906E-1;-9.303101301E-1;1.026964188E0
3.012720777E1;4.269471169E-1;-1.107254505E0;3.439496040E0
3.014524622E1;4.399520457E-1;8.580561876E-1;-1.898769379E0
3.016328016E1;-2.255742550E-1;-6.379778385E-1;3.543440819E0
3.018132312E1;1.623664021E0;-1.034494519E0;3.850088120E-1
3.019935315E1;-5.408010632E-2;-3.948876858E-1;-7.467699051E-1
3.021739606E1;1.569584370E0;-2.098869085E-1;1.561223030E0
3.023544056E1;1.204876006E-1;-2.934395075E-1;-2.177137852E0
3.025347596E1;5.329600573E-1;5.875076056E-1;-2.308907509E0
3.027151392E1;-6.188290715E-1;2.230947018E0;-2.807139874E0
3.028954200E1;-8.925641775E-1;1.027441025E-2;-6.695741653E0
3.030759040E1;1.495789051E0;-6.739993095E0;1.382321262E1
3.032562903E1;1.234816074E0;3.083058596E-1;5.545505524E0
3.034366657E1;1.128862977E0;1.276536465E0;-5.749739170E0
3.036170520E1;-2.807858467E0;-3.513618708E-1;-1.940797329E0
3.037974378E1;1.660362005E0;-4.818696976E-1;8.109082222E0
3.039778186E1;-1.436985493E0;-3.561892033E0;3.763710976E0
3.041581940E1;-1.001298428E0;-2.461142540E0;2.502441406E-1
3.043384626E1;1.759869695E0;-1.025061989E1;1.851903152E1
3.045189539E1;-1.089023113E0;6.935248852E0;-4.884030819E0
3.046993592E1;3.562875390E-1;-1.068576097E0;-6.546834946E0
3.048797278E1;-4.286427975E0;1.277928352E-1;-6.959567547E0
3.050601136E1;-6.446428299E-1;2.073479891E-1;-3.744313240E0
3.052403766E1;-2.010884047E0;-1.959607363E0;-8.332331657E0
3.054208802E1;7.634234428E-2;9.213225365E0;-9.462265968E0
3.056012555E1;5.474577546E-1;-1.082775307E1;1.787775230E1
3.057815802E1;-2.084817171E0;7.629191399E0;7.056870461E0
3.059620252E1;-3.316291809E0;-1.709053802E1;-1.049775505E1
3.061424109E1;1.206410527E0;1.086876011E1;1.478199387E1
3.063227869E1;-1.113710046E0;-2.922728062E0;3.726587296E-1
3.065031720E1;-4.192211628E0;-1.999104023E0;-6.229413986E0
3.066834479E1;-1.096764565E0;1.676058531E0;-1.695504665E0
3.068639551E1;-1.302753806E0;-5.538332462E-2;-9.297143936E0
3.070443024E1;4.315962791E-1;-1.054485512E1;1.705550194E0
3.072247004E1;2.535398722E0;-3.544030190E-1;5.944356918E-1
3.074050836E1;5.513889194E-1;-3.119300365E0;-2.920053959E0
3.075854706E1;-4.886711836E-1;4.647974968E0;-4.604091644E-1
3.077658429E1;2.058328390E-1;-4.189949989E0;5.022947311E0
3.079461921E1;-1.901168585E0;-3.219447136E0;-1.770353317E0
3.081266510E1;1.919338942E0;1.521134472E1;-1.391877174E0
3.083069989E1;-1.225781202E0;-3.713195801E0;-7.363945484E0
3.084873682E1;1.277106524E0;5.339717388E0;7.327960968E0
3.086677680E1;1.563495874E0;-6.155282974E0;1.240837288E1
3.088481427E1;1.544010401E0;-3.906069279E0;-9.211359024E-1
3.090285248E1;3.721080303E0;-4.350240707E0;1.064296818E1
3.092088672E1;-1.133650541E0;3.077323437E-1;-9.405982018E0
3.093893274E1;4.414492249E-1;-5.440076828E0;4.324308395E0
3.095696717E1;-1.737297893E0;2.923819065E0;6.321202278E0
3.097500544E1;3.978340626E-1;5.593502998E0;-8.181909561E0
3.099304358E1;-1.446504593E-1;4.296776772E0;-1.983469486E0
3.101108191E1;6.278445721E-1;-1.257551908E-1;6.673416138E0
3.102911896E1;1.644807577E0;2.742590666E0;-6.019690990E0
3.104715979E1;1.533972740E0;-2.959580898E0;6.917156219E0
3.106519751E1;1.812667370E0;2.578349352E0;-1.184944153E0
3.108323023E1;1.700190425E0;-2.105506420E0;-2.716156006E0
3.110127271E1;-4.940362573E-1;1.187171102E0;9.717741013E-1
3.111930121E1;-4.514091015E-1;-1.245407939E0;-4.345634460E0
3.113734528E1;-3.062893152E-1;-4.146544456E0;4.375905037E0
3.115538746E1;1.451425433E0;-4.582725525E0;7.257639885E0
3.117342615E1;6.800168157E-1;7.961677313E-1;4.921395302E0
3.119146454E1;-4.750186503E-1;-4.595132828E0;-3.065637589E0
3.120950202E1;2.859294713E-1;5.985257149E0;-4.599278927E0
3.122754059E1;3.201874495E-1;-6.795547962E0;6.350883484E0
3.124557874E1;2.057642639E-1;4.246189117E0;-2.102594376E0
3.126361707E1;2.296407968E-1;-7.194935799E0;-3.512793541E0
3.128165461E1;-2.117615342E-1;-2.155337334E0;4.681669235E0
3.129969043E1;1.283273935E0;8.220226765E-1;-3.434768677E0
3.131773456E1;-2.802883387E0;-1.761404276E0;-1.076813698E1
3.133576990E1;2.772568941E0;-1.313459396E1;2.492932510E1
3.135380793E1;1.337032676E0;7.018652439E0;-3.157431602E0
3.137183796E1;-1.132064462E0;-8.740245819E0;-4.401979923E0
3.138988532E1;-9.364098310E-1;1.097152710E1;2.508239746E-1
3.140792206E1;4.052367687E0;2.010085106E0;-3.762957096E0
3.142596051E1;-2.444864511E0;3.494533539E0;-4.343316078E0
3.144399915E1;2.594973803E0;-6.797769070E-1;6.037644386E0
3.146203449E1;-2.166234970E0;-1.671853065E-1;-2.494555950E0
3.148007874E1;5.196433663E-1;-1.640470386E0;2.092229843E0
3.149810584E1;-1.557506442E0;2.373987913E0;-3.472187996E0
3.151615192E1;5.878088474E-1;-4.097623825E-1;2.343521118E0
3.153418610E1;-1.208276987E0;2.493238449E-1;1.534570694E0
3.155223261E1;4.286673963E-1;-3.723766804E0;9.177875519E-1
3.157026618E1;-1.009389997E0;8.559844017E0;-3.665449619E0
3.158830500E1;5.497193336E-1;-2.393758297E0;-2.326764107E0
3.160633924E1;-4.849948585E-1;1.440400004E0;4.435401917E0
3.162437848E1;1.300213337E0;2.420699596E-2;-1.267021179E0
3.164242225E1;3.617253900E-1;-3.467208624E0;4.121155739E0
3.166045758E1;1.628192961E-1;6.550593853E0;-5.654812813E0
3.167849598E1;9.310215712E-2;-3.522982359E0;-6.709179401E0
3.169653424E1;-1.787422419E0;-2.677568436E0;7.916946411E0
3.171456885E1;1.196694732E0;-4.513073444E0;1.567852020E0
3.173260138E1;-5.567348003E-2;1.924374819E0;-6.129391193E0
3.175063666E1;1.776294947E0;-5.020720959E-1;3.153474808E0
3.176868622E1;-9.379923344E-3;3.984260321E0;-7.766532898E-2
3.178672559E1;2.010455430E-1;-7.994179726E-1;-2.029238701E0
3.180476325E1;-1.549955964E0;-3.938548565E-1;2.364478111E0
3.182280170E1;-1.860597432E-1;2.511211634E-1;-4.994464874E0
3.184082135E1;-8.203812838E-1;-3.406472206E-1;1.139967918E1
3.185887635E1;-6.520941854E-1;6.484325886E0;-5.634595871E0
3.187691700E1;2.833653688E0;-8.428460121E0;4.334354401E-1
3.189495063E1;-2.103986502E0;1.138579655E1;-1.222369194E0
3.191299274E1;5.259584904E0;-8.820223808E0;4.461587906E0
3.193103028E1;-2.270017385E0;6.417280674E0;3.999355316E0
3.194905646E1;4.278953552E0;-1.957331181E0;-5.302143097E-1
3.196709888E1;-2.334870338E0;-1.106397629E0;1.402269363E0
3.198514502E1;1.694092751E0;5.922605515E0;-4.487566948E0
3.200317975E1;-8.315189481E-1;-3.098820686E0;-3.156777382E0
3.202122187E1;9.825434685E-1;2.083734035E0;9.546134949E0
3.203925977E1;-1.762917280E0;-4.413978577E0;-6.399897575E0
3.205729804E1;-1.006074905E0;9.719308615E-1;9.295444489E-1
3.207531836E1;-6.930851936E-2;-2.931650162E0;2.052226067E0
3.209337433E1;2.554925084E-1;-3.616993427E0;2.469438553E0
3.211141248E1;-5.656033754E-1;2.672939777E0;-2.976798534E0
3.212945111E1;6.857773066E-1;-8.494062424E0;3.899863243E0
3.214748828E1;-1.425176144E0;2.932735443E0;2.226858139E-1
3.216552723E1;-1.322785020E0;2.162870169E-1;-9.700259209E0
3.218356061E1;-7.434042692E-1;-6.609879017E0;5.580989838E0
3.220160358E1;-3.102822304E-1;4.567322254E0;5.493233681E0
3.221964118E1;1.770735025E0;-1.263024807E0;-5.063725471E0
3.223767627E1;-3.438637555E-1;2.292315960E0;6.369520187E0
3.225572138E1;3.329643011E-1;3.679299355E0;-4.369780064E0
3.227375367E1;-1.535006762E0;-2.767204762E0;-3.599376678E0
3.229178272E1;5.605728626E-1;3.793348789E0;3.426070213E0
3.230982380E1;-9.743261337E-1;-8.405489922E-1;-4.435181618E0
3.232787067E1;-1.130010962E0;5.909835100E-1;9.036140442E-1
3.234590930E1;-7.993705273E-1;-4.245655537E0;3.572587013E0
3.236394684E1;-3.037011623E-1;5.625318050E0;-2.389121056E0
3.238198517E1;-5.070103407E-1;-3.485117197E0;-1.413647652E0
3.240002350E1;-1.707866192E0;-2.512222767E0;3.653361320E0
3.241806165E1;1.526153922E0;-3.257178068E-1;3.049610138E0
3.243609943E1;-5.871070623E-1;-5.026565790E-1;-3.209965706E0
3.245412946E1;1.029655933E0;7.491563559E-1;1.234144211E0
3.247217316E1;5.797836185E-1;-8.708539605E-1;-6.566762924E-1
3.249021772E1;-9.608530998E-2;-3.516970634E0;-1.767007351E0
3.250825226E1;3.057668209E0;-3.149381638E0;1.914878082E1
3.252629102E1;-1.599248171E0;9.648302078E0;-8.643445969E0
3.254431732E1;1.384156466E0;-3.788598776E-1;-1.106695747E1
3.256236725E1;7.334682345E-1;1.197220087E-1;5.134639740E0
3.258040485E1;2.598706722E0;-9.585826397E-1;-3.637695312E-2
3.259844342E1;4.450625181E-1;7.792179585E-1;-8.488569260E-1
3.261647846E1;-6.841470599E-1;-7.977035046E-1;-2.178878784E-1
3.263451056E1;-1.306799531E0;4.023054123E0;-6.838879585E0
3.265254492E1;6.173950434E-2;-3.488852024E0;-2.356554508E0
3.267058472E1;-5.943767428E-1;1.525997758E0;3.237698555E0
3.268863166E1;7.861186266E-1;-4.731786728E0;-1.771141529E0
3.270666132E1;-2.889853120E-1;5.376978874E0;-5.054855347E-1
3.272470032E1;1.437952518E0;1.545233250E0;2.769915581E0
3.274273749E1;-2.475819826E0;1.918607473E0;-5.475587368E0
3.276077533E1;1.627830029E0;-1.094234180E1;4.800688744E0
3.277881348E1;-2.575029731E-1;5.773694515E0;-1.764768124E0
3.279685205E1;2.750967026E0;-2.223960161E-1;-3.567924500E0
3.281489057E1;-2.682305574E0;1.938042641E-1;-8.011495590E0
3.283294233E1;2.365786076E0;-7.222871780E0;1.785057831E1
3.285097779E1;9.644958973E-1;2.435390472E0;-3.091235161E0
3.286901557E1;3.515284300E0;2.770860195E0;-3.815426826E0
3.288705402E1;-1.610727429E0;-2.049755096E0;5.543296814E0
3.290509211E1;2.099565268E-1;3.641437054E0;-5.467971325E0
3.292312677E1;-1.146339178E-1;-5.152844191E-1;4.192918777E0
3.294116822E1;-9.138559103E-1;8.186063766E-1;-3.083610535E-1
3.295920502E1;3.873891532E-1;-9.377123117E-1;-3.177506447E0
3.297724475E1;-4.645149410E-1;-5.692215443E0;6.705044746E0
3.299528327E1;8.134886622E-2;9.580422640E-1;5.073471069E-1
3.301331446E1;9.332259893E-1;-4.159704685E0;-1.651442528E0
3.303135926E1;-1.672846317E0;-2.755100727E-1;-2.947134972E0
3.304939752E1;1.118381977E0;2.072437763E0;-3.349810123E0
3.306743592E1;-5.591908097E-1;-1.316237450E-1;3.529675484E0
3.308546247E1;2.277418077E-1;-1.842900157E0;1.429016113E0
3.310351209E1;-1.621246934E0;-1.208809257E0;-2.679490566E0
3.312155011E1;-5.485231280E-1;2.148666859E0;1.854009628E0
3.313958844E1;-8.775636554E-1;-2.987297058E0;-4.942255020E-1
3.315761554E1;1.379262805E-1;2.217029095E0;1.890772820E0
3.317566046E1;1.001789570E-1;-1.942697048E0;-1.366473198E0
3.319370417E1;-6.288616657E-1;-8.090817928E-1;1.903180122E0
3.321174372E1;-3.091367781E-1;3.576918125E0;-4.284198761E0
3.322977869E1;4.628599882E-1;-7.215065002E0;7.290169716E0
3.324781720E1;-1.602567911E0;6.636456490E0;-6.933939934E0
3.326585529E1;2.895158291E0;-4.109907150E0;-1.839716434E0
3.328389374E1;-1.307412624E0;1.168114901E0;-1.537327766E0
3.330193146E1;1.268613577E0;-6.010488510E0;-1.563756943E0
3.331997028E1;-1.295177221E0;2.532290459E0;-8.043308258E-1
3.333800739E1;-3.845942020E-1;-2.616629601E0;5.214309692E-1
3.335604627E1;-7.808859348E-1;-4.282503128E0;6.923141479E-1
3.337408399E1;-5.865050554E-1;-6.328264475E-1;-2.179377556E0
3.339211902E1;1.271240234E0;-9.064328194E0;9.237520218E0
3.341015784E1;3.008885980E-1;7.977543831E0;-3.681212902E0
3.342820172E1;1.541285157E0;-2.949537516E0;-6.957402229E0
3.344623658E1;-8.176423311E-1;3.256691933E0;7.669185638E0
3.346427497E1;1.536440849E-2;-1.036624193E0;-3.945535660E0
3.348231318E1;-1.424319267E0;6.681730747E0;1.960600853E0
3.350035157E1;-5.076803565E-1;-9.328406334E0;2.107915878E-1
3.351838898E1;-9.284693003E-1;1.098663616E1;-1.426078796E0
3.353642737E1;1.556485891E0;-8.434804916E0;2.000434875E0
3.355446472E1;-2.336856842E0;3.909465790E0;1.130024910E0
3.357250538E1;2.459670067E0;-1.715728760E0;1.675330162E0
3.359054163E1;-1.407129884E0;4.519006014E-1;-1.694346905E0
3.360858014E1;8.201011419E-1;-3.717651844E0;-2.436197758E0
3.362660090E1;-1.625403643E0;2.115311623E0;2.414021492E0
3.364465546E1;1.942850113E0;-2.071689129E0;-1.229579926E0
3.366269581E1;-2.702566624E0;-1.127140403E0;3.462808609E0
3.368073273E1;1.061454058E0;-1.474306107E0;9.678516388E-1
3.369876972E1;-6.603745818E-1;-1.022782087E0;-2.775990963E0
3.371681055E1;-1.746763289E-1;4.696831703E-1;4.163762093E0
3.373484699E1;-4.257615805E-1;-5.710554123E0;-2.340426922E0
3.375288538E1;-1.457806587E0;4.981167793E0;-2.703355312E0
3.377092359E1;1.203864217E0;-4.529115200E0;-1.218665123E0
3.378896204E1;-1.629979849E0;1.021788120E-1;-3.798503876E-1
3.380699958E1;-3.907070756E-1;-1.001711965E0;-1.615444183E0
3.382503821E1;2.187644839E-1;-6.129496098E0;9.139866829E0
3.384307624E1;-5.357181430E-1;7.268069744E0;-4.689979553E0
3.386111469E1;1.237001181E0;-5.504305363E0;-5.627784729E0
3.387914930E1;-6.744399071E-1;-5.495581627E-1;6.513544083E0
3.389719348E1;9.837990999E-1;7.255839109E-1;-4.243337631E0
3.391522913E1;4.854476452E-2;-1.604725003E0;5.371840477E0
3.393326349E1;1.454387307E0;2.994719267E0;1.331295967E0
3.395130506E1;-1.926547766E0;3.042831898E0;-6.714030266E0
3.396934339E1;1.967829943E0;-6.500999451E0;1.045392609E1
3.398736335E1;-1.211806417E0;1.605896711E0;1.139233589E0
3.400542487E1;2.104420662E0;-5.618102074E0;-1.812198639E0
3.402345490E1;-3.564066172E0;3.402994871E0;-1.846895218E-1
3.404149591E1;1.994251490E0;3.221497536E-1;-7.351045609E-1
3.405953717E1;-1.185029745E-1;-2.186179638E0;6.735746384E0
3.407757264E1;1.134070158E-1;6.909453869E-1;3.919382095E-1
3.409560041E1;-9.158881903E-1;3.531272888E0;-4.833293915E0
3.411364441E1;1.275253773E0;2.111896038E0;-5.956869125E-1
3.413169117E1;-1.925311983E-1;-6.807561398E0;3.165745735E0
3.414972528E1;-5.373960137E-1;2.080378056E0;4.554042816E-1
3.416776294E1;1.154476285E0;-3.634578228E0;-3.054828644E-1
3.418580164E1;-1.235290527E0;3.498599052E0;-2.655174255E0
3.420383942E1;2.311621666E0;-7.200228691E0;8.921766281E-1
3.422187806E1;1.218110323E-1;-2.907847166E-1;8.395559311E0
3.423991535E1;-5.982254744E-1;1.816602945E-1;-8.246502876E0
3.425794953E1;5.803074837E-1;9.110882282E-1;-5.719193935E0
3.427599665E1;6.409690976E-1;-2.006293774E0;1.093762875E1
3.429403070E1;-2.055049419E0;-3.723499775E-1;-7.196573257E0
3.431206836E1;-7.242507935E-1;-3.208116055E0;-6.992568970E-1
3.433009314E1;-2.269940853E0;3.493232727E0;-1.234866142E0
3.434814374E1;1.979385495E0;-3.696297646E0;-5.342302322E-1
3.436618482E1;-2.048696518E0;-4.464083910E-1;4.291543007E0
3.438422126E1;-1.618035138E-1;-2.545938492E0;5.619506836E-1
3.440225940E1;6.703075767E-1;1.449807882E-1;-1.714076042E0
3.442029767E1;-1.252168298E0;3.668723106E0;-7.580141068E0
3.443833625E1;1.310761690E0;-2.289397240E0;8.709136963E0
3.445637354E1;-5.781986117E-1;-5.210228920E0;3.066601753E0
3.447440955E1;9.143680930E-1;3.956920624E0;-3.142559528E0
3.449245319E1;2.696920156E0;-3.170416355E0;5.218523979E0
3.451048896E1;-9.276714325E-1;3.675030231E0;-5.210231304E0
3.452852643E1;1.492673874E0;-2.752172947E0;5.258522034E-1
3.454656476E1;-2.479120255E0;-2.474301815E0;3.536855698E0
3.456458826E1;8.745109439E-1;9.937427044E-1;2.555801392E0
3.458263868E1;-3.086031377E-1;2.888215780E-1;-5.510995388E0
3.460068226E1;-2.003068030E-1;-8.509945273E-1;1.157128334E0
3.461871656E1;-3.776339591E-1;-2.186117172E0;2.927635193E0
3.463675654E1;-1.324530244E-1;-1.704259753E0;3.607759476E-1
3.465479425E1;-2.093052268E-1;1.764841080E-1;-1.801508904E0
3.467283191E1;-1.311637640E0;-2.703157663E-1;-1.202320099E0
3.469087036E1;-1.008008838E0;-1.041607666E1;9.137111664E0
3.470890839E1;-1.336845398E0;4.654118538E0;-3.269699097E0
3.472694385E1;1.527070999E0;-1.739953637E0;-9.580879211E-1
3.474498774E1;-1.044934869E0;-6.806330681E-1;3.794296265E0
3.476302301E1;4.736577272E-1;3.698176146E-1;-4.367272854E0
3.478106153E1;-1.242414474E0;-8.679026365E-1;3.887614250E0
3.479908985E1;4.709398746E-1;1.917951584E0;-2.919429779E0
3.481713538E1;1.155967712E-1;-2.400766611E0;2.911499977E0
3.483517865E1;-1.549027443E0;2.795590401E0;-1.828657627E0
3.485321051E1;-6.782078743E-2;1.708846092E-1;-3.548877716E0
3.487125238E1;-1.314275503E0;-3.096526146E0;5.493936539E0
3.488929010E1;-1.596587777E0;5.762636662E-2;-3.613514900E0
3.490732868E1;-9.242432714E-1;1.692671776E0;2.049942017E0
3.492536676E1;-1.061915040E0;5.551874638E-1;-2.792968273E0
3.494340497E1;1.396517754E-1;-1.786958575E0;4.203162193E0
3.496144251E1;-5.061620474E-1;2.633669853E0;-1.631937027E0
3.497948169E1;-3.849755228E-1;-3.152344227E0;-1.149196625E0
3.499751935E1;-5.832773447E-1;1.150340438E0;-1.139545441E-1
3.501555774E1;1.335032701E0;-3.946005821E0;6.024208069E0
3.503358356E1;-7.290293574E-1;1.620457888E0;1.293354034E-1
3.505163098E1;6.880100965E-1;-3.044125795E0;-4.088298321E0
3.506967511E1;1.008172035E0;1.230460763E0;5.880126953E0
3.508771058E1;-3.453396857E-1;1.645692587E-1;-2.160085201E0
3.510574830E1;5.950939655E-2;1.141354322E0;-5.920890808E0
3.512378681E1;1.423569560E0;-5.906603336E0;6.043215752E0
3.514182496E1;3.466969132E-1;-9.954075813E-1;-5.058253765E0
3.515986347E1;1.841155767E0;-1.827688694E0;3.052320480E0
3.517789765E1;8.959322572E-1;4.772368670E-1;3.965222359E0
3.519593958E1;1.041504741E-2;-4.212315083E-1;-6.012098789E0
3.521397785E1;1.417898834E-1;-9.133815765E-2;1.998895645E0
3.523201630E1;-4.012729228E-1;-1.091097355E0;-3.211927414E-1
3.525005408E1;9.900560379E-1;1.549936652E0;3.186759949E-1
3.526808875E1;3.496758342E-1;-5.161760330E0;4.798705101E0
3.528613068E1;1.592487097E-3;4.458653450E0;-2.379987717E0
3.530416901E1;2.385009050E0;-5.871632099E-1;-8.549261093E-1
3.532220661E1;9.173926711E-2;-1.505429268E0;3.918787956E0
3.534024518E1;1.992361248E-1;9.776157141E-1;-7.425923347E0
3.535828333E1;1.289904237E0;-3.181818485E0;6.687442780E0
3.537632166E1;8.664810658E-1;3.256878376E0;2.969814301E0
3.539435779E1;1.684004188E0;-6.176137924E-1;-5.790926933E0
3.541238324E1;7.280406952E-1;-2.060495615E0;7.153406143E0
3.543043421E1;1.536918283E0;1.775509000E0;-6.097936630E-1
3.544847596E1;-2.399851084E-1;3.791615963E-1;-6.301598072E0
3.546651203E1;-2.350997925E-2;-7.456477165E0;1.020946503E1
3.548455091E1;-6.377794147E-1;6.099664211E0;-2.692648411E0
3.550258893E1;2.504527807E0;-2.042289734E0;-2.744935513E0
3.552062738E1;-7.303943038E-1;8.226548433E-1;1.911131859E0
3.553866388E1;1.470511675E0;-3.366379499E0;-2.695087433E0
3.555670435E1;-6.717740297E-1;-6.751958132E-1;1.779194832E0
3.557474152E1;4.443337321E-1;-2.124555588E0;2.003089905E0
3.559278046E1;-1.805172563E0;-8.958451748E-1;-3.606980324E0
3.561081763E1;1.298635364E0;-2.320632935E0;4.995133400E0
3.562885492E1;-1.662661791E0;9.936074018E-1;-4.510206699E0
3.564688361E1;1.106122136E0;-1.478091240E0;9.308071136E-1
3.566492908E1;-5.618562102E-1;-1.213728428E0;1.559324265E0
3.568297412E1;1.191628933E0;3.223648071E0;-1.685857773E0
3.570100892E1;4.870192707E-1;-1.107456684E0;-4.332304001E-1
3.571902838E1;2.281203568E-1;1.690733194E0;5.300245285E-1
3.573708558E1;4.826897681E-1;5.161905289E-2;-2.935762405E0
3.575512311E1;6.525015831E-2;-4.267005920E0;8.175670624E0
3.577315821E1;-5.000981688E-2;2.619835854E0;6.904602051E-1
3.579119989E1;-1.122640133E0;8.282338381E-1;-6.530921459E0
3.580923835E1;-8.204727769E-1;-3.124068737E0;3.396319389E0
3.582727600E1;-4.282685518E-1;6.951893568E-1;-9.099788666E-1
3.584530256E1;1.564090848E-1;4.818063974E-1;1.580959320E0
3.586335260E1;8.144671917E-1;-3.591565847E0;4.441812515E0
3.588139081E1;-5.331555605E-1;5.546969414E0;-4.665482998E0
3.589942487E1;1.182175398E0;-3.572180748E0;-4.485664368E-1
3.591747101E1;3.949211836E-1;1.364574432E-1;4.866991997E0
3.593550501E1;3.097606003E-1;8.115240335E-1;-4.484549046E0
3.595353888E1;4.535149336E-1;-8.891178370E-1;9.142980576E-1
3.597158130E1;6.375559568E-1;3.249112606E0;-7.412891388E-1
3.598961975E1;1.132397890E0;-2.969378233E0;4.335428238E0
3.600765808E1;8.139113784E-1;-1.719583988E0;8.702611923E-1
3.602569641E1;1.234242916E0;-1.383895159E0;-3.692047596E0
3.604373114E1;5.776146054E-1;-1.948420286E0;4.305262566E0
3.606177552E1;6.698917150E-1;-3.090413570E0;-3.143061638E0
3.607981092E1;4.958710074E-2;3.765527248E0;6.222200394E-1
3.609784900E1;6.320438385E-1;-4.416647434E0;-2.871236801E-1
3.611587775E1;-9.806165695E-1;1.998670220E0;-2.103900909E-2
3.613392316E1;1.385061145E-1;-1.052058697E0;-1.301438332E0
3.615196564E1;-1.324955672E-1;6.399232864E0;-4.166795254E0
3.617000183E1;1.350430369E0;-7.963160515E0;8.415685654E0
3.618803937E1;-8.217591047E-1;3.310948610E0;-8.971509933E-1
3.620607795E1;3.354492426E0;-1.584574699E0;-1.713504791E-1
3.622411609E1;-1.072359204E0;1.837128162E0;-1.477296829E0
3.624215241E1;3.371982813E0;-5.776915550E0;4.857955933E0
3.626019501E1;-2.101401091E0;6.989728451E0;-6.497650146E0
3.627823395E1;3.992583752E0;-1.172473669E0;-4.053355217E0
3.629626807E1;-2.749306917E0;2.844238281E0;-4.450731754E0
3.631430725E1;3.089983225E0;-1.297491741E1;1.220296001E1
3.633234473E1;6.481308341E-1;1.115711308E1;-4.229993343E0
3.635038153E1;-3.887147307E-1;-8.386899948E0;-3.850776196E0
3.636841980E1;-1.565285802E0;4.195310593E0;4.307329178E0
3.638646143E1;4.695014477E0;-2.517365932E0;4.684630394E0
3.640449762E1;-3.399102211E0;-3.118137360E0;-5.165233612E0
3.642253601E1;2.760247469E0;3.452168703E-1;5.180474281E0
3.644057404E1;-3.470803499E-1;-3.295534134E0;-1.530788422E0
3.645861231E1;-3.823664188E-1;2.211324692E0;-5.033146858E0
3.647665003E1;4.638628960E-1;-9.568989754E0;8.195698738E0
3.649468982E1;-6.736725569E-1;3.960766792E-1;2.404732704E0
3.651272559E1;1.358750612E-1;-1.855300307E0;-3.655720234E0
3.653076624E1;-1.586331367E0;3.303184509E0;-1.236511230E0
3.654880286E1;2.196492195E0;-2.122998238E-3;4.109709740E0
3.656684137E1;-2.469026804E0;-7.026270866E0;-8.850587845E0
3.658487122E1;2.972578764E0;3.289144516E0;7.955281258E0
3.660291706E1;-2.296703577E0;-3.421614170E0;-5.537127972E0
3.662095612E1;-1.451173067E0;8.366986513E-1;-3.008659363E0
3.663899054E1;-2.520259917E-1;5.474260807E0;4.815282822E-1
3.665703180E1;-4.949669838E-1;-5.896892548E0;-1.796827316E0
3.667507044E1;-1.305056572E0;1.279350519E-1;7.374017715E0
3.669310846E1;-1.441514492E-2;3.011754513E0;-6.698717117E0
3.671114630E1;-3.411594331E-1;-1.840161681E0;2.165422440E-1
3.672918439E1;-3.671555519E-1;-3.765524864E0;-2.769889832E-1
3.674722236E1;-5.266852379E-1;1.482775211E-1;-7.544746399E-1
3.676526148E1;1.036272645E0;-2.516957521E-1;6.624473572E0
3.678329523E1;3.315049708E-1;2.123258114E0;-4.892187119E0
3.680133722E1;1.034441590E0;5.199834347E0;-2.258090496E0
3.681936438E1;1.754065990E0;-4.059310913E0;8.181945801E0
3.683741089E1;-1.087130189E0;4.542447329E-1;-4.982025623E0
3.685545349E1;1.163202524E0;-1.931483269E0;-2.862353802E0
3.687348957E1;7.870273590E-1;-1.947898388E0;3.996016502E0
