"Time (s)","Gyroscope x (rad/s)","Gyroscope y (rad/s)","Gyroscope z (rad/s)"
3.897095790E-1,1.695251465E-2,2.424621582E-2,2.203369141E-2
3.947449790E-1,1.695251465E-2,2.258300781E-2,2.143859863E-2
3.997803790E-1,1.643371582E-2,2.258300781E-2,2.252197266E-2
4.048157800E-1,1.481628418E-2,2.311706543E-2,2.226257324E-2
4.098511800E-1,1.509094238E-2,2.471923828E-2,1.905822754E-2
4.148865810E-1,1.588439941E-2,2.412414551E-2,1.876831055E-2
4.199219810E-1,1.556396484E-2,2.226257324E-2,1.831054688E-2
4.249573810E-1,1.351928711E-2,2.151489258E-2,1.971435547E-2
4.299927820E-1,9.201049805E-3,2.250671387E-2,2.119445801E-2
4.350281820E-1,5.920410156E-3,2.401733398E-2,2.119445801E-2
4.400635820E-1,4.837036133E-3,2.076721191E-2,2.084350586E-2
4.450989830E-1,3.387451172E-3,1.611328125E-2,2.012634277E-2
4.501343830E-1,1.220703125E-3,1.480102539E-2,2.052307129E-2
4.551697840E-1,-1.312255859E-3,1.655578613E-2,2.081298828E-2
4.602051840E-1,-4.562377930E-3,1.844787598E-2,2.012634277E-2
4.652405840E-1,-6.546020508E-3,2.044677734E-2,2.055358887E-2
4.702759850E-1,-5.691528320E-3,1.913452148E-2,2.206420898E-2
4.753113850E-1,-3.524780273E-3,1.010131836E-2,2.378845215E-2
4.803467860E-1,-4.119873047E-3,4.730224609E-3,2.394104004E-2
4.853821860E-1,-9.384155273E-3,2.355957031E-2,2.145385742E-2
4.904175860E-1,-1.344299316E-2,4.548645020E-2,1.954650879E-2
4.954529870E-1,-1.254272461E-2,4.301452637E-2,2.113342285E-2
5.004883870E-1,-8.300781250E-3,2.056884766E-2,2.378845215E-2
5.055237880E-1,-6.515502930E-3,3.479003906E-3,2.650451660E-2
5.105591880E-1,-9.231567383E-3,6.057739258E-3,2.760314941E-2
5.155945880E-1,-1.303100586E-2,2.342224121E-2,2.650451660E-2
5.206299890E-1,-1.509094238E-2,3.269958496E-2,2.435302734E-2
5.256653890E-1,-1.336669922E-2,2.354431152E-2,2.333068848E-2
5.307007900E-1,-1.013183594E-2,9.719848633E-3,2.333068848E-2
5.357361900E-1,-7.492065430E-3,4.425048828E-3,2.273559570E-2
5.407715900E-1,-8.377075195E-3,5.630493164E-3,2.105712891E-2
5.458069910E-1,-1.162719727E-2,1.028442383E-2,1.889038086E-2
5.508423910E-1,-1.168823242E-2,1.168823242E-2,1.736450195E-2
5.558777910E-1,-9.521484375E-3,6.256103516E-3,1.692199707E-2
5.609131920E-1,-8.026123047E-3,2.014160156E-3,1.692199707E-2
5.659485920E-1,-6.256103516E-3,4.623413086E-3,1.625061035E-2
5.709839930E-1,-8.270263672E-3,1.489257812E-2,1.585388184E-2
5.760193930E-1,-1.046752930E-2,2.290344238E-2,1.515197754E-2
5.810547930E-1,-8.666992188E-3,2.110290527E-2,1.406860352E-2
5.860901940E-1,-5.416870117E-3,7.629394531E-3,1.225280762E-2
5.911255940E-1,-1.434326172E-3,-4.440307617E-3,1.084899902E-2
5.961609950E-1,6.103515625E-4,-2.044677734E-3,8.255004883E-3
6.011963950E-1,-1.373291016E-3,1.011657715E-2,5.020141602E-3
6.062317950E-1,-5.401611328E-3,1.637268066E-2,2.548217773E-3
6.112671960E-1,-5.752563477E-3,1.005554199E-2,1.174926758E-3
6.163025960E-1,-2.258300781E-3,-5.294799805E-3,1.068115234E-4
6.213379970E-1,-3.967285156E-4,-1.028442383E-2,1.480102539E-3
6.263733970E-1,-1.815795898E-3,-3.051757812E-3,1.144409180E-3
6.314087970E-1,-5.645751953E-3,5.798339844E-3,6.103515625E-5
6.364441980E-1,-9.109497070E-3,1.017761230E-2,-1.861572266E-3
6.414795980E-1,-8.895874023E-3,9.963989258E-3,-1.434326172E-3
6.465149980E-1,-7.812500000E-3,6.240844727E-3,-2.105712891E-3
6.515503990E-1,-5.844116211E-3,1.022338867E-3,-1.403808594E-3
6.565857990E-1,-5.477905273E-3,-4.379272461E-3,-2.136230469E-3
6.616212000E-1,-5.477905273E-3,-9.780883789E-3,-3.219604492E-3
6.666566000E-1,-9.201049805E-3,-9.613037109E-3,-4.287719727E-3
6.716920000E-1,-1.353454590E-2,-3.051757812E-5,-4.440307617E-3
6.767274010E-1,-1.690673828E-2,7.904052734E-3,-6.347656250E-3
6.817628010E-1,-1.626586914E-2,5.798339844E-3,-6.576538086E-3
6.867982020E-1,-1.615905762E-2,-2.319335938E-3,-5.599975586E-3
6.918336020E-1,-1.615905762E-2,-1.101684570E-2,-6.500244141E-3
6.968690020E-1,-1.615905762E-2,-9.597778320E-3,-4.562377930E-3
7.019044030E-1,-1.921081543E-2,6.866455078E-4,-3.417968750E-3
7.069398030E-1,-1.936340332E-2,-1.876831055E-3,-3.372192383E-3
7.119752040E-1,-1.625061035E-2,-1.553344727E-2,-4.409790039E-3
7.170106040E-1,-1.510620117E-2,-2.009582520E-2,-3.372192383E-3
7.220460040E-1,-1.615905762E-2,-1.373291016E-2,-4.440307617E-3
7.270814050E-1,-2.046203613E-2,-6.210327148E-3,-7.675170898E-3
7.321168050E-1,-2.255249023E-2,-2.090454102E-3,-1.086425781E-2
7.371522060E-1,-2.146911621E-2,-6.423950195E-3,-1.191711426E-2
7.421876060E-1,-2.043151855E-2,-1.052856445E-2,-1.200866699E-2
7.472230060E-1,-2.043151855E-2,-1.034545898E-2,-1.411437988E-2
7.522584070E-1,-2.035522461E-2,-7.095336914E-3,-1.519775391E-2
7.572938070E-1,-1.899719238E-2,-4.409790039E-3,-1.618957520E-2
7.623292070E-1,-1.499938965E-2,-7.858276367E-3,-1.649475098E-2
7.673646080E-1,-1.391601562E-2,-1.278686523E-2,-1.927185059E-2
7.724000080E-1,-1.309204102E-2,-1.283264160E-2,-1.844787598E-2
7.774354090E-1,-1.417541504E-2,-5.020141602E-3,-1.980590820E-2
7.824708090E-1,-1.524353027E-2,3.494262695E-3,-2.259826660E-2
7.875062090E-1,-1.600646973E-2,3.265380859E-3,-2.275085449E-2
7.925416100E-1,-1.457214355E-2,-5.004882812E-3,-2.330017090E-2
7.975770100E-1,-1.152038574E-2,-1.518249512E-2,-2.153015137E-2
8.026124110E-1,-9.963989258E-3,-1.574707031E-2,-2.172851562E-2
8.076478110E-1,-1.144409180E-2,-8.895874023E-3,-2.299499512E-2
8.126832110E-1,-1.379394531E-2,-1.754760742E-3,-2.473449707E-2
8.177186120E-1,-1.199340820E-2,-2.868652344E-3,-2.449035645E-2
8.227540120E-1,-7.919311523E-3,-1.176452637E-2,-2.314758301E-2
8.277894130E-1,-5.752563477E-3,-1.934814453E-2,-2.125549316E-2
8.328248130E-1,-6.546020508E-3,-1.760864258E-2,-2.101135254E-2
8.378602130E-1,-6.546020508E-3,-7.583618164E-3,-2.346801758E-2
8.428956140E-1,-6.240844727E-3,-4.730224609E-4,-2.548217773E-2
8.479310140E-1,-3.875732422E-3,-5.523681641E-3,-2.537536621E-2
8.529664150E-1,2.197265625E-3,-1.675415039E-2,-2.719116211E-2
8.580018150E-1,7.675170898E-3,-2.232360840E-2,-2.827453613E-2
8.630372150E-1,8.041381836E-3,-1.696777344E-2,-2.970886230E-2
8.680726160E-1,6.958007812E-3,-8.331298828E-3,-3.076171875E-2
8.731080160E-1,6.637573242E-3,-6.027221680E-3,-2.969360352E-2
8.781434160E-1,8.514404297E-3,-1.261901855E-2,-2.821350098E-2
8.831788170E-1,1.135253906E-2,-2.044677734E-2,-2.645874023E-2
8.882142170E-1,1.268005371E-2,-2.359008789E-2,-2.621459961E-2
8.932496180E-1,1.223754883E-2,-1.925659180E-2,-2.687072754E-2
8.982850180E-1,1.115417480E-2,-1.080322266E-2,-2.731323242E-2
9.033204180E-1,1.007080078E-2,-4.730224609E-3,-2.746582031E-2
9.083558190E-1,1.087951660E-2,-4.119873047E-3,-2.592468262E-2
9.133912190E-1,1.364135742E-2,-6.072998047E-3,-2.569580078E-2
9.184266200E-1,1.580810547E-2,-1.039123535E-2,-2.636718750E-2
9.234620200E-1,1.695251465E-2,-1.318359375E-2,-2.630615234E-2
9.284974200E-1,1.747131348E-2,-1.269531250E-2,-2.633666992E-2
9.335328210E-1,2.014160156E-2,-1.159667969E-2,-2.526855469E-2
9.385682210E-1,2.337646484E-2,-1.159667969E-2,-2.418518066E-2
9.436036220E-1,2.330017090E-2,-9.368896484E-3,-2.310180664E-2
9.486390220E-1,2.114868164E-2,-5.050659180E-3,-2.316284180E-2
9.536744220E-1,1.898193359E-2,-1.312255859E-3,-2.366638184E-2
9.587098230E-1,1.861572266E-2,1.525878906E-4,-2.305603027E-2
9.637452230E-1,2.029418945E-2,-2.288818359E-3,-2.015686035E-2
9.687806230E-1,2.059936523E-2,-5.996704102E-3,-1.707458496E-2
9.738160240E-1,2.078247070E-2,-5.432128906E-3,-1.618957520E-2
9.788514240E-1,2.056884766E-2,-2.593994141E-4,-1.425170898E-2
9.838868250E-1,1.948547363E-2,6.240844727E-3,-1.298522949E-2
9.889222250E-1,1.705932617E-2,8.010864258E-3,-1.229858398E-2
9.939576250E-1,1.657104492E-2,6.240844727E-3,-1.121520996E-2
9.989930260E-1,1.904296875E-2,3.387451172E-3,-9.445190430E-3
1.004028426E0,2.157592773E-2,3.707885742E-3,-7.995605469E-3
1.009063827E0,2.229309082E-2,8.026123047E-3,-6.912231445E-3
1.014099227E0,2.229309082E-2,6.820678711E-3,-5.828857422E-3
1.019134627E0,2.377319336E-2,-4.882812500E-4,-5.508422852E-3
1.024170028E0,2.442932129E-2,-6.103515625E-3,-5.508422852E-3
1.029205428E0,2.442932129E-2,-4.241943359E-3,-6.271362305E-3
1.034240829E0,2.284240723E-2,4.013061523E-3,-7.354736328E-3
1.039276229E0,1.988220215E-2,8.956909180E-3,-1.004028320E-2
1.044311629E0,1.989746094E-2,7.324218750E-3,-1.165771484E-2
1.049347030E0,2.098083496E-2,-4.577636719E-5,-1.356506348E-2
1.054382430E0,2.038574219E-2,-9.536743164E-3,-1.487731934E-2
1.059417831E0,1.930236816E-2,-1.075744629E-2,-1.512145996E-2
1.064453231E0,1.647949219E-2,-5.340576172E-3,-1.512145996E-2
1.069488631E0,1.324462891E-2,-6.103515625E-4,-1.599121094E-2
1.074524032E0,1.177978516E-2,-7.476806641E-4,-1.618957520E-2
1.079559432E0,1.161193848E-2,-4.547119141E-3,-1.618957520E-2
1.084594832E0,1.344299316E-2,-1.252746582E-2,-1.251220703E-2
1.089630233E0,1.652526855E-2,-1.652526855E-2,-1.283264160E-2
1.094665633E0,1.600646973E-2,-1.506042480E-2,-1.391601562E-2
1.099701034E0,1.588439941E-2,-9.109497070E-3,-1.214599609E-2
1.104736434E0,1.780700684E-2,-8.392333984E-3,-1.191711426E-2
1.109771834E0,2.090454102E-2,-9.368896484E-3,-9.979248047E-3
1.114807235E0,2.319335938E-2,-1.243591309E-2,-1.075744629E-2
1.119842635E0,2.336120605E-2,-1.467895508E-2,-1.184082031E-2
1.124878036E0,2.539062500E-2,-1.582336426E-2,-1.191711426E-2
1.129913436E0,2.651977539E-2,-1.586914062E-2,-1.293945312E-2
1.134948836E0,2.967834473E-2,-2.005004883E-2,-1.193237305E-2
1.139984237E0,3.082275391E-2,-1.908874512E-2,-1.296997070E-2
1.145019637E0,3.083801270E-2,-1.266479492E-2,-1.512145996E-2
1.150055038E0,3.300476074E-2,-9.536743164E-3,-1.725769043E-2
1.155090438E0,3.627014160E-2,-1.504516602E-2,-1.715087891E-2
1.160125838E0,4.052734375E-2,-2.465820312E-2,-1.293945312E-2
1.165161239E0,4.258728027E-2,-3.062438965E-2,-1.191711426E-2
1.170196639E0,4.244995117E-2,-2.597045898E-2,-1.197814941E-2
1.175232040E0,4.028320312E-2,-1.647949219E-2,-1.289367676E-2
1.180267440E0,3.820800781E-2,-1.127624512E-2,-1.210021973E-2
1.185302840E0,3.713989258E-2,-1.991271973E-2,-1.394653320E-2
1.190338241E0,3.572082520E-2,-2.696228027E-2,-1.298522949E-2
1.195373641E0,3.115844727E-2,-1.910400391E-2,-1.322937012E-2
1.200409041E0,2.397155762E-2,-3.341674805E-3,-1.690673828E-2
1.205444442E0,1.344299316E-2,-5.493164062E-3,-2.793884277E-2
1.210479842E0,1.275634766E-2,-7.324218750E-3,-2.070617676E-2
1.215515243E0,1.783752441E-2,-7.507324219E-3,-1.705932617E-2
1.220550643E0,1.084899902E-2,-7.446289062E-3,-2.095031738E-2
1.225586043E0,7.537841797E-3,-2.243041992E-3,-1.832580566E-2
1.230621444E0,8.621215820E-3,1.373291016E-4,-1.853942871E-2
1.235656844E0,9.704589844E-3,-5.279541016E-3,-1.869201660E-2
1.240692245E0,1.054382324E-2,-1.019287109E-2,-1.641845703E-2
1.245727645E0,1.078796387E-2,-1.113891602E-2,-1.699829102E-2
1.250763045E0,1.107788086E-2,-4.394531250E-3,-1.538085938E-2
1.255798446E0,9.475708008E-3,1.770019531E-3,-1.214599609E-2
1.260833846E0,1.062011719E-2,3.356933594E-3,-7.751464844E-3
1.265869247E0,1.374816895E-2,3.356933594E-3,-1.388549805E-3
1.270904647E0,1.342773438E-2,2.410888672E-3,1.220703125E-3
1.275940047E0,1.300048828E-2,2.441406250E-3,2.304077148E-3
1.280975448E0,1.272583008E-2,8.987426758E-3,3.387451172E-3
1.286010848E0,1.089477539E-2,1.153564453E-2,3.753662109E-3
1.291046248E0,1.197814941E-2,9.353637695E-3,2.304077148E-3
1.296081649E0,1.191711426E-2,3.890991211E-3,9.002685547E-4
1.301117049E0,1.092529297E-2,-9.155273438E-4,9.002685547E-4
1.306152450E0,1.161193848E-2,-1.068115234E-4,-1.525878906E-3
1.311187850E0,1.161193848E-2,-1.724243164E-3,-1.220703125E-2
1.316223250E0,9.002685547E-3,3.677368164E-3,-2.043151855E-2
1.321258651E0,4.302978516E-3,1.475524902E-2,-1.770019531E-2
1.326294051E0,4.425048828E-3,7.934570312E-3,-2.104187012E-2
1.331329452E0,4.852294922E-3,4.074096680E-3,-2.378845215E-2
1.336364852E0,4.013061523E-3,-8.728027344E-3,-2.067565918E-2
1.341400252E0,6.668090820E-3,-3.063964844E-2,-1.782226562E-2
1.346435653E0,7.888793945E-3,-3.286743164E-2,-1.522827148E-2
1.351471053E0,5.264282227E-3,-1.199340820E-2,-1.452636719E-2
1.356506454E0,2.532958984E-3,7.583618164E-3,-1.565551758E-2
1.361541854E0,2.532958984E-3,7.507324219E-3,-1.620483398E-2
1.366577254E0,3.616333008E-3,-5.477905273E-3,-1.557922363E-2
1.371612655E0,5.264282227E-3,-1.559448242E-2,-1.405334473E-2
1.376648055E0,6.851196289E-3,-2.140808105E-2,-1.579284668E-2
1.381683456E0,6.729125977E-3,-2.334594727E-2,-1.904296875E-2
1.386718856E0,5.661010742E-3,-1.847839355E-2,-2.166748047E-2
1.391754256E0,3.326416016E-3,-7.965087891E-3,-2.383422852E-2
1.396789657E0,9.155273438E-5,-3.692626953E-3,-2.600097656E-2
1.401825057E0,9.155273438E-5,-1.062011719E-2,-2.816772461E-2
1.406860457E0,9.307861328E-4,-1.943969727E-2,-2.966308594E-2
1.411895858E0,-1.068115234E-3,-1.963806152E-2,-3.205871582E-2
1.416931258E0,-5.004882812E-3,-1.188659668E-2,-3.395080566E-2
1.421966659E0,-7.949829102E-3,-7.003784180E-3,-3.434753418E-2
1.427002059E0,-9.399414062E-3,-9.796142578E-3,-3.504943848E-2
1.432037459E0,-1.119995117E-2,-1.159667969E-2,-3.613281250E-2
1.437072860E0,-1.336669922E-2,-5.737304688E-3,-3.648376465E-2
1.442108260E0,-1.551818848E-2,1.419067383E-3,-3.721618652E-2
1.447143661E0,-1.388549805E-2,-2.731323242E-3,-3.602600098E-2
1.452179061E0,-1.063537598E-2,-1.448059082E-2,-3.463745117E-2
1.457214461E0,-9.750366211E-3,-1.800537109E-2,-3.434753418E-2
1.462249862E0,-1.135253906E-2,-6.820678711E-3,-3.353881836E-2
1.467285262E0,-1.351928711E-2,5.065917969E-3,-3.489685059E-2
1.472320663E0,-1.319885254E-2,5.966186523E-3,-3.623962402E-2
1.477356063E0,-8.773803711E-3,-5.416870117E-3,-3.480529785E-2
1.482391463E0,-5.065917969E-3,-2.032470703E-2,-3.092956543E-2
1.487426864E0,-4.409790039E-3,-2.076721191E-2,-2.920532227E-2
1.492462264E0,-8.773803711E-3,-7.949829102E-3,-2.900695801E-2
1.497497665E0,-1.417541504E-2,5.416870117E-3,-2.987670898E-2
1.502533065E0,-1.599121094E-2,5.828857422E-3,-3.276062012E-2
1.507568465E0,-1.342773438E-2,-5.447387695E-3,-3.327941895E-2
1.512603866E0,-1.110839844E-2,-1.379394531E-2,-3.234863281E-2
1.517639266E0,-1.176452637E-2,-1.387023926E-2,-3.126525879E-2
1.522674666E0,-1.379394531E-2,-9.933471680E-3,-3.303527832E-2
1.527710067E0,-1.596069336E-2,-7.537841797E-3,-3.520202637E-2
1.532745467E0,-1.615905762E-2,-5.386352539E-3,-3.637695312E-2
1.537780868E0,-1.518249512E-2,-1.235961914E-3,-4.043579102E-2
1.542816268E0,-1.309204102E-2,3.082275391E-3,-4.475402832E-2
1.547851668E0,-1.295471191E-2,8.422851562E-3,-4.705810547E-2
1.552887069E0,-1.295471191E-2,7.659912109E-3,-4.818725586E-2
1.557922469E0,-9.857177734E-3,-1.693725586E-3,-4.823303223E-2
1.562957870E0,-8.712768555E-3,-1.037597656E-2,-4.823303223E-2
1.567993270E0,-4.409790039E-3,-1.373291016E-2,-4.823303223E-2
1.573028670E0,-6.576538086E-3,-7.293701172E-3,-4.823303223E-2
1.578064071E0,-9.841918945E-3,-7.476806641E-4,-5.036926270E-2
1.583099471E0,-1.396179199E-2,8.621215820E-3,-5.032348633E-2
1.588134872E0,-1.170349121E-2,5.905151367E-3,-4.924011230E-2
1.593170272E0,-7.446289062E-3,-8.926391602E-3,-4.817199707E-2
1.598205672E0,-4.562377930E-3,-1.800537109E-2,-4.722595215E-2
1.603241073E0,-6.805419922E-3,-1.733398438E-2,-4.840087891E-2
1.608276473E0,-1.014709473E-2,-8.193969727E-3,-5.075073242E-2
1.613311873E0,-1.435852051E-2,5.416870117E-3,-5.451965332E-2
1.618347274E0,-1.673889160E-2,1.278686523E-2,-5.369567871E-2
1.623382674E0,-1.213073730E-2,1.556396484E-3,-5.464172363E-2
1.628418075E0,-6.698608398E-3,-1.052856445E-2,-5.448913574E-2
1.633453475E0,-8.117675781E-3,-9.063720703E-3,-5.323791504E-2
1.638488875E0,-1.100158691E-2,9.155273438E-5,-5.108642578E-2
1.643524276E0,-1.170349121E-2,5.493164062E-3,-4.891967773E-2
1.648559676E0,-1.081848145E-2,4.501342773E-3,-4.637145996E-2
1.653595077E0,-1.124572754E-2,-2.746582031E-4,-4.267883301E-2
1.658630477E0,-1.274108887E-2,-1.770019531E-3,-4.159545898E-2
1.663665877E0,-1.142883301E-2,-6.866455078E-4,-3.956604004E-2
1.668701278E0,-1.075744629E-2,2.136230469E-3,-3.541564941E-2
1.673736678E0,-1.533508301E-2,1.210021973E-2,-3.514099121E-2
1.678772079E0,-2.047729492E-2,2.340698242E-2,-3.405761719E-2
1.683807479E0,-2.278137207E-2,2.203369141E-2,-3.240966797E-2
1.688842879E0,-1.773071289E-2,7.064819336E-3,-2.885437012E-2
1.693878280E0,-1.081848145E-2,-9.277343750E-3,-2.548217773E-2
1.698913680E0,-1.213073730E-2,-1.809692383E-2,-2.537536621E-2
1.703949081E0,-1.782226562E-2,-8.728027344E-3,-2.720642090E-2
1.708984481E0,-2.435302734E-2,9.735107422E-3,-2.757263184E-2
1.714019881E0,-2.432250977E-2,8.193969727E-3,-2.577209473E-2
1.719055282E0,-1.890563965E-2,-1.475524902E-2,-2.253723145E-2
1.724090682E0,-1.324462891E-2,-2.790832520E-2,-1.966857910E-2
1.729126082E0,-1.188659668E-2,-1.924133301E-2,-1.872253418E-2
1.734161483E0,-1.356506348E-2,-1.464843750E-3,-1.980590820E-2
1.739196883E0,-1.573181152E-2,7.186889648E-3,-1.959228516E-2
1.744232284E0,-1.286315918E-2,-1.022338867E-3,-1.742553711E-2
1.749267684E0,-7.919311523E-3,-1.756286621E-2,-1.525878906E-2
1.754303084E0,-4.547119141E-3,-2.360534668E-2,-1.405334473E-2
1.759338485E0,-3.341674805E-3,-1.345825195E-2,-1.550292969E-2
1.764373885E0,-8.544921875E-4,-6.408691406E-4,-1.873779297E-2
1.769409286E0,2.502441406E-3,3.860473633E-3,-2.146911621E-2
1.774444686E0,3.067016602E-3,2.838134766E-3,-2.363586426E-2
1.779480086E0,4.669189453E-3,-3.967285156E-4,-2.473449707E-2
1.784515487E0,5.157470703E-3,-2.548217773E-3,-2.473449707E-2
1.789550887E0,2.441406250E-3,-1.373291016E-3,-2.528381348E-2
1.794586288E0,2.075195312E-3,3.021240234E-3,-2.636718750E-2
1.799621688E0,3.067016602E-3,6.652832031E-3,-2.862548828E-2
1.804657088E0,2.456665039E-3,5.828857422E-3,-3.067016602E-2
1.809692489E0,3.829956055E-3,2.578735352E-3,-3.051757812E-2
1.814727889E0,5.813598633E-3,-4.348754883E-3,-2.944946289E-2
1.819763290E0,5.630493164E-3,-1.091003418E-2,-2.836608887E-2
1.824798690E0,5.203247070E-3,-1.332092285E-2,-2.664184570E-2
1.829834090E0,7.812500000E-3,-2.029418945E-2,-2.383422852E-2
1.834869491E0,9.475708008E-3,-2.508544922E-2,-2.125549316E-2
1.839904891E0,9.475708008E-3,-1.731872559E-2,-2.113342285E-2
1.844940291E0,5.294799805E-3,-1.556396484E-3,-2.221679688E-2
1.849975692E0,2.288818359E-4,9.368896484E-3,-2.188110352E-2
1.855011092E0,-4.882812500E-4,9.735107422E-3,-1.936340332E-2
1.860046493E0,1.327514648E-3,3.555297852E-3,-1.832580566E-2
1.865081893E0,1.251220703E-3,2.700805664E-3,-1.980590820E-2
1.870117293E0,-1.358032227E-3,7.156372070E-3,-1.969909668E-2
1.875152694E0,-1.510620117E-3,7.919311523E-3,-2.015686035E-2
1.880188094E0,3.509521484E-4,2.914428711E-3,-1.889038086E-2
1.885223495E0,3.311157227E-3,-4.348754883E-3,-1.275634766E-2
1.890258895E0,4.135131836E-3,-9.490966797E-3,-8.422851562E-3
1.895294295E0,4.135131836E-3,-9.704589844E-3,-5.981445312E-3
1.900329696E0,2.456665039E-3,-3.051757812E-4,-3.829956055E-3
1.905365096E0,5.371093750E-3,5.661010742E-3,-2.517700195E-3
1.910400497E0,1.055908203E-2,-4.608154297E-3,2.853393555E-3
1.915435897E0,1.335144043E-2,-2.040100098E-2,6.729125977E-3
1.920471297E0,1.109313965E-2,-1.185607910E-2,9.078979492E-3
1.925506698E0,9.643554688E-3,7.583618164E-3,1.034545898E-2
1.930542098E0,1.129150391E-2,1.264953613E-2,1.234436035E-2
1.935577498E0,1.530456543E-2,1.876831055E-3,1.727294922E-2
1.940612899E0,1.493835449E-2,-9.231567383E-3,2.081298828E-2
1.945648299E0,1.576232910E-2,-6.729125977E-3,2.310180664E-2
1.950683700E0,1.683044434E-2,4.272460938E-3,2.238464355E-2
1.955719100E0,1.402282715E-2,1.622009277E-2,1.837158203E-2
1.960754500E0,1.177978516E-2,2.510070801E-2,1.898193359E-2
1.965789901E0,1.359558105E-2,2.279663086E-2,2.204895020E-2
1.970825301E0,1.979064941E-2,4.409790039E-3,2.328491211E-2
1.975860702E0,2.320861816E-2,-7.888793945E-3,2.537536621E-2
1.980896102E0,2.024841309E-2,-5.294799805E-3,2.754211426E-2
1.985931502E0,1.385498047E-2,1.158142090E-2,2.551269531E-2
1.990966903E0,9.490966797E-3,2.993774414E-2,2.441406250E-2
1.996002303E0,1.058959961E-2,2.882385254E-2,3.298950195E-2
2.001037704E0,1.802062988E-2,3.051757812E-3,3.939819336E-2
2.006073104E0,1.774597168E-2,-1.214599609E-2,4.168701172E-2
2.011108504E0,9.368896484E-3,4.928588867E-3,4.804992676E-2
2.016143905E0,7.507324219E-3,1.493835449E-2,5.093383789E-2
2.021179305E0,1.095581055E-2,-6.927490234E-3,4.838562012E-2
2.026214706E0,1.792907715E-2,-1.649475098E-2,5.636596680E-2
2.031250106E0,1.574707031E-2,3.601074219E-3,5.500793457E-2
2.036285506E0,2.746582031E-3,2.940368652E-2,5.027770996E-2
2.041320907E0,6.866455078E-4,3.102111816E-2,4.267883301E-2
2.046356307E0,8.117675781E-3,9.429931641E-3,4.389953613E-2
2.051391707E0,1.359558105E-2,-1.573181152E-2,4.548645020E-2
2.056427108E0,1.173400879E-2,-1.103210449E-2,4.269409180E-2
2.061462508E0,5.065917969E-3,1.525878906E-2,3.637695312E-2
2.066497909E0,-1.770019531E-3,3.822326660E-2,3.132629395E-2
2.071533309E0,-3.234863281E-3,3.350830078E-2,2.946472168E-2
2.076568709E0,2.822875977E-3,1.708984375E-2,3.378295898E-2
2.081604110E0,6.271362305E-3,2.227783203E-3,3.834533691E-2
2.086639510E0,4.852294922E-3,1.373291016E-4,4.280090332E-2
2.091674911E0,-1.892089844E-3,1.235961914E-2,4.463195801E-2
2.096710311E0,-8.148193359E-3,3.106689453E-2,4.948425293E-2
2.101745711E0,-9.475708008E-3,3.907775879E-2,5.487060547E-2
2.106781112E0,-8.117675781E-3,2.941894531E-2,5.760192871E-2
2.111816512E0,-5.645751953E-3,1.284790039E-2,6.193542480E-2
2.116851913E0,-3.341674805E-3,6.607055664E-3,6.498718262E-2
2.121887313E0,-3.997802734E-3,1.702880859E-2,6.532287598E-2
2.126922713E0,-6.149291992E-3,3.031921387E-2,6.672668457E-2
2.131958114E0,-8.316040039E-3,2.975463867E-2,6.819152832E-2
2.136993514E0,-8.666992188E-3,1.856994629E-2,6.892395020E-2
2.142028915E0,-5.813598633E-3,8.956909180E-3,7.070922852E-2
2.147064315E0,-5.584716797E-3,7.415771484E-3,7.139587402E-2
2.152099715E0,-9.613037109E-3,1.681518555E-2,7.180786133E-2
2.157135116E0,-1.544189453E-2,3.015136719E-2,7.205200195E-2
2.162170516E0,-2.064514160E-2,3.283691406E-2,7.098388672E-2
2.167205916E0,-2.214050293E-2,2.371215820E-2,7.165527344E-2
2.172241317E0,-1.969909668E-2,1.300048828E-2,7.398986816E-2
2.177276717E0,-1.908874512E-2,1.240539551E-2,7.646179199E-2
2.182312118E0,-2.294921875E-2,2.297973633E-2,7.936096191E-2
2.187347518E0,-2.421569824E-2,3.298950195E-2,7.994079590E-2
2.192382918E0,-2.264404297E-2,3.395080566E-2,8.145141602E-2
2.197418319E0,-2.099609375E-2,2.438354492E-2,8.470153809E-2
2.202453719E0,-1.991271973E-2,1.353454590E-2,8.793640137E-2
2.207489120E0,-2.044677734E-2,1.136779785E-2,9.063720703E-2
2.212524520E0,-2.316284180E-2,1.736450195E-2,9.169006348E-2
2.217559920E0,-2.583312988E-2,2.488708496E-2,9.114074707E-2
2.222595321E0,-2.569580078E-2,2.388000488E-2,9.062194824E-2
2.227630721E0,-2.235412598E-2,1.513671875E-2,9.181213379E-2
2.232666122E0,-1.922607422E-2,9.017944336E-3,9.275817871E-2
2.237701522E0,-1.768493652E-2,1.132202148E-2,9.153747559E-2
2.242736922E0,-1.974487305E-2,1.969909668E-2,8.937072754E-2
2.247772323E0,-2.085876465E-2,2.235412598E-2,8.784484863E-2
2.252807723E0,-1.716613770E-2,1.167297363E-2,8.807373047E-2
2.257843123E0,-1.376342773E-2,-1.861572266E-3,8.848571777E-2
2.262878524E0,-1.295471191E-2,-1.373291016E-4,9.053039551E-2
2.267913924E0,-1.435852051E-2,1.237487793E-2,9.169006348E-2
2.272949325E0,-1.438903809E-2,1.794433594E-2,9.451293945E-2
2.277984725E0,-1.188659668E-2,1.187133789E-2,9.526062012E-2
2.283020125E0,-1.010131836E-2,7.232666016E-3,9.562683105E-2
2.288055526E0,-1.124572754E-2,1.100158691E-2,9.745788574E-2
2.293090926E0,-1.339721680E-2,1.974487305E-2,9.809875488E-2
2.298126327E0,-1.632690430E-2,2.258300781E-2,9.733581543E-2
2.303161727E0,-1.489257812E-2,1.634216309E-2,9.860229492E-2
2.308197127E0,-1.481628418E-2,1.165771484E-2,9.996032715E-2
2.313232528E0,-1.832580566E-2,1.486206055E-2,1.002349854E-1
2.318267928E0,-2.264404297E-2,2.272033691E-2,9.942626953E-2
2.323303329E0,-2.445983887E-2,2.552795410E-2,9.835815430E-2
2.328338729E0,-2.470397949E-2,1.904296875E-2,9.895324707E-2
2.333374129E0,-2.384948730E-2,1.208496094E-2,1.008911133E-1
2.338409530E0,-2.363586426E-2,1.257324219E-2,9.869384766E-2
2.343444930E0,-2.363586426E-2,1.914978027E-2,9.634399414E-2
2.348480331E0,-2.095031738E-2,2.493286133E-2,9.596252441E-2
2.353515731E0,-1.863098145E-2,2.758789062E-2,9.687805176E-2
2.358551131E0,-1.737976074E-2,2.607727051E-2,9.796142578E-2
2.363586532E0,-1.722717285E-2,2.671813965E-2,9.904479980E-2
2.368621932E0,-1.629638672E-2,2.873229980E-2,1.010589600E-1
2.373657332E0,-1.519775391E-2,2.609252930E-2,1.022796631E-1
2.378692733E0,-1.315307617E-2,2.578735352E-2,1.053009033E-1
2.383728133E0,-9.994506836E-3,2.676391602E-2,1.075592041E-1
2.388763534E0,-8.758544922E-3,3.085327148E-2,1.057128906E-1
2.393798934E0,-1.072692871E-2,3.416442871E-2,1.055755615E-1
2.398834334E0,-9.796142578E-3,3.021240234E-2,1.055755615E-1
2.403869735E0,-7.675170898E-3,2.587890625E-2,1.055755615E-1
2.408905135E0,-8.666992188E-3,2.996826172E-2,1.055755615E-1
2.413940536E0,-1.081848145E-2,4.278564453E-2,1.045227051E-1
2.418975936E0,-1.293945312E-2,4.492187500E-2,1.034393311E-1
2.424011336E0,-8.529663086E-3,3.189086914E-2,1.034240723E-1
2.429046737E0,1.525878906E-5,1.620483398E-2,1.023406982E-1
2.434082137E0,5.249023438E-3,1.779174805E-2,1.012115479E-1
2.439117538E0,6.027221680E-3,3.082275391E-2,9.893798828E-2
2.444152938E0,1.998901367E-3,4.415893555E-2,9.483337402E-2
2.449188338E0,2.243041992E-3,4.612731934E-2,9.391784668E-2
2.454223739E0,5.584716797E-3,3.285217285E-2,9.509277344E-2
2.459259139E0,9.689331055E-3,1.774597168E-2,9.715270996E-2
2.464294540E0,1.086425781E-2,1.432800293E-2,9.809875488E-2
2.469329940E0,4.928588867E-3,2.703857422E-2,9.770202637E-2
2.474365340E0,3.067016602E-3,4.359436035E-2,9.461975098E-2
2.479400741E0,3.524780273E-3,4.663085938E-2,9.292602539E-2
2.484436141E0,6.607055664E-3,3.582763672E-2,9.400939941E-2
2.489471541E0,8.590698242E-3,2.685546875E-2,9.452819824E-2
2.494506942E0,9.277343750E-3,2.842712402E-2,9.217834473E-2
2.499542342E0,8.605957031E-3,3.706359863E-2,8.914184570E-2
2.504577743E0,9.475708008E-3,4.438781738E-2,8.697509766E-2
2.509613143E0,9.933471680E-3,4.466247559E-2,8.410644531E-2
2.514648543E0,1.210021973E-2,3.817749023E-2,7.870483398E-2
2.519683944E0,1.478576660E-2,3.247070312E-2,7.382202148E-2
2.524719344E0,1.884460449E-2,3.060913086E-2,7.057189941E-2
2.529754745E0,2.207946777E-2,3.334045410E-2,6.677246094E-2
2.534790145E0,2.529907227E-2,3.675842285E-2,6.285095215E-2
2.539825545E0,2.763366699E-2,3.691101074E-2,6.193542480E-2
2.544860946E0,2.795410156E-2,3.506469727E-2,5.964660645E-2
2.549896346E0,2.870178223E-2,3.465270996E-2,5.899047852E-2
2.554931747E0,2.973937988E-2,3.434753418E-2,5.717468262E-2
2.559967147E0,3.297424316E-2,3.002929688E-2,5.644226074E-2
2.565002547E0,3.622436523E-2,2.465820312E-2,5.644226074E-2
2.570037948E0,3.791809082E-2,2.528381348E-2,5.606079102E-2
2.575073348E0,3.683471680E-2,3.285217285E-2,5.497741699E-2
2.580108748E0,3.575134277E-2,4.000854492E-2,5.389404297E-2
2.585144149E0,3.680419922E-2,4.351806641E-2,5.323791504E-2
2.590179549E0,4.200744629E-2,4.023742676E-2,5.236816406E-2
2.595214950E0,4.713439941E-2,3.283691406E-2,5.065917969E-2
2.600250350E0,4.991149902E-2,2.792358398E-2,4.911804199E-2
2.605285750E0,5.160522461E-2,3.123474121E-2,4.553222656E-2
2.610321151E0,5.169677734E-2,3.686523438E-2,4.060363770E-2
2.615356551E0,5.163574219E-2,3.707885742E-2,3.677368164E-2
2.620391952E0,5.374145508E-2,3.076171875E-2,3.405761719E-2
2.625427352E0,5.590820312E-2,2.474975586E-2,3.192138672E-2
2.630462752E0,5.593872070E-2,2.577209473E-2,3.028869629E-2
2.635498153E0,5.429077148E-2,3.176879883E-2,2.919006348E-2
2.640533553E0,5.326843262E-2,3.651428223E-2,2.755737305E-2
2.645568954E0,5.383300781E-2,3.579711914E-2,2.423095703E-2
2.650604354E0,5.551147461E-2,3.196716309E-2,2.050781250E-2
2.655639754E0,5.647277832E-2,2.824401855E-2,1.785278320E-2
2.660675155E0,5.523681641E-2,2.746582031E-2,1.446533203E-2
2.665710555E0,5.558776855E-2,2.854919434E-2,1.077270508E-2
2.670745956E0,5.903625488E-2,2.449035645E-2,9.445190430E-3
2.675781356E0,6.204223633E-2,1.626586914E-2,8.148193359E-3
2.680816756E0,6.153869629E-2,1.496887207E-2,5.981445312E-3
2.685852157E0,5.870056152E-2,2.229309082E-2,4.501342773E-3
2.690887557E0,5.683898926E-2,2.925109863E-2,4.104614258E-3
2.695922957E0,5.575561523E-2,3.112792969E-2,3.402709961E-3
2.700958358E0,5.612182617E-2,2.824401855E-2,2.319335938E-3
2.705993758E0,5.647277832E-2,2.391052246E-2,5.035400391E-4
2.711029159E0,5.424499512E-2,2.331542969E-2,-3.128051758E-3
2.716064559E0,5.326843262E-2,2.514648438E-2,-4.440307617E-3
2.721099959E0,5.479431152E-2,2.578735352E-2,-5.203247070E-3
2.726135360E0,5.618286133E-2,2.578735352E-2,-5.508422852E-3
2.731170760E0,5.726623535E-2,2.339172363E-2,-6.301879883E-3
2.736206161E0,5.673217773E-2,2.258300781E-2,-6.576538086E-3
2.741241561E0,5.564880371E-2,2.011108398E-2,-6.576538086E-3
2.746276961E0,5.706787109E-2,1.687622070E-2,-8.239746094E-3
2.751312362E0,5.921936035E-2,1.870727539E-2,-9.552001953E-3
2.756347762E0,5.709838867E-2,2.452087402E-2,-1.406860352E-2
2.761383163E0,5.558776855E-2,3.274536133E-2,-1.860046387E-2
2.766418563E0,5.540466309E-2,3.344726562E-2,-2.203369141E-2
2.771453963E0,5.628967285E-2,2.517700195E-2,-2.259826660E-2
2.776489364E0,5.737304688E-2,1.454162598E-2,-2.349853516E-2
2.781524764E0,6.030273438E-2,8.346557617E-3,-2.551269531E-2
2.786560165E0,6.260681152E-2,7.629394531E-3,-2.766418457E-2
2.791595565E0,6.288146973E-2,1.426696777E-2,-3.077697754E-2
2.796630965E0,5.999755859E-2,2.084350586E-2,-3.114318848E-2
2.801666366E0,5.967712402E-2,2.247619629E-2,-3.210449219E-2
2.806701766E0,6.065368652E-2,2.159118652E-2,-3.221130371E-2
2.811737166E0,6.272888184E-2,1.254272461E-2,-3.221130371E-2
2.816772567E0,6.388854980E-2,7.858276367E-3,-3.321838379E-2
2.821807967E0,6.190490723E-2,1.068115234E-2,-3.530883789E-2
2.826843368E0,5.870056152E-2,2.221679688E-2,-4.058837891E-2
2.831878768E0,5.545043945E-2,2.258300781E-2,-4.389953613E-2
2.836914168E0,5.540466309E-2,1.301574707E-2,-4.608154297E-2
2.841949569E0,5.540466309E-2,5.493164062E-3,-4.823303223E-2
2.846984969E0,5.216979980E-2,4.455566406E-3,-5.258178711E-2
2.852020370E0,5.102539062E-2,6.484985352E-3,-5.677795410E-2
2.857055770E0,4.800415039E-2,4.257202148E-3,-5.685424805E-2
2.862091170E0,5.000305176E-2,3.051757812E-4,-5.895996094E-2
2.867126571E0,4.872131348E-2,3.738403320E-3,-6.010437012E-2
2.872161971E0,4.447937012E-2,9.918212891E-3,-6.227111816E-2
2.877197372E0,4.141235352E-2,1.179504395E-2,-6.425476074E-2
2.882232772E0,4.086303711E-2,1.051330566E-2,-6.425476074E-2
2.887268172E0,4.518127441E-2,6.439208984E-3,-6.436157227E-2
2.892303573E0,4.925537109E-2,-4.241943359E-3,-6.532287598E-2
2.897338973E0,5.084228516E-2,-1.223754883E-2,-6.559753418E-2
2.902374373E0,4.867553711E-2,-8.056640625E-3,-6.761169434E-2
2.907409774E0,4.667663574E-2,8.239746094E-4,-6.834411621E-2
2.912445174E0,4.615783691E-2,3.494262695E-3,-6.745910645E-2
2.917480575E0,4.870605469E-2,-2.883911133E-3,-6.706237793E-2
2.922515975E0,5.261230469E-2,-1.411437988E-2,-6.489562988E-2
2.927551375E0,5.389404297E-2,-2.618408203E-2,-6.340026855E-2
2.932586776E0,5.197143555E-2,-3.184509277E-2,-6.379699707E-2
2.937622176E0,5.137634277E-2,-2.513122559E-2,-6.211853027E-2
2.942657577E0,5.114746094E-2,-1.353454590E-2,-6.263732910E-2
2.947692977E0,4.653930664E-2,-5.798339844E-4,-6.425476074E-2
2.952728377E0,4.142761230E-2,6.561279297E-3,-6.452941895E-2
2.957763778E0,3.800964355E-2,4.745483398E-3,-6.501770020E-2
2.962799178E0,3.630065918E-2,-1.434326172E-3,-6.488037109E-2
2.967834579E0,3.436279297E-2,-4.867553711E-3,-6.605529785E-2
2.972869979E0,3.442382812E-2,-2.761840820E-3,-6.632995605E-2
2.977905379E0,3.120422363E-2,2.960205078E-3,-6.922912598E-2
2.982940780E0,2.618408203E-2,9.414672852E-3,-7.209777832E-2
2.987976180E0,2.261352539E-2,1.083374023E-2,-7.603454590E-2
2.993011581E0,2.046203613E-2,9.689331055E-3,-7.888793945E-2
2.998046981E0,1.789855957E-2,6.042480469E-3,-8.145141602E-2
3.003082381E0,1.341247559E-2,4.989624023E-3,-8.387756348E-2
3.008117782E0,7.369995117E-3,1.055908203E-2,-8.454895020E-2
3.013153182E0,2.288818359E-4,1.812744141E-2,-8.410644531E-2
3.018188582E0,-7.263183594E-3,2.079772949E-2,-8.302307129E-2
3.023223983E0,-1.068115234E-2,1.509094238E-2,-8.241271973E-2
3.028259383E0,-1.377868652E-2,9.887695312E-3,-8.099365234E-2
3.033294784E0,-1.762390137E-2,1.063537598E-2,-7.823181152E-2
3.038330184E0,-1.936340332E-2,1.396179199E-2,-7.606506348E-2
3.043365584E0,-1.988220215E-2,1.611328125E-2,-7.441711426E-2
3.048400985E0,-2.148437500E-2,1.724243164E-2,-7.333374023E-2
3.053436385E0,-2.256774902E-2,1.831054688E-2,-7.171630859E-2
3.058471786E0,-2.256774902E-2,2.157592773E-2,-6.735229492E-2
3.063507186E0,-2.088928223E-2,2.082824707E-2,-6.199645996E-2
3.068542586E0,-1.536560059E-2,1.084899902E-2,-5.767822266E-2
3.073577987E0,-1.014709473E-2,3.356933594E-4,-5.395507812E-2
3.078613387E0,-1.167297363E-2,2.304077148E-3,-5.130004883E-2
3.083648788E0,-1.829528809E-2,1.873779297E-2,-5.157470703E-2
3.088684188E0,-2.461242676E-2,3.663635254E-2,-5.374145508E-2
3.093719588E0,-2.748107910E-2,4.032897949E-2,-5.335998535E-2
3.098754989E0,-2.401733398E-2,2.561950684E-2,-5.119323730E-2
3.103790389E0,-1.951599121E-2,3.997802734E-3,-5.036926270E-2
3.108825790E0,-2.099609375E-2,-9.521484375E-3,-5.238342285E-2
3.113861190E0,-3.083801270E-2,-3.036499023E-3,-5.494689941E-2
3.118896590E0,-4.240417480E-2,1.699829102E-2,-5.780029297E-2
3.123931991E0,-5.035400391E-2,3.042602539E-2,-6.033325195E-2
3.128967391E0,-5.320739746E-2,2.015686035E-2,-6.176757812E-2
3.134002791E0,-5.206298828E-2,-4.486083984E-3,-5.841064453E-2
3.139038192E0,-5.441284180E-2,-2.241516113E-2,-5.302429199E-2
3.144073592E0,-6.329345703E-2,-1.135253906E-2,-5.067443848E-2
3.149108993E0,-7.025146484E-2,1.814270020E-2,-5.036926270E-2
3.154144393E0,-6.935119629E-2,3.079223633E-2,-5.036926270E-2
3.159179793E0,-6.451416016E-2,8.209228516E-3,-4.716491699E-2
3.164215194E0,-5.828857422E-2,-2.261352539E-2,-4.121398926E-2
3.169250594E0,-5.923461914E-2,-3.224182129E-2,-3.720092773E-2
3.174285995E0,-6.498718262E-2,-1.031494141E-2,-3.898620605E-2
3.179321395E0,-6.721496582E-2,1.376342773E-2,-4.394531250E-2
3.184356795E0,-6.051635742E-2,1.744079590E-2,-4.675292969E-2
3.189392196E0,-5.099487305E-2,-3.204345703E-4,-4.627990723E-2
3.194427596E0,-4.573059082E-2,-2.095031738E-2,-4.342651367E-2
3.199462997E0,-4.769897461E-2,-1.992797852E-2,-4.199218750E-2
3.204498397E0,-5.641174316E-2,4.577636719E-5,-4.455566406E-2
3.209533797E0,-6.060791016E-2,8.926391602E-3,-4.316711426E-2
3.214569198E0,-5.728149414E-2,-7.125854492E-3,-4.006958008E-2
3.219604598E0,-5.010986328E-2,-3.132629395E-2,-3.492736816E-2
3.224639998E0,-5.216979980E-2,-3.500366211E-2,-3.144836426E-2
3.229675399E0,-6.419372559E-2,-9.719848633E-3,-3.308105469E-2
3.234710799E0,-7.312011719E-2,1.808166504E-2,-3.425598145E-2
3.239746200E0,-7.383728027E-2,1.542663574E-2,-3.634643555E-2
3.244781600E0,-6.674194336E-2,-1.029968262E-2,-3.343200684E-2
3.249817000E0,-6.121826172E-2,-3.938293457E-2,-3.018188477E-2
3.254852401E0,-6.101989746E-2,-4.251098633E-2,-3.007507324E-2
3.259887801E0,-6.732177734E-2,-2.265930176E-2,-3.111267090E-2
3.264923202E0,-7.168579102E-2,3.189086914E-3,-3.431701660E-2
3.269958602E0,-6.954956055E-2,1.068115234E-3,-3.433227539E-2
3.274994002E0,-6.526184082E-2,-2.253723145E-2,-3.221130371E-2
3.280029403E0,-6.323242188E-2,-3.587341309E-2,-3.207397461E-2
3.285064803E0,-6.544494629E-2,-2.581787109E-2,-2.787780762E-2
3.290100204E0,-6.826782227E-2,-9.048461914E-3,-2.662658691E-2
3.295135604E0,-6.372070312E-2,-2.853393555E-3,-2.207946777E-2
3.300171004E0,-5.633544922E-2,-1.608276367E-2,-1.477050781E-2
3.305206405E0,-5.140686035E-2,-3.053283691E-2,-1.045227051E-2
3.310241805E0,-5.183410645E-2,-2.636718750E-2,-6.576538086E-3
3.315277206E0,-5.592346191E-2,-1.374816895E-2,-6.454467773E-3
3.320312606E0,-5.743408203E-2,-5.722045898E-3,-5.371093750E-3
3.325348006E0,-5.461120605E-2,-1.062011719E-2,-4.150390625E-3
3.330383407E0,-5.445861816E-2,-1.800537109E-2,-2.304077148E-3
3.335418807E0,-5.303955078E-2,-1.750183105E-2,-2.304077148E-3
3.340454207E0,-5.090332031E-2,-1.406860352E-2,-2.304077148E-3
3.345489608E0,-5.374145508E-2,-1.052856445E-2,-2.487182617E-3
3.350525008E0,-5.441284180E-2,-1.011657715E-2,-3.158569336E-3
3.355560409E0,-5.310058594E-2,-8.850097656E-3,-1.846313477E-3
3.360595809E0,-5.117797852E-2,-1.171875000E-2,7.629394531E-5
3.365631209E0,-5.009460449E-2,-1.762390137E-2,1.159667969E-3
3.370666610E0,-5.006408691E-2,-2.256774902E-2,1.968383789E-3
3.375702010E0,-5.358886719E-2,-1.657104492E-2,1.968383789E-3
3.380737411E0,-5.647277832E-2,-4.531860352E-3,2.258300781E-3
3.385772811E0,-5.477905273E-2,-2.563476562E-3,3.646850586E-3
3.390808211E0,-5.122375488E-2,-1.292419434E-2,5.813598633E-3
3.395843612E0,-4.658508301E-2,-2.120971680E-2,7.308959961E-3
3.400879012E0,-4.286193848E-2,-1.887512207E-2,6.317138672E-3
3.405914413E0,-4.286193848E-2,-1.165771484E-2,3.417968750E-3
3.410949813E0,-4.179382324E-2,-7.324218750E-3,1.968383789E-3
3.415985213E0,-3.742980957E-2,-9.201049805E-3,1.235961914E-3
3.421020614E0,-3.208923340E-2,-1.422119141E-2,2.288818359E-4
3.426056014E0,-3.004455566E-2,-1.734924316E-2,1.312255859E-3
3.431091415E0,-3.129577637E-2,-1.553344727E-2,2.395629883E-3
3.436126815E0,-3.283691406E-2,-1.075744629E-2,2.624511719E-3
3.441162215E0,-3.042602539E-2,-1.298522949E-2,3.295898438E-3
3.446197616E0,-2.610778809E-2,-1.892089844E-2,6.088256836E-3
3.451233016E0,-2.317810059E-2,-1.782226562E-2,8.239746094E-3
3.456268416E0,-2.209472656E-2,-1.052856445E-2,1.087951660E-2
3.461303817E0,-1.908874512E-2,-6.164550781E-3,1.313781738E-2
3.466339217E0,-1.467895508E-2,-1.330566406E-2,1.472473145E-2
3.471374618E0,-1.040649414E-2,-2.270507812E-2,1.739501953E-2
3.476410018E0,-6.042480469E-3,-2.287292480E-2,2.064514160E-2
3.481445418E0,-4.409790039E-3,-1.423645020E-2,2.226257324E-2
3.486480819E0,-4.974365234E-3,-3.448486328E-3,2.116394043E-2
3.491516219E0,-4.364013672E-3,6.561279297E-4,2.012634277E-2
3.496551620E0,-2.197265625E-3,-5.050659180E-3,2.012634277E-2
3.501587020E0,-1.800537109E-3,-1.182556152E-2,1.954650879E-2
3.506622420E0,-1.678466797E-3,-1.313781738E-2,1.725769043E-2
3.511657821E0,-1.205444336E-3,-1.205444336E-2,1.585388184E-2
3.516693221E0,-1.205444336E-3,-1.159667969E-2,1.335144043E-2
3.521728622E0,7.019042969E-4,-1.097106934E-2,1.158142090E-2
3.526764022E0,2.639770508E-3,-1.118469238E-2,1.028442383E-2
3.531799422E0,5.706787109E-3,-1.226806641E-2,9.445190430E-3
3.536834823E0,6.668090820E-3,-1.133728027E-2,9.445190430E-3
3.541870223E0,6.271362305E-3,-8.483886719E-3,1.150512695E-2
3.546905623E0,9.063720703E-3,-6.637573242E-3,1.264953613E-2
3.551941024E0,1.124572754E-2,-9.124755859E-3,1.336669922E-2
3.556976424E0,1.306152344E-2,-1.344299316E-2,1.445007324E-2
3.562011825E0,1.448059082E-2,-1.184082031E-2,1.405334473E-2
3.567047225E0,1.631164551E-2,-6.774902344E-3,1.448059082E-2
3.572082625E0,1.847839355E-2,-4.425048828E-3,1.632690430E-2
3.577118026E0,1.986694336E-2,-4.913330078E-3,1.771545410E-2
3.582153426E0,2.252197266E-2,-1.235961914E-3,1.957702637E-2
3.587188827E0,2.496337891E-2,6.591796875E-3,2.255249023E-2
3.592224227E0,2.630615234E-2,3.799438477E-3,2.496337891E-2
3.597259627E0,2.821350098E-2,-8.453369141E-3,2.713012695E-2
3.602295028E0,3.120422363E-2,-7.415771484E-3,3.179931641E-2
3.607330428E0,3.105163574E-2,3.112792969E-3,3.294372559E-2
3.612365829E0,3.083801270E-2,1.153564453E-2,3.294372559E-2
3.617401229E0,3.434753418E-2,9.445190430E-3,3.294372559E-2
3.622436629E0,3.778076172E-2,-2.899169922E-3,3.205871582E-2
3.627472030E0,4.101562500E-2,-7.904052734E-3,3.369140625E-2
3.632507430E0,4.243469238E-2,7.781982422E-4,3.401184082E-2
3.637542831E0,4.072570801E-2,1.065063477E-2,3.216552734E-2
3.642578231E0,4.138183594E-2,1.095581055E-2,2.999877930E-2
3.647613631E0,4.438781738E-2,3.173828125E-3,2.783203125E-2
3.652649032E0,4.859924316E-2,-5.477905273E-3,2.857971191E-2
3.657684432E0,5.291748047E-2,-1.019287109E-2,2.769470215E-2
3.662719832E0,4.927062988E-2,-4.562377930E-3,2.561950684E-2
3.667755233E0,4.394531250E-2,-9.155273438E-5,2.244567871E-2
3.672790633E0,4.365539551E-2,-8.697509766E-4,2.125549316E-2
3.677826034E0,4.673767090E-2,-1.429748535E-2,2.119445801E-2
3.682861434E0,4.893493652E-2,-2.938842773E-2,2.224731445E-2
3.687896834E0,4.792785645E-2,-2.763366699E-2,2.333068848E-2
3.692932235E0,4.365539551E-2,-7.324218750E-3,2.119445801E-2
3.697967635E0,4.049682617E-2,6.454467773E-3,2.224731445E-2
3.703003036E0,4.492187500E-2,-2.517700195E-3,2.021789551E-2
3.708038436E0,5.334472656E-2,-2.391052246E-2,2.345275879E-2
3.713073836E0,5.534362793E-2,-3.773498535E-2,2.644348145E-2
3.718109237E0,5.400085449E-2,-2.485656738E-2,2.459716797E-2
3.723144637E0,4.899597168E-2,2.227783203E-3,2.752685547E-2
3.728180038E0,4.908752441E-2,1.417541504E-2,2.673339844E-2
3.733215438E0,5.026245117E-2,1.800537109E-3,2.888488770E-2
3.738250838E0,5.230712891E-2,-2.394104004E-2,3.070068359E-2
3.743286239E0,5.287170410E-2,-3.514099121E-2,2.973937988E-2
3.748321639E0,4.862976074E-2,-1.628112793E-2,2.973937988E-2
3.753357040E0,3.861999512E-2,9.902954102E-3,2.960205078E-2
3.758392440E0,3.453063965E-2,1.461791992E-2,2.917480469E-2
3.763427840E0,3.794860840E-2,-3.753662109E-3,3.205871582E-2
3.768463241E0,4.132080078E-2,-2.430725098E-2,3.294372559E-2
3.773498641E0,3.962707520E-2,-2.401733398E-2,3.274536133E-2
3.778534041E0,3.486633301E-2,1.983642578E-4,3.166198730E-2
3.783569442E0,2.929687500E-2,1.699829102E-2,3.150939941E-2
3.788604842E0,2.786254883E-2,1.252746582E-2,3.401184082E-2
3.793640243E0,2.920532227E-2,-2.670288086E-3,3.401184082E-2
3.798675643E0,3.028869629E-2,-1.133728027E-2,3.401184082E-2
3.803711043E0,2.757263184E-2,-8.560180664E-3,3.373718262E-2
3.808746444E0,2.294921875E-2,4.730224609E-4,3.147888184E-2
3.813781844E0,1.876831055E-2,1.345825195E-2,2.729797363E-2
3.818817245E0,1.866149902E-2,2.096557617E-2,2.719116211E-2
3.823852645E0,2.114868164E-2,1.087951660E-2,2.867126465E-2
3.828888045E0,2.438354492E-2,-7.553100586E-3,2.867126465E-2
3.833923446E0,2.584838867E-2,-1.409912109E-2,2.725219727E-2
3.838958846E0,2.331542969E-2,-3.265380859E-3,2.403259277E-2
3.843994247E0,2.159118652E-2,7.675170898E-3,2.296447754E-2
3.849029647E0,2.386474609E-2,1.892089844E-3,2.265930176E-2
3.854065047E0,2.940368652E-2,-2.217102051E-2,2.415466309E-2
3.859100448E0,2.984619141E-2,-2.679443359E-2,2.505493164E-2
3.864135848E0,1.945495605E-2,1.126098633E-2,2.397155762E-2
3.869171248E0,1.284790039E-2,3.770446777E-2,2.288818359E-2
3.874206649E0,1.390075684E-2,1.902770996E-2,2.365112305E-2
3.879242049E0,2.072143555E-2,-1.733398438E-2,2.688598633E-2
3.884277450E0,2.597045898E-2,-3.208923340E-2,2.867126465E-2
3.889312850E0,2.256774902E-2,-1.531982422E-2,2.618408203E-2
3.894348250E0,1.443481445E-2,1.245117188E-2,2.130126953E-2
3.899383651E0,1.106262207E-2,2.209472656E-2,1.802062988E-2
3.904419051E0,1.536560059E-2,8.621215820E-3,1.531982422E-2
3.909454452E0,2.128601074E-2,-1.080322266E-2,1.371765137E-2
3.914489852E0,2.279663086E-2,-2.020263672E-2,1.203918457E-2
3.919525252E0,1.998901367E-2,-1.434326172E-2,8.804321289E-3
3.924560653E0,1.567077637E-2,-1.358032227E-3,5.554199219E-3
3.929596053E0,1.374816895E-2,6.820678711E-3,2.319335938E-3
3.934631454E0,1.313781738E-2,3.204345703E-3,3.051757812E-4
3.939666854E0,1.516723633E-2,-7.766723633E-3,4.577636719E-4
3.944702254E0,1.567077637E-2,-1.457214355E-2,9.002685547E-4
3.949737655E0,1.286315918E-2,-1.133728027E-2,9.002685547E-4
3.954773055E0,9.613037109E-3,-3.768920898E-3,2.441406250E-4
3.959808456E0,8.407592773E-3,-1.602172852E-3,-1.678466797E-4
3.964843856E0,9.780883789E-3,-8.865356445E-3,-8.544921875E-4
3.969879256E0,9.841918945E-3,-1.547241211E-2,-5.340576172E-4
3.974914657E0,5.889892578E-3,-1.336669922E-2,-1.586914062E-3
3.979950057E0,2.670288086E-3,-5.050659180E-3,-3.753662109E-3
3.984985457E0,2.731323242E-3,9.765625000E-4,-4.440307617E-3
3.990020858E0,2.304077148E-3,-1.480102539E-3,-4.440307617E-3
3.995056258E0,1.998901367E-3,-7.659912109E-3,-3.662109375E-3
4.000091659E0,4.272460938E-4,-7.125854492E-3,-4.150390625E-3
4.005127059E0,-9.307861328E-4,-2.304077148E-3,-6.011962891E-3
4.010162459E0,-2.822875977E-3,1.495361328E-3,-4.150390625E-3
4.015197860E0,-1.708984375E-3,-1.831054688E-4,-2.548217773E-3
4.020233260E0,-2.883911133E-3,-8.407592773E-3,-2.304077148E-3
4.025268661E0,-3.341674805E-3,-1.138305664E-2,-1.449584961E-3
4.030304061E0,-7.614135742E-3,-7.339477539E-3,-4.638671875E-3
4.035339461E0,-1.042175293E-2,2.380371094E-3,-6.362915039E-3
4.040374862E0,-1.081848145E-2,7.049560547E-3,-6.576538086E-3
4.045410262E0,-9.048461914E-3,-3.967285156E-3,-5.676269531E-3
4.050445663E0,-5.981445312E-3,-1.712036133E-2,-3.692626953E-3
4.055481063E0,-9.155273438E-3,-1.541137695E-2,-6.118774414E-3
4.060516463E0,-1.254272461E-2,-3.646850586E-3,-8.422851562E-3
4.065551864E0,-1.295471191E-2,8.392333984E-3,-9.643554688E-3
4.070587264E0,-1.200866699E-2,5.935668945E-3,-9.780883789E-3
4.075622665E0,-8.987426758E-3,-1.100158691E-2,-8.804321289E-3
4.080658065E0,-7.705688477E-3,-2.053833008E-2,-1.066589355E-2
4.085693465E0,-1.060485840E-2,-8.270263672E-3,-1.483154297E-2
4.090728866E0,-1.687622070E-2,1.184082031E-2,-1.713562012E-2
4.095764266E0,-2.029418945E-2,1.704406738E-2,-1.826477051E-2
4.100799666E0,-1.629638672E-2,1.708984375E-3,-1.728820801E-2
4.105835067E0,-1.089477539E-2,-1.777648926E-2,-1.831054688E-2
4.110870467E0,-1.188659668E-2,-1.907348633E-2,-1.937866211E-2
4.115905868E0,-1.617431641E-2,-1.892089844E-3,-2.259826660E-2
4.120941268E0,-1.832580566E-2,1.405334473E-2,-2.476501465E-2
4.125976668E0,-1.933288574E-2,1.463317871E-2,-2.693176270E-2
4.131012069E0,-1.824951172E-2,-4.119873047E-4,-2.905273438E-2
4.136047469E0,-1.722717285E-2,-1.284790039E-2,-3.007507324E-2
4.141082870E0,-1.744079590E-2,-1.460266113E-2,-3.027343750E-2
4.146118270E0,-2.058410645E-2,4.364013672E-3,-3.334045410E-2
4.151153670E0,-2.227783203E-2,1.751708984E-2,-3.434753418E-2
4.156189071E0,-1.881408691E-2,7.522583008E-3,-3.422546387E-2
4.161224471E0,-1.402282715E-2,-1.246643066E-2,-3.340148926E-2
4.166259872E0,-1.441955566E-2,-1.632690430E-2,-3.460693359E-2
4.171295272E0,-1.795959473E-2,6.088256836E-3,-3.691101074E-2
4.176330672E0,-2.241516113E-2,2.301025391E-2,-3.968811035E-2
4.181366073E0,-2.082824707E-2,1.530456543E-2,-3.968811035E-2
4.186401473E0,-1.687622070E-2,-8.560180664E-3,-3.968811035E-2
4.191436873E0,-1.567077637E-2,-1.823425293E-2,-3.987121582E-2
4.196472274E0,-1.872253418E-2,-5.920410156E-3,-4.136657715E-2
4.201507674E0,-2.043151855E-2,9.124755859E-3,-4.460144043E-2
4.206543075E0,-2.043151855E-2,8.758544922E-3,-4.716491699E-2
4.211578475E0,-2.020263672E-2,-1.205444336E-3,-4.716491699E-2
4.216613875E0,-1.885986328E-2,-9.216308594E-3,-4.740905762E-2
4.221649276E0,-1.722717285E-2,-5.981445312E-3,-4.849243164E-2
4.226684676E0,-1.722717285E-2,2.059936523E-3,-4.930114746E-2
4.231720077E0,-1.635742188E-2,2.944946289E-3,-4.959106445E-2
4.236755477E0,-1.310729980E-2,-3.372192383E-3,-4.974365234E-2
4.241790877E0,-1.051330566E-2,-1.135253906E-2,-4.853820801E-2
4.246826278E0,-9.750366211E-3,-1.522827148E-2,-4.962158203E-2
4.251861678E0,-9.750366211E-3,-1.135253906E-2,-5.070495605E-2
4.256897079E0,-9.399414062E-3,-5.203247070E-3,-5.178833008E-2
4.261932479E0,-8.316040039E-3,-3.433227539E-3,-5.287170410E-2
4.266967879E0,-6.851196289E-3,-6.057739258E-3,-5.357360840E-2
4.272003280E0,-4.287719727E-3,-1.187133789E-2,-5.397033691E-2
4.277038680E0,-2.700805664E-3,-1.463317871E-2,-5.587768555E-2
4.282074081E0,-3.341674805E-3,-9.262084961E-3,-5.825805664E-2
4.287109481E0,-4.226684570E-3,-1.495361328E-3,-5.891418457E-2
4.292144881E0,-5.935668945E-3,4.974365234E-3,-5.935668945E-2
4.297180282E0,-6.088256836E-3,8.224487305E-3,-5.998229980E-2
4.302215682E0,-4.547119141E-3,5.279541016E-3,-5.903625488E-2
4.307251082E0,-1.907348633E-3,-1.068115234E-3,-5.784606934E-2
4.312286483E0,-6.408691406E-4,-7.171630859E-3,-5.734252930E-2
4.317321883E0,-1.983642578E-4,-8.453369141E-3,-5.625915527E-2
4.322357284E0,1.434326172E-3,-7.324218750E-3,-5.570983887E-2
4.327392684E0,3.051757812E-3,-7.858276367E-3,-5.570983887E-2
4.332428084E0,5.752563477E-3,-8.392333984E-3,-5.679321289E-2
4.337463485E0,7.888793945E-3,-8.956909180E-3,-5.895996094E-2
4.342498885E0,8.972167969E-3,-8.895874023E-3,-6.054687500E-2
4.347534286E0,1.005554199E-2,-9.567260742E-3,-6.105041504E-2
4.352569686E0,1.173400879E-2,-1.232910156E-2,-6.105041504E-2
4.357605086E0,1.388549805E-2,-1.434326172E-2,-6.044006348E-2
4.362640487E0,1.419067383E-2,-1.293945312E-2,-6.059265137E-2
4.367675887E0,1.310729980E-2,-8.422851562E-3,-6.167602539E-2
4.372711288E0,1.136779785E-2,-6.256103516E-3,-6.211853027E-2
4.377746688E0,1.054382324E-2,-8.911132812E-3,-6.144714355E-2
4.382782088E0,1.054382324E-2,-1.052856445E-2,-5.836486816E-2
4.387817489E0,9.857177734E-3,-1.121520996E-2,-5.677795410E-2
4.392852889E0,7.385253906E-3,-9.521484375E-3,-5.746459961E-2
4.397888290E0,6.973266602E-3,-7.690429688E-3,-5.642700195E-2
4.402923690E0,9.490966797E-3,-1.094055176E-2,-5.426025391E-2
4.407959090E0,1.127624512E-2,-1.560974121E-2,-5.503845215E-2
4.412994491E0,1.161193848E-2,-1.396179199E-2,-5.718994141E-2
4.418029891E0,1.312255859E-2,-1.191711426E-2,-5.859375000E-2
4.423065291E0,1.606750488E-2,-1.701354980E-2,-5.967712402E-2
4.428100692E0,2.009582520E-2,-2.694702148E-2,-5.998229980E-2
4.433136092E0,2.441406250E-2,-3.375244141E-2,-6.077575684E-2
4.438171493E0,2.467346191E-2,-3.266906738E-2,-6.347656250E-2
4.443206893E0,2.111816406E-2,-2.033996582E-2,-6.837463379E-2
4.448242293E0,1.683044434E-2,-7.003784180E-3,-7.041931152E-2
4.453277694E0,1.672363281E-2,-7.522583008E-3,-7.319641113E-2
4.458313094E0,1.780700684E-2,-1.704406738E-2,-7.212829590E-2
4.463348495E0,1.889038086E-2,-2.435302734E-2,-6.820678711E-2
4.468383895E0,1.908874512E-2,-2.905273438E-2,-6.567382812E-2
4.473419295E0,1.817321777E-2,-2.975463867E-2,-6.532287598E-2
4.478454696E0,1.618957520E-2,-2.156066895E-2,-6.532287598E-2
4.483490096E0,1.402282715E-2,-1.184082031E-2,-6.532287598E-2
4.488525497E0,1.187133789E-2,-6.790161133E-3,-6.532287598E-2
4.493560897E0,1.255798340E-2,-1.007080078E-2,-6.246948242E-2
4.498587431E0,1.652526855E-2,-2.209472656E-2,-5.921936035E-2
4.503622832E0,1.986694336E-2,-3.018188477E-2,-5.696105957E-2
4.508658232E0,2.113342285E-2,-2.687072754E-2,-5.677795410E-2
4.513693632E0,1.921081543E-2,-1.652526855E-2,-5.476379395E-2
4.518729033E0,2.111816406E-2,-1.586914062E-2,-5.259704590E-2
4.523764433E0,2.430725098E-2,-2.204895020E-2,-5.146789551E-2
4.528799834E0,2.546691895E-2,-2.227783203E-2,-5.038452148E-2
4.533835234E0,2.549743652E-2,-1.911926270E-2,-5.036926270E-2
4.538870634E0,2.656555176E-2,-1.586914062E-2,-5.143737793E-2
4.543906035E0,2.758789062E-2,-1.805114746E-2,-5.249023438E-2
4.548941435E0,2.445983887E-2,-2.105712891E-2,-5.140686035E-2
4.553976836E0,2.651977539E-2,-1.248168945E-2,-5.036926270E-2
4.559012236E0,2.543640137E-2,-7.232666016E-3,-5.026245117E-2
4.564047636E0,2.442932129E-2,-5.615234375E-3,-4.840087891E-2
4.569083037E0,2.464294434E-2,-1.339721680E-2,-5.120849609E-2
4.574118437E0,2.780151367E-2,-2.412414551E-2,-4.823303223E-2
4.579153838E0,2.976989746E-2,-3.306579590E-2,-4.823303223E-2
4.584189238E0,2.920532227E-2,-3.324890137E-2,-4.844665527E-2
4.589224638E0,2.404785156E-2,-2.531433105E-2,-5.073547363E-2
4.594260039E0,2.066040039E-2,-1.531982422E-2,-5.371093750E-2
4.599295439E0,1.679992676E-2,-1.220703125E-2,-5.464172363E-2
4.604330840E0,1.588439941E-2,-1.669311523E-2,-5.447387695E-2
4.609366240E0,1.551818848E-2,-2.157592773E-2,-5.339050293E-2
4.614401640E0,1.298522949E-2,-2.183532715E-2,-5.250549316E-2
4.619437041E0,9.262084961E-3,-1.318359375E-2,-5.209350586E-2
4.624472441E0,8.407592773E-3,-7.553100586E-3,-5.014038086E-2
4.629507841E0,8.621215820E-3,-1.379394531E-2,-4.884338379E-2
4.634543242E0,9.933471680E-3,-1.847839355E-2,-4.644775391E-2
4.639578642E0,1.185607910E-2,-1.914978027E-2,-4.319763184E-2
4.644614043E0,1.214599609E-2,-1.347351074E-2,-4.048156738E-2
4.649649443E0,1.054382324E-2,-6.256103516E-3,-3.912353516E-2
4.654684843E0,1.054382324E-2,-7.125854492E-3,-3.782653809E-2
4.659720244E0,1.113891602E-2,-1.068115234E-2,-3.831481934E-2
4.664755644E0,1.330566406E-2,-1.562500000E-2,-3.660583496E-2
4.669791045E0,1.611328125E-2,-2.014160156E-2,-3.434753418E-2
4.674826445E0,1.873779297E-2,-1.980590820E-2,-3.366088867E-2
4.679861845E0,1.765441895E-2,-1.695251465E-2,-3.221130371E-2
4.684897246E0,1.695251465E-2,-1.119995117E-2,-3.257751465E-2
4.689932646E0,1.808166504E-2,-1.068115234E-2,-3.327941895E-2
4.694968047E0,2.093505859E-2,-1.913452148E-2,-3.327941895E-2
4.700003447E0,2.188110352E-2,-2.859497070E-2,-3.367614746E-2
4.705038847E0,2.079772949E-2,-2.938842773E-2,-3.475952148E-2
4.710074248E0,1.885986328E-2,-2.076721191E-2,-3.584289551E-2
4.715109648E0,1.695251465E-2,-1.109313965E-2,-3.604125977E-2
4.720145049E0,1.741027832E-2,-1.054382324E-2,-3.633117676E-2
4.725180449E0,1.847839355E-2,-2.188110352E-2,-3.755187988E-2
4.730215849E0,1.860046387E-2,-3.373718262E-2,-3.608703613E-2
4.735251250E0,1.701354980E-2,-3.375244141E-2,-3.434753418E-2
4.740286650E0,1.383972168E-2,-2.163696289E-2,-3.382873535E-2
4.745322050E0,9.017944336E-3,-6.973266602E-3,-3.276062012E-2
4.750357451E0,5.737304688E-3,-2.502441406E-3,-3.167724609E-2
4.755392851E0,5.737304688E-3,-1.219177246E-2,-2.790832520E-2
4.760428252E0,5.706787109E-3,-2.516174316E-2,-2.194213867E-2
4.765463652E0,1.770019531E-3,-2.748107910E-2,-1.654052734E-2
4.770499052E0,-4.714965820E-3,-1.791381836E-2,-1.229858398E-2
4.775534453E0,-8.819580078E-3,-7.431030273E-3,-1.023864746E-2
4.780569853E0,-9.155273438E-3,-6.561279297E-3,-6.729125977E-3
4.785605254E0,-6.195068359E-3,-1.400756836E-2,-1.327514648E-3
4.790640654E0,-2.517700195E-3,-2.055358887E-2,2.182006836E-3
4.795676054E0,-3.814697266E-3,-1.515197754E-2,3.036499023E-3
4.800711455E0,-6.805419922E-3,-6.561279297E-3,3.707885742E-3
4.805746855E0,-4.241943359E-3,-1.290893555E-2,5.462646484E-3
4.810782256E0,1.159667969E-3,-2.558898926E-2,5.554199219E-3
4.815817656E0,3.067016602E-3,-2.766418457E-2,4.486083984E-3
4.820853056E0,9.155273438E-4,-1.370239258E-2,5.340576172E-4
4.825888457E0,-4.486083984E-3,5.676269531E-3,-4.119873047E-3
4.830923857E0,-4.348754883E-3,1.042175293E-2,-4.760742188E-3
4.835959257E0,3.814697266E-4,-2.944946289E-3,-2.944946289E-3
4.840994658E0,3.509521484E-3,-1.980590820E-2,-7.781982422E-4
4.846030058E0,2.578735352E-3,-2.674865723E-2,1.388549805E-3
4.851065459E0,-2.731323242E-3,-2.212524414E-2,1.968383789E-3
4.856100859E0,-8.407592773E-3,-1.135253906E-2,1.968383789E-3
4.861136259E0,-1.219177246E-2,-1.892089844E-3,3.601074219E-3
4.866171660E0,-1.379394531E-2,-1.510620117E-3,5.767822266E-3
4.871207060E0,-1.235961914E-2,-1.037597656E-2,7.080078125E-3
4.876242461E0,-1.104736328E-2,-1.777648926E-2,9.017944336E-3
4.881277861E0,-9.963989258E-3,-1.734924316E-2,1.205444336E-2
4.886313261E0,-1.239013672E-2,-1.342773438E-2,1.177978516E-2
4.891348662E0,-1.473999023E-2,-1.266479492E-2,1.248168945E-2
4.896384062E0,-1.239013672E-2,-1.629638672E-2,1.356506348E-2
4.901419463E0,-1.097106934E-2,-1.878356934E-2,1.280212402E-2
4.906454863E0,-1.174926758E-2,-1.260375977E-2,1.358032227E-2
4.911490263E0,-1.377868652E-2,-2.182006836E-3,1.371765137E-2
4.916525664E0,-1.687622070E-2,9.765625000E-4,1.277160645E-2
4.921561064E0,-1.820373535E-2,-7.461547852E-3,1.554870605E-2
4.926596465E0,-1.538085938E-2,-1.718139648E-2,1.585388184E-2
4.931631865E0,-1.509094238E-2,-1.702880859E-2,1.388549805E-2
4.936667265E0,-1.811218262E-2,-1.907348633E-3,1.272583008E-2
4.941702666E0,-2.439880371E-2,1.634216309E-2,1.264953613E-2
4.946738066E0,-2.986145020E-2,1.724243164E-2,1.368713379E-2
4.951773466E0,-2.587890625E-2,3.692626953E-3,1.684570312E-2
4.956808867E0,-1.840209961E-2,-1.353454590E-2,2.220153809E-2
4.961844267E0,-1.722717285E-2,-2.227783203E-2,2.439880371E-2
4.966879668E0,-1.940917969E-2,-9.201049805E-3,2.441406250E-2
4.971915068E0,-2.265930176E-2,1.220703125E-2,2.545166016E-2
4.976950468E0,-2.569580078E-2,2.427673340E-2,2.439880371E-2
4.981985869E0,-2.348327637E-2,1.232910156E-2,2.439880371E-2
4.987021269E0,-2.043151855E-2,2.746582031E-4,2.433776855E-2
4.992056670E0,-2.059936523E-2,3.295898438E-3,2.333068848E-2
4.997092070E0,-2.276611328E-2,1.708984375E-2,2.343750000E-2
5.002127470E0,-2.418518066E-2,2.601623535E-2,2.471923828E-2
5.007162871E0,-1.878356934E-2,1.513671875E-2,2.796936035E-2
5.012198271E0,-1.365661621E-2,-1.228332520E-2,3.131103516E-2
5.017233672E0,-1.110839844E-2,-2.424621582E-2,3.536987305E-2
5.022269072E0,-1.371765137E-2,-1.332092285E-2,3.677368164E-2
5.027304472E0,-1.896667480E-2,3.265380859E-3,3.385925293E-2
5.032339873E0,-2.239990234E-2,7.232666016E-3,3.312683105E-2
5.037375273E0,-2.113342285E-2,-8.087158203E-4,3.364562988E-2
5.042410674E0,-1.896667480E-2,-4.180908203E-3,3.228759766E-2
5.047446074E0,-1.722717285E-2,2.304077148E-3,3.379821777E-2
5.052481474E0,-1.722717285E-2,1.173400879E-2,3.273010254E-2
5.057516875E0,-1.631164551E-2,1.440429688E-2,3.164672852E-2
5.062552275E0,-1.245117188E-2,9.857177734E-3,3.106689453E-2
5.067587675E0,-1.002502441E-2,9.307861328E-4,3.268432617E-2
5.072623076E0,-7.064819336E-3,-7.385253906E-3,3.564453125E-2
5.077658476E0,-5.477905273E-3,-9.063720703E-3,3.721618652E-2
5.082693877E0,-6.103515625E-3,-2.746582031E-4,3.660583496E-2
5.087729277E0,-8.270263672E-3,1.510620117E-2,3.475952148E-2
5.092764677E0,-9.429931641E-3,2.090454102E-2,3.434753418E-2
5.097800078E0,-7.644653320E-3,1.202392578E-2,3.507995605E-2
5.102835478E0,-5.126953125E-3,-9.460449219E-4,3.507995605E-2
5.107870879E0,-4.791259766E-3,-2.212524414E-3,3.434753418E-2
5.112906279E0,-7.034301758E-3,8.377075195E-3,3.256225586E-2
5.117941679E0,-1.095581055E-2,1.843261719E-2,3.187561035E-2
5.122977080E0,-1.295471191E-2,1.713562012E-2,3.230285645E-2
5.128012480E0,-1.168823242E-2,8.087158203E-3,3.337097168E-2
5.133047881E0,-8.895874023E-3,9.765625000E-4,3.445434570E-2
5.138083281E0,-9.399414062E-3,2.639770508E-3,3.553771973E-2
5.143118681E0,-1.235961914E-2,1.174926758E-2,3.523254395E-2
5.148154082E0,-1.295471191E-2,1.959228516E-2,3.355407715E-2
5.153189482E0,-1.199340820E-2,2.062988281E-2,3.392028809E-2
5.158224882E0,-9.338378906E-3,1.382446289E-2,3.558349609E-2
5.163260283E0,-6.088256836E-3,7.156372070E-3,3.666687012E-2
5.168295683E0,-3.890991211E-3,7.583618164E-3,3.775024414E-2
5.173331084E0,-3.890991211E-3,1.298522949E-2,3.883361816E-2
5.178366484E0,-4.409790039E-3,1.727294922E-2,3.935241699E-2
5.183401884E0,-3.860473633E-3,1.831054688E-2,4.048156738E-2
5.188437285E0,-3.341674805E-3,1.484680176E-2,4.092407227E-2
5.193472685E0,-2.166748047E-3,1.013183594E-2,4.042053223E-2
5.198508086E0,-1.815795898E-3,1.049804688E-2,4.103088379E-2
5.203543486E0,-3.509521484E-3,1.374816895E-2,4.148864746E-2
5.208578886E0,-5.676269531E-3,1.698303223E-2,3.961181641E-2
5.213614287E0,-7.202148438E-3,2.023315430E-2,3.828430176E-2
5.218649687E0,-8.926391602E-3,2.215576172E-2,3.698730469E-2
5.223685088E0,-1.042175293E-2,2.587890625E-2,3.681945801E-2
5.228720488E0,-1.150512695E-2,3.060913086E-2,3.790283203E-2
5.233755888E0,-1.258850098E-2,3.080749512E-2,3.898620605E-2
5.238791289E0,-1.014709473E-2,2.581787109E-2,4.077148438E-2
5.243826689E0,-6.546020508E-3,1.791381836E-2,4.364013672E-2
5.248862090E0,-2.578735352E-3,1.072692871E-2,4.760742188E-2
5.253897490E0,-1.205444336E-3,8.697509766E-3,4.896545410E-2
5.258932890E0,-2.716064453E-3,1.547241211E-2,4.972839355E-2
5.263968291E0,-3.341674805E-3,2.059936523E-2,4.927062988E-2
5.269003691E0,-2.288818359E-4,1.838684082E-2,4.663085938E-2
5.274039091E0,3.311157227E-3,1.324462891E-2,4.656982422E-2
5.279074492E0,3.311157227E-3,1.596069336E-2,4.521179199E-2
5.284109892E0,1.403808594E-3,2.796936035E-2,4.222106934E-2
5.289145293E0,9.155273438E-5,3.614807129E-2,4.066467285E-2
5.294180693E0,2.410888672E-3,2.645874023E-2,4.127502441E-2
5.299216093E0,3.921508789E-3,9.811401367E-3,4.063415527E-2
5.304251494E0,4.135131836E-3,3.036499023E-3,4.042053223E-2
5.309286894E0,2.349853516E-3,8.514404297E-3,3.953552246E-2
5.314322295E0,1.083374023E-3,1.969909668E-2,3.845214844E-2
5.319357695E0,9.307861328E-4,2.426147461E-2,3.462219238E-2
5.324393095E0,1.846313477E-3,2.192687988E-2,3.216552734E-2
5.329428496E0,3.875732422E-3,2.056884766E-2,2.905273438E-2
5.334463896E0,5.081176758E-3,2.044677734E-2,2.772521973E-2
5.339499297E0,7.125854492E-3,2.140808105E-2,2.568054199E-2
5.344534697E0,1.121520996E-2,1.860046387E-2,2.450561523E-2
5.349570097E0,1.553344727E-2,1.338195801E-2,2.439880371E-2
5.354605498E0,1.687622070E-2,1.097106934E-2,2.241516113E-2
5.359640898E0,1.893615723E-2,1.679992676E-2,2.127075195E-2
5.364676299E0,1.806640625E-2,1.824951172E-2,2.119445801E-2
5.369711699E0,2.008056641E-2,1.416015625E-2,2.119445801E-2
5.374747099E0,2.015686035E-2,1.403808594E-2,2.119445801E-2
5.379782500E0,1.908874512E-2,2.359008789E-2,2.333068848E-2
5.384817900E0,1.908874512E-2,2.897644043E-2,2.442932129E-2
5.389853300E0,1.905822754E-2,2.781677246E-2,2.763366699E-2
5.394888701E0,1.794433594E-2,2.244567871E-2,2.871704102E-2
5.399924101E0,1.588439941E-2,1.824951172E-2,2.964782715E-2
5.404959502E0,1.593017578E-2,1.728820801E-2,2.760314941E-2
5.409994902E0,1.701354980E-2,1.808166504E-2,2.775573730E-2
5.415030302E0,1.792907715E-2,1.484680176E-2,2.973937988E-2
5.420065703E0,1.704406738E-2,1.219177246E-2,2.955627441E-2
5.425101103E0,1.789855957E-2,1.554870605E-2,2.728271484E-2
5.430136504E0,1.669311523E-2,1.986694336E-2,2.415466309E-2
5.435171904E0,1.481628418E-2,2.365112305E-2,2.212524414E-2
5.440207304E0,1.541137695E-2,2.304077148E-2,2.090454102E-2
5.445242705E0,1.940917969E-2,1.887512207E-2,1.890563965E-2
5.450278105E0,2.104187012E-2,1.580810547E-2,1.763916016E-2
5.455313506E0,1.995849609E-2,1.554870605E-2,1.585388184E-2
5.460348906E0,1.887512207E-2,2.398681641E-2,1.585388184E-2
5.465384306E0,1.843261719E-2,2.941894531E-2,1.585388184E-2
5.470419707E0,2.107238770E-2,2.432250977E-2,1.632690430E-2
5.475455107E0,2.394104004E-2,1.364135742E-2,1.823425293E-2
5.480490507E0,2.151489258E-2,1.022338867E-2,1.855468750E-2
5.485525908E0,1.828002930E-2,1.831054688E-2,1.638793945E-2
5.490561308E0,1.588439941E-2,2.984619141E-2,1.478576660E-2
5.495596709E0,1.615905762E-2,3.453063965E-2,1.422119141E-2
5.500632109E0,1.724243164E-2,2.976989746E-2,1.264953613E-2
5.505667509E0,1.770019531E-2,2.111816406E-2,1.296997070E-2
5.510702910E0,1.727294922E-2,1.477050781E-2,1.339721680E-2
5.515738310E0,1.766967773E-2,1.470947266E-2,1.164245605E-2
5.520773711E0,1.658630371E-2,1.652526855E-2,9.445190430E-3
5.525809111E0,1.588439941E-2,1.649475098E-2,9.078979492E-3
5.530844511E0,1.588439941E-2,1.358032227E-2,8.377075195E-3
5.535879912E0,1.548767090E-2,1.200866699E-2,8.377075195E-3
5.540915312E0,1.359558105E-2,1.687622070E-2,8.377075195E-3
5.545950713E0,1.161193848E-2,2.192687988E-2,8.377075195E-3
5.550986113E0,1.246643066E-2,1.954650879E-2,9.246826172E-3
5.556021513E0,1.419067383E-2,1.063537598E-2,1.141357422E-2
5.561056914E0,1.481628418E-2,5.340576172E-3,1.312255859E-2
5.566092314E0,1.245117188E-2,1.315307617E-2,1.325988770E-2
5.571127715E0,7.522583008E-3,2.828979492E-2,1.264953613E-2
5.576163115E0,6.683349609E-3,3.497314453E-2,1.216125488E-2
5.581198515E0,9.414672852E-3,2.713012695E-2,1.312255859E-2
5.586233916E0,1.158142090E-2,1.676940918E-2,1.583862305E-2
5.591269316E0,1.268005371E-2,1.403808594E-2,1.852416992E-2
5.596304716E0,1.103210449E-2,1.728820801E-2,2.122497559E-2
5.601340117E0,8.346557617E-3,2.218627930E-2,2.058410645E-2
5.606375517E0,7.904052734E-3,2.644348145E-2,1.849365234E-2
5.611410918E0,8.987426758E-3,3.025817871E-2,1.741027832E-2
5.616446318E0,8.865356445E-3,3.039550781E-2,1.632690430E-2
5.621481718E0,5.966186523E-3,2.655029297E-2,1.525878906E-2
5.626517119E0,4.135131836E-3,2.282714844E-2,1.416015625E-2
5.631552519E0,4.760742188E-3,2.023315430E-2,1.371765137E-2
5.636587920E0,3.890991211E-3,2.067565918E-2,1.307678223E-2
5.641623320E0,2.395629883E-3,2.217102051E-2,1.066589355E-2
5.646658720E0,1.312255859E-3,2.325439453E-2,8.102416992E-3
5.651694121E0,2.288818359E-4,2.294921875E-2,6.622314453E-3
5.656729521E0,-1.373291016E-4,2.047729492E-2,5.554199219E-3
5.661764922E0,1.266479492E-3,1.373291016E-2,3.768920898E-3
5.666800322E0,4.165649414E-3,7.934570312E-3,3.036499023E-3
5.671835722E0,3.707885742E-3,8.773803711E-3,7.629394531E-5
5.676871123E0,4.577636719E-5,1.428222656E-2,-1.983642578E-3
5.681906523E0,-1.983642578E-3,1.846313477E-2,-3.829956055E-3
5.686941924E0,-7.171630859E-4,1.391601562E-2,-5.218505859E-3
5.691977324E0,3.021240234E-3,3.173828125E-3,-4.714965820E-3
5.697012724E0,4.135131836E-3,-2.273559570E-3,-2.822875977E-3
5.702048125E0,1.663208008E-3,1.037597656E-3,-6.561279297E-4
5.707083525E0,-1.571655273E-3,9.765625000E-3,-1.831054688E-3
5.712118925E0,-3.128051758E-3,1.696777344E-2,-3.143310547E-3
5.717154326E0,-2.487182617E-3,1.400756836E-2,-1.647949219E-3
5.722189726E0,-5.340576172E-4,6.866455078E-3,-3.509521484E-4
5.727225127E0,-1.373291016E-4,6.362915039E-3,-1.037597656E-3
5.732260527E0,-1.037597656E-3,1.283264160E-2,-3.921508789E-3
5.737295927E0,-2.120971680E-3,1.403808594E-2,-3.524780273E-3
5.742331328E0,-2.273559570E-3,6.683349609E-3,-4.287719727E-3
5.747366728E0,-1.342773438E-3,-1.998901367E-3,-3.494262695E-3
5.752402129E0,-3.112792969E-3,-5.905151367E-3,-5.264282227E-3
5.757437529E0,-4.302978516E-3,-5.187988281E-4,-7.415771484E-3
5.762472929E0,-8.300781250E-3,8.880615234E-3,-1.054382324E-2
5.767508330E0,-1.065063477E-2,1.074218750E-2,-9.857177734E-3
5.772543730E0,-1.182556152E-2,4.852294922E-3,-9.780883789E-3
5.777579131E0,-1.087951660E-2,-4.714965820E-3,-8.758544922E-3
5.782614531E0,-8.773803711E-3,-1.031494141E-2,-6.652832031E-3
5.787649931E0,-5.584716797E-3,-1.156616211E-2,-5.538940430E-3
5.792685332E0,-6.530761719E-3,-5.310058594E-3,-6.546020508E-3
5.797720732E0,-7.614135742E-3,4.364013672E-3,-8.697509766E-3
5.802756132E0,-7.614135742E-3,1.187133789E-2,-7.644653320E-3
5.807791533E0,-6.515502930E-3,8.544921875E-3,-7.644653320E-3
5.812826933E0,-4.348754883E-3,1.220703125E-3,-7.537841797E-3
5.817862334E0,-2.334594727E-3,1.403808594E-3,-4.379272461E-3
5.822897734E0,-3.341674805E-3,5.722045898E-3,-3.417968750E-3
5.827933134E0,-3.631591797E-3,9.536743164E-3,-4.287719727E-3
5.832968535E0,-7.537841797E-3,6.134033203E-3,-2.212524414E-3
5.838003935E0,-6.546020508E-3,9.155273438E-4,-1.129150391E-3
5.843039336E0,-6.774902344E-3,-1.770019531E-3,-1.678466797E-4
5.848074736E0,-9.307861328E-3,1.144409180E-3,-2.899169922E-4
5.853110136E0,-1.417541504E-2,9.109497070E-3,-1.235961914E-3
5.858145537E0,-1.539611816E-2,1.129150391E-2,-1.373291016E-3
5.863180937E0,-1.707458496E-2,6.515502930E-3,-2.304077148E-3
5.868216338E0,-1.599121094E-2,3.204345703E-4,-2.304077148E-3
5.873251738E0,-1.490783691E-2,1.403808594E-3,-2.670288086E-3
5.878287138E0,-1.441955566E-2,3.067016602E-3,-4.623413086E-3
5.883322539E0,-1.596069336E-2,6.561279297E-3,-5.920410156E-3
5.888357939E0,-1.509094238E-2,5.661010742E-3,-7.644653320E-3
5.893393340E0,-1.438903809E-2,1.342773438E-3,-7.873535156E-3
5.898428740E0,-1.164245605E-2,-1.739501953E-3,-8.956909180E-3
5.903464140E0,-1.161193848E-2,3.814697266E-4,-9.780883789E-3
5.908499541E0,-1.431274414E-2,5.249023438E-3,-1.033020020E-2
5.913534941E0,-1.538085938E-2,7.049560547E-3,-1.191711426E-2
5.918570341E0,-1.615905762E-2,3.067016602E-3,-1.161193848E-2
5.923605742E0,-1.647949219E-2,-3.692626953E-3,-1.084899902E-2
5.928641142E0,-1.658630371E-2,-3.555297852E-3,-1.116943359E-2
5.933676543E0,-1.544189453E-2,1.510620117E-3,-1.191711426E-2
5.938711943E0,-1.580810547E-2,3.356933594E-3,-1.119995117E-2
5.943747343E0,-1.509094238E-2,-9.918212891E-4,-9.033203125E-3
5.948782744E0,-1.434326172E-2,-5.187988281E-3,-7.263183594E-3
5.953818144E0,-1.257324219E-2,-5.187988281E-3,-6.958007812E-3
5.958853545E0,-1.148986816E-2,-4.379272461E-3,-7.232666016E-3
5.963888945E0,-1.000976562E-2,-2.243041992E-3,-6.164550781E-3
5.968924345E0,-9.109497070E-3,-1.754760742E-3,-5.508422852E-3
5.973959746E0,-1.063537598E-2,-3.936767578E-3,-5.065917969E-3
5.978995146E0,-1.054382324E-2,-4.745483398E-3,-4.440307617E-3
5.984030547E0,-8.224487305E-3,-4.119873047E-3,-3.967285156E-3
5.989065947E0,-8.102416992E-3,-4.608154297E-3,-3.845214844E-3
5.994101347E0,-9.185791016E-3,-4.699707031E-3,-3.936767578E-3
5.999136748E0,-9.750366211E-3,-4.119873047E-3,-3.372192383E-3
6.004172148E0,-1.078796387E-2,-3.616333008E-3,-3.875732422E-3
6.009207549E0,-1.083374023E-2,-3.585815430E-3,-4.959106445E-3
6.014242949E0,-8.132934570E-3,-5.218505859E-3,-6.591796875E-3
6.019278349E0,-6.546020508E-3,-6.256103516E-3,-8.758544922E-3
6.024313750E0,-5.981445312E-3,-5.691528320E-3,-1.091003418E-2
6.029349150E0,-7.232666016E-3,-2.868652344E-3,-1.365661621E-2
6.034384550E0,-8.682250977E-3,-1.525878906E-3,-1.571655273E-2
6.039419951E0,-8.087158203E-3,-5.645751953E-3,-1.678466797E-2
6.044455351E0,-7.003784180E-3,-1.213073730E-2,-1.663208008E-2
6.049490752E0,-6.546020508E-3,-1.608276367E-2,-1.681518555E-2
6.054526152E0,-7.202148438E-3,-1.240539551E-2,-1.855468750E-2
6.059561552E0,-8.285522461E-3,-7.476806641E-3,-2.070617676E-2
6.064596953E0,-1.004028320E-2,-6.942749023E-3,-2.084350586E-2
6.069632353E0,-1.081848145E-2,-9.399414062E-3,-1.976013184E-2
6.074667754E0,-1.081848145E-2,-9.140014648E-3,-1.939392090E-2
6.079703154E0,-1.011657715E-2,-9.109497070E-3,-1.867675781E-2
6.084738554E0,-9.033203125E-3,-1.310729980E-2,-1.759338379E-2
6.089773955E0,-7.949829102E-3,-1.554870605E-2,-1.725769043E-2
6.094809355E0,-5.371093750E-3,-1.362609863E-2,-1.800537109E-2
6.099844756E0,-3.662109375E-3,-8.865356445E-3,-1.756286621E-2
6.104880156E0,-1.800537109E-3,-7.324218750E-3,-1.570129395E-2
6.109915556E0,-4.272460938E-4,-9.704589844E-3,-1.353454590E-2
6.114950957E0,1.464843750E-3,-1.293945312E-2,-1.217651367E-2
6.119986357E0,4.425048828E-3,-1.455688477E-2,-1.109313965E-2
6.125021757E0,6.027221680E-3,-1.480102539E-2,-9.185791016E-3
6.130057158E0,5.432128906E-3,-1.145935059E-2,-9.536743164E-3
6.135092558E0,5.203247070E-3,-6.271362305E-3,-9.780883789E-3
6.140127959E0,5.203247070E-3,-5.187988281E-3,-1.063537598E-2
6.145163359E0,5.203247070E-3,-7.827758789E-3,-1.084899902E-2
6.150198759E0,7.873535156E-3,-1.553344727E-2,-9.063720703E-3
6.155234160E0,9.307861328E-3,-1.965332031E-2,-8.712768555E-3
6.160269560E0,7.629394531E-3,-1.739501953E-2,-9.628295898E-3
6.165304961E0,7.339477539E-3,-1.136779785E-2,-9.780883789E-3
6.170340361E0,5.447387695E-3,-5.813598633E-3,-1.165771484E-2
6.175375761E0,5.203247070E-3,-6.149291992E-3,-1.191711426E-2
6.180411162E0,6.164550781E-3,-1.304626465E-2,-1.287841797E-2
6.185446562E0,6.271362305E-3,-1.963806152E-2,-1.199340820E-2
6.190481963E0,6.271362305E-3,-2.313232422E-2,-1.191711426E-2
6.195517363E0,6.271362305E-3,-1.629638672E-2,-1.191711426E-2
6.200552763E0,4.226684570E-3,-6.683349609E-3,-1.292419434E-2
6.205588164E0,3.097534180E-3,-3.158569336E-3,-1.400756836E-2
6.210623564E0,5.142211914E-3,-8.270263672E-3,-1.196289062E-2
6.215658965E0,8.361816406E-3,-1.789855957E-2,-1.084899902E-2
6.220694365E0,1.054382324E-2,-2.227783203E-2,-7.644653320E-3
6.225729765E0,1.054382324E-2,-2.006530762E-2,-6.561279297E-3
6.230765166E0,1.051330566E-2,-1.358032227E-2,-5.508422852E-3
6.235800566E0,9.552001953E-3,-7.324218750E-3,-5.416870117E-3
6.240835966E0,1.176452637E-2,-7.598876953E-3,-3.311157227E-3
6.245871367E0,1.481628418E-2,-1.293945312E-2,-2.304077148E-3
6.250906767E0,1.489257812E-2,-1.693725586E-2,-2.136230469E-3
6.255942168E0,1.577758789E-2,-1.647949219E-2,-2.593994141E-4
6.260977568E0,1.470947266E-2,-1.086425781E-2,-1.434326172E-3
6.266012968E0,1.362609863E-2,-3.784179688E-3,-3.479003906E-3
6.271048369E0,1.290893555E-2,-1.281738281E-3,-4.547119141E-3
6.276083769E0,1.481628418E-2,-5.569458008E-3,-5.508422852E-3
6.281119170E0,1.496887207E-2,-1.559448242E-2,-5.340576172E-3
6.286154570E0,1.570129395E-2,-1.930236816E-2,-4.608154297E-3
6.291189970E0,1.443481445E-2,-1.315307617E-2,-5.691528320E-3
6.296225371E0,1.188659668E-2,-4.211425781E-3,-6.576538086E-3
6.301260771E0,7.980346680E-3,-2.746582031E-4,-6.576538086E-3
6.306296172E0,6.927490234E-3,-3.768920898E-3,-6.576538086E-3
6.311331572E0,9.933471680E-3,-1.171875000E-2,-6.332397461E-3
6.316366972E0,1.110839844E-2,-1.586914062E-2,-5.508422852E-3
6.321402373E0,8.956909180E-3,-1.408386230E-2,-6.011962891E-3
6.326437773E0,7.598876953E-3,-6.256103516E-3,-8.178710938E-3
6.331473174E0,8.407592773E-3,1.525878906E-4,-1.005554199E-2
6.336508574E0,8.987426758E-3,-1.327514648E-3,-1.025390625E-2
6.341543974E0,1.115417480E-2,-7.049560547E-3,-8.087158203E-3
6.346579375E0,1.300048828E-2,-1.159667969E-2,-5.920410156E-3
6.351614775E0,1.406860352E-2,-1.026916504E-2,-3.768920898E-3
6.356650175E0,1.515197754E-2,-6.637573242E-3,-2.639770508E-3
6.361685576E0,1.623535156E-2,-5.187988281E-3,-2.639770508E-3
6.366720976E0,1.768493652E-2,-6.317138672E-3,-1.068115234E-4
6.371756377E0,1.869201660E-2,-7.629394531E-3,2.365112305E-3
6.376791777E0,1.721191406E-2,-3.067016602E-3,1.846313477E-3
6.381827177E0,1.588439941E-2,3.112792969E-3,-5.798339844E-4
6.386862578E0,1.629638672E-2,2.288818359E-3,-3.814697266E-4
6.391897978E0,1.737976074E-2,-3.997802734E-3,9.002685547E-4
6.396933379E0,1.756286621E-2,-1.066589355E-2,9.002685547E-4
6.401968779E0,1.602172852E-2,-1.234436035E-2,4.425048828E-4
6.407004179E0,1.336669922E-2,-9.582519531E-3,-1.113891602E-3
6.412039580E0,1.161193848E-2,-6.439208984E-3,-2.792358398E-3
6.417074980E0,1.161193848E-2,-4.623413086E-3,-5.371093750E-3
6.422110381E0,1.109313965E-2,-6.225585938E-3,-8.666992188E-3
6.427145781E0,8.941650391E-3,-5.737304688E-3,-9.780883789E-3
6.432181181E0,6.790161133E-3,-1.953125000E-3,-1.031494141E-2
6.437216582E0,6.271362305E-3,-4.119873047E-4,-1.196289062E-2
6.442251982E0,6.835937500E-3,-4.913330078E-3,-1.240539551E-2
6.447287382E0,8.499145508E-3,-1.132202148E-2,-1.132202148E-2
6.452322783E0,1.007080078E-2,-1.254272461E-2,-1.023864746E-2
6.457358183E0,9.323120117E-3,-8.560180664E-3,-9.780883789E-3
6.462393584E0,8.407592773E-3,-5.004882812E-3,-9.140014648E-3
6.467428984E0,9.674072266E-3,-4.760742188E-3,-8.071899414E-3
6.472464384E0,1.054382324E-2,-6.500244141E-3,-6.332397461E-3
6.477499785E0,9.872436523E-3,-6.011962891E-3,-5.508422852E-3
6.482535185E0,1.014709473E-2,-2.502441406E-3,-4.821777344E-3
6.487570586E0,9.841918945E-3,-2.288818359E-4,-4.440307617E-3
6.492605986E0,1.086425781E-2,-3.356933594E-3,-3.738403320E-3
6.497641386E0,1.161193848E-2,-8.773803711E-3,-2.655029297E-3
6.502676787E0,1.232910156E-2,-1.126098633E-2,-3.021240234E-3
6.507712187E0,1.118469238E-2,-7.904052734E-3,-4.104614258E-3
6.512747588E0,9.033203125E-3,-2.502441406E-3,-4.440307617E-3
6.517782988E0,7.644653320E-3,-1.678466797E-3,-4.440307617E-3
6.522818388E0,7.339477539E-3,-5.859375000E-3,-6.759643555E-3
6.527853789E0,8.117675781E-3,-8.911132812E-3,-9.216308594E-3
6.532889189E0,8.407592773E-3,-8.666992188E-3,-9.780883789E-3
6.537924590E0,6.774902344E-3,-2.716064453E-3,-9.780883789E-3
6.542959990E0,7.095336914E-3,7.324218750E-4,-8.941650391E-3
6.547995390E0,6.500244141E-3,-2.136230469E-3,-8.712768555E-3
6.553030791E0,7.110595703E-3,-7.324218750E-3,-7.003784180E-3
6.558066191E0,8.193969727E-3,-1.013183594E-2,-8.300781250E-3
6.563101591E0,1.016235352E-2,-1.141357422E-2,-7.827758789E-3
6.568136992E0,7.873535156E-3,-9.826660156E-3,-6.744384766E-3
6.573172392E0,7.339477539E-3,-5.920410156E-3,-6.576538086E-3
6.578207793E0,8.239746094E-3,-2.471923828E-3,-7.476806641E-3
6.583243193E0,5.615234375E-3,-1.068115234E-3,-6.713867188E-3
6.588278593E0,5.203247070E-3,-2.792358398E-3,-5.630493164E-3
6.593313994E0,5.203247070E-3,-3.051757812E-3,-6.454467773E-3
6.598349394E0,7.125854492E-3,-3.051757812E-3,-3.677368164E-3
6.603384795E0,7.339477539E-3,-1.113891602E-3,-2.395629883E-3
6.608420195E0,7.339477539E-3,-2.899169922E-3,-2.304077148E-3
6.613455595E0,7.339477539E-3,-5.065917969E-3,-4.302978516E-3
6.618490996E0,7.339477539E-3,-5.187988281E-3,-3.417968750E-3
6.623526396E0,6.301879883E-3,-2.105712891E-3,-1.312255859E-3
6.628561797E0,8.346557617E-3,-1.983642578E-3,-2.273559570E-3
6.633597197E0,9.460449219E-3,-4.104614258E-3,-1.235961914E-3
6.638632597E0,7.339477539E-3,-1.983642578E-3,-2.304077148E-3
6.643667998E0,5.203247070E-3,-9.155273438E-4,-3.372192383E-3
6.648703398E0,5.142211914E-3,-9.002685547E-4,-3.372192383E-3
6.653738799E0,3.097534180E-3,-1.525878906E-5,-3.372192383E-3
6.658774199E0,4.180908203E-3,-4.272460938E-3,-3.463745117E-3
6.663809599E0,5.081176758E-3,-7.446289062E-3,-5.508422852E-3
6.668845000E0,3.067016602E-3,-9.399414062E-3,-5.508422852E-3
6.673880400E0,2.883911133E-3,-8.132934570E-3,-5.508422852E-3
6.678915800E0,1.022338867E-3,-5.096435547E-3,-5.599975586E-3
6.683951201E0,1.998901367E-3,-4.119873047E-3,-6.683349609E-3
6.688986601E0,1.998901367E-3,-4.379272461E-3,-7.888793945E-3
6.694022002E0,2.136230469E-3,-6.256103516E-3,-9.918212891E-3
6.699057402E0,2.914428711E-3,-6.118774414E-3,-1.069641113E-2
6.704092802E0,1.831054688E-3,-4.867553711E-3,-9.780883789E-3
6.709128203E0,9.307861328E-4,-2.349853516E-3,-9.780883789E-3
6.714163603E0,7.324218750E-4,1.586914062E-3,-9.780883789E-3
6.719199004E0,6.103515625E-5,2.746582031E-3,-9.567260742E-3
6.724234404E0,1.144409180E-3,-5.035400391E-4,-8.712768555E-3
6.729269804E0,1.998901367E-3,-3.051757812E-3,-8.468627930E-3
6.734305205E0,1.998901367E-3,-2.822875977E-3,-7.644653320E-3
6.739340605E0,1.480102539E-3,-1.480102539E-3,-7.385253906E-3
6.744376006E0,6.408691406E-4,1.525878906E-4,-6.576538086E-3
6.749411406E0,2.777099609E-3,-6.866455078E-4,-6.851196289E-3
6.754446806E0,1.998901367E-3,-2.487182617E-3,-7.919311523E-3
6.759482207E0,1.998901367E-3,-1.220703125E-3,-8.407592773E-3
6.764517607E0,1.678466797E-3,-7.171630859E-4,-8.270263672E-3
6.769553007E0,5.950927734E-4,1.953125000E-3,-1.075744629E-2
6.774588408E0,-4.882812500E-4,5.340576172E-4,-1.332092285E-2
6.779623808E0,-8.544921875E-4,-1.983642578E-3,-1.440429688E-2
6.784659209E0,-1.373291016E-4,-3.753662109E-3,-1.512145996E-2
6.789694609E0,-9.002685547E-4,-1.541137695E-3,-1.548767090E-2
6.794730009E0,-2.273559570E-3,8.239746094E-4,-1.657104492E-2
6.799765410E0,-2.685546875E-3,1.525878906E-4,-1.806640625E-2
6.804800810E0,-3.341674805E-3,-1.113891602E-3,-1.980590820E-2
6.809836211E0,-2.487182617E-3,-3.051757812E-3,-2.046203613E-2
6.814871611E0,-1.205444336E-3,-1.739501953E-3,-2.001953125E-2
6.819907011E0,-1.678466797E-3,-3.204345703E-4,-1.985168457E-2
6.824942412E0,-2.273559570E-3,-4.577636719E-4,-2.091979980E-2
6.829977812E0,-2.761840820E-3,-8.239746094E-4,-2.055358887E-2
6.835013213E0,-3.341674805E-3,-1.495361328E-3,-1.889038086E-2
6.840048613E0,-3.860473633E-3,1.602172852E-3,-1.780700684E-2
6.845084013E0,-4.928588867E-3,3.906250000E-3,-1.725769043E-2
6.850119414E0,-4.959106445E-3,2.822875977E-3,-1.672363281E-2
6.855154814E0,-3.875732422E-3,1.739501953E-3,-1.618957520E-2
6.860190215E0,-3.906250000E-3,1.220703125E-3,-1.506042480E-2
6.865225615E0,-5.554199219E-3,1.785278320E-3,-1.461791992E-2
6.870261015E0,-6.546020508E-3,2.288818359E-3,-1.512145996E-2
6.875296416E0,-6.546020508E-3,1.098632812E-3,-1.512145996E-2
6.880331816E0,-7.156372070E-3,1.525878906E-4,-1.451110840E-2
6.885367216E0,-7.614135742E-3,1.525878906E-4,-1.466369629E-2
6.890402617E0,-8.255004883E-3,1.419067383E-3,-1.512145996E-2
6.895438017E0,-8.682250977E-3,2.929687500E-3,-1.446533203E-2
6.900473418E0,-8.682250977E-3,2.029418945E-3,-1.536560059E-2
6.905508818E0,-8.682250977E-3,1.220703125E-3,-1.686096191E-2
6.910544218E0,-7.995605469E-3,-8.544921875E-4,-1.655578613E-2
6.915579619E0,-8.316040039E-3,-1.296997070E-3,-1.687622070E-2
6.920615019E0,-7.980346680E-3,-2.136230469E-4,-1.795959473E-2
6.925650420E0,-7.614135742E-3,8.697509766E-4,-1.759338379E-2
6.930685820E0,-6.149291992E-3,1.220703125E-3,-1.577758789E-2
6.935721220E0,-5.477905273E-3,1.953125000E-3,-1.585388184E-2
6.940756621E0,-6.256103516E-3,1.510620117E-3,-1.618957520E-2
6.945792021E0,-5.783081055E-3,1.220703125E-3,-1.541137695E-2
6.950827422E0,-5.477905273E-3,2.792358398E-3,-1.512145996E-2
6.955862822E0,-5.477905273E-3,1.754760742E-3,-1.512145996E-2
6.960898222E0,-7.110595703E-3,3.967285156E-4,-1.429748535E-2
6.965933623E0,-7.614135742E-3,1.525878906E-4,-1.156616211E-2
6.970969023E0,-1.013183594E-2,2.655029297E-3,-1.000976562E-2
6.976004424E0,-1.167297363E-2,4.196166992E-3,-1.062011719E-2
6.981039824E0,-1.275634766E-2,2.685546875E-3,-9.979248047E-3
6.986075224E0,-1.295471191E-2,2.288818359E-3,-8.010864258E-3
6.991110625E0,-1.295471191E-2,1.388549805E-3,-6.744384766E-3
6.996146025E0,-1.115417480E-2,3.051757812E-4,-7.476806641E-3
7.001181425E0,-1.174926758E-2,2.899169922E-3,-7.644653320E-3
7.006216826E0,-1.188659668E-2,5.203247070E-3,-8.560180664E-3
7.011252226E0,-1.095581055E-2,4.547119141E-3,-7.766723633E-3
7.016287627E0,-7.949829102E-3,1.541137695E-3,-8.590698242E-3
7.021323027E0,-8.590698242E-3,2.182006836E-3,-8.712768555E-3
7.026358427E0,-6.744384766E-3,3.250122070E-3,-9.674072266E-3
7.031393828E0,-3.570556641E-3,4.348754883E-3,-6.790161133E-3
7.036429228E0,-3.341674805E-3,6.423950195E-3,-7.568359375E-3
7.041464629E0,-3.341674805E-3,6.561279297E-3,-8.651733398E-3
7.046500029E0,-1.296997070E-3,6.561279297E-3,-8.712768555E-3
7.051535429E0,8.697509766E-4,7.598876953E-3,-7.659912109E-3
7.056570830E0,9.307861328E-4,5.508422852E-3,-7.644653320E-3
7.061606230E0,9.307861328E-4,5.493164062E-3,-6.576538086E-3
7.066641631E0,1.983642578E-3,3.387451172E-3,-7.644653320E-3
7.071677031E0,8.697509766E-4,6.637573242E-3,-7.644653320E-3
7.076712431E0,-1.174926758E-3,9.918212891E-3,-7.598876953E-3
7.081747832E0,-9.155273438E-5,1.382446289E-2,-6.515502930E-3
7.086783232E0,9.918212891E-4,9.368896484E-3,-5.508422852E-3
7.091818632E0,1.907348633E-3,3.189086914E-3,-5.416870117E-3
7.096854033E0,9.307861328E-4,1.678466797E-3,-4.333496094E-3
7.101889433E0,9.307861328E-4,7.186889648E-3,-3.463745117E-3
7.106924834E0,1.037597656E-3,1.260375977E-2,-4.440307617E-3
7.111960234E0,2.120971680E-3,8.972167969E-3,-4.302978516E-3
7.116995634E0,3.204345703E-3,3.067016602E-3,-3.372192383E-3
7.122031035E0,3.967285156E-3,1.831054688E-3,-3.372192383E-3
7.127066435E0,2.899169922E-3,6.790161133E-3,-3.372192383E-3
7.132101836E0,1.998901367E-3,1.403808594E-2,-3.189086914E-3
7.137137236E0,2.182006836E-3,1.327514648E-2,-1.922607422E-3
7.142172636E0,3.463745117E-3,9.155273438E-3,4.577636719E-5
7.147208037E0,5.630493164E-3,6.561279297E-3,9.002685547E-4
7.152243437E0,7.339477539E-3,7.019042969E-3,6.713867188E-4
7.157278838E0,6.851196289E-3,9.414672852E-3,-3.967285156E-4
7.162314238E0,4.943847656E-3,1.214599609E-2,-9.765625000E-4
7.167349638E0,4.928588867E-3,1.188659668E-2,-4.272460938E-4
7.172385039E0,7.888793945E-3,7.003784180E-3,-1.510620117E-3
7.177420439E0,9.475708008E-3,1.983642578E-3,-2.593994141E-3
7.182455840E0,9.170532227E-3,2.410888672E-3,-3.372192383E-3
7.187491240E0,8.071899414E-3,7.095336914E-3,-4.013061523E-3
7.192526640E0,7.339477539E-3,1.049804688E-2,-5.508422852E-3
7.197562041E0,7.675170898E-3,8.026123047E-3,-5.508422852E-3
7.202597441E0,8.758544922E-3,2.975463867E-3,-5.142211914E-3
7.207632841E0,9.841918945E-3,8.850097656E-4,-4.440307617E-3
7.212668242E0,9.765625000E-3,3.829956055E-3,-4.043579102E-3
7.217703642E0,8.804321289E-3,7.354736328E-3,-4.959106445E-3
7.222739043E0,1.028442383E-2,7.476806641E-3,-7.232666016E-3
7.227774443E0,1.202392578E-2,2.975463867E-3,-5.310058594E-3
7.232809843E0,1.223754883E-2,-1.358032227E-3,-1.632690430E-3
7.237845244E0,1.205444336E-2,-2.136230469E-4,9.002685547E-4
7.242880644E0,1.268005371E-2,4.119873047E-3,4.425048828E-4
7.247916045E0,1.126098633E-2,7.492065430E-3,3.051757812E-4
7.252951445E0,9.475708008E-3,6.744384766E-3,1.388549805E-3
7.257986845E0,9.963989258E-3,2.426147461E-3,3.463745117E-3
7.263022246E0,1.155090332E-2,1.525878906E-4,5.691528320E-3
7.268057646E0,1.268005371E-2,1.724243164E-3,6.240844727E-3
7.273093047E0,1.159667969E-2,6.042480469E-3,5.706787109E-3
7.278128447E0,1.164245605E-2,9.246826172E-3,5.172729492E-3
7.283163847E0,1.435852051E-2,5.813598633E-3,4.623413086E-3
7.288199248E0,1.588439941E-2,1.708984375E-3,4.684448242E-3
7.293234648E0,1.588439941E-2,2.395629883E-3,5.172729492E-3
7.298270049E0,1.466369629E-2,4.562377930E-3,5.172729492E-3
7.303305449E0,1.374816895E-2,6.713867188E-3,5.172729492E-3
7.308340849E0,1.374816895E-2,6.378173828E-3,5.172729492E-3
7.313376250E0,1.374816895E-2,4.852294922E-3,5.813598633E-3
7.318411650E0,1.374816895E-2,5.065917969E-3,6.896972656E-3
7.323447050E0,1.242065430E-2,6.805419922E-3,6.652832031E-3
7.328482451E0,1.092529297E-2,8.300781250E-3,6.927490234E-3
7.333517851E0,1.123046875E-2,8.697509766E-3,7.308959961E-3
7.338553252E0,1.161193848E-2,7.995605469E-3,5.920410156E-3
7.343588652E0,1.231384277E-2,5.477905273E-3,6.607055664E-3
7.348624052E0,1.268005371E-2,4.425048828E-3,5.126953125E-3
7.353659453E0,1.268005371E-2,5.157470703E-3,4.852294922E-3
7.358694853E0,1.268005371E-2,6.988525391E-3,5.172729492E-3
7.363730254E0,1.344299316E-2,6.851196289E-3,5.950927734E-3
7.368765654E0,1.452636719E-2,6.561279297E-3,7.034301758E-3
7.373801054E0,1.481628418E-2,5.767822266E-3,7.308959961E-3
7.378836455E0,1.400756836E-2,7.904052734E-3,8.117675781E-3
7.383871855E0,1.455688477E-2,1.113891602E-2,9.201049805E-3
7.388907256E0,1.646423340E-2,1.272583008E-2,1.028442383E-2
7.393942656E0,1.863098145E-2,9.582519531E-3,1.051330566E-2
7.398978056E0,1.908874512E-2,4.425048828E-3,9.674072266E-3
7.404013457E0,1.908874512E-2,4.211425781E-3,1.031494141E-2
7.409048857E0,1.820373535E-2,5.294799805E-3,1.051330566E-2
7.414084257E0,1.623535156E-2,8.163452148E-3,1.051330566E-2
7.419119658E0,1.406860352E-2,1.049804688E-2,1.142883301E-2
7.424155058E0,1.557922363E-2,8.987426758E-3,1.158142090E-2
7.429190459E0,1.588439941E-2,7.766723633E-3,1.158142090E-2
7.434225859E0,1.588439941E-2,5.737304688E-3,1.065063477E-2
7.439261259E0,1.396179199E-2,6.439208984E-3,9.567260742E-3
7.444296660E0,1.277160645E-2,9.460449219E-3,9.445190430E-3
7.449332060E0,1.268005371E-2,7.797241211E-3,7.492065430E-3
7.454367461E0,1.167297363E-2,5.630493164E-3,7.308959961E-3
7.459402861E0,1.261901855E-2,3.463745117E-3,9.338378906E-3
7.464438261E0,1.368713379E-2,2.334594727E-3,9.445190430E-3
7.469473662E0,1.374816895E-2,2.288818359E-3,7.400512695E-3
7.474509062E0,1.165771484E-2,4.364013672E-3,8.361816406E-3
7.479544463E0,1.373291016E-2,5.477905273E-3,8.377075195E-3
7.484579863E0,1.690673828E-2,4.425048828E-3,8.377075195E-3
7.489615263E0,1.695251465E-2,3.356933594E-3,9.429931641E-3
7.494650664E0,1.689147949E-2,4.425048828E-3,7.339477539E-3
7.499686064E0,1.481628418E-2,4.379272461E-3,8.377075195E-3
7.504721465E0,1.486206055E-2,3.250122070E-3,8.331298828E-3
7.509756865E0,1.588439941E-2,1.083374023E-3,7.308959961E-3
7.514792265E0,1.571655273E-2,-9.155273438E-4,7.400512695E-3
7.519827666E0,1.364135742E-2,-6.408691406E-4,8.193969727E-3
7.524863066E0,1.246643066E-2,2.487182617E-3,6.240844727E-3
7.529898466E0,1.042175293E-2,4.302978516E-3,6.134033203E-3
7.534933867E0,9.475708008E-3,2.822875977E-3,5.172729492E-3
7.539969267E0,9.475708008E-3,-1.068115234E-3,5.462646484E-3
7.545004668E0,9.155273438E-3,-1.525878906E-3,7.308959961E-3
7.550040068E0,6.988525391E-3,2.059936523E-3,7.308959961E-3
7.555075468E0,5.203247070E-3,6.561279297E-3,7.492065430E-3
7.560110869E0,5.004882812E-3,5.798339844E-3,8.193969727E-3
7.565146269E0,4.745483398E-3,1.266479492E-3,7.308959961E-3
7.570181670E0,6.668090820E-3,-2.838134766E-3,7.537841797E-3
7.575217070E0,3.433227539E-3,-8.392333984E-4,8.148193359E-3
7.580252470E0,4.425048828E-4,4.318237305E-3,7.308959961E-3
7.585287871E0,-4.425048828E-4,6.607055664E-3,7.308959961E-3
7.590323271E0,2.792358398E-3,1.998901367E-3,6.774902344E-3
7.595358672E0,5.477905273E-3,-2.548217773E-3,5.462646484E-3
7.600394072E0,5.676269531E-3,-3.250122070E-3,6.546020508E-3
7.605429472E0,3.509521484E-3,0.000000000E0,7.308959961E-3
7.610464873E0,2.319335938E-3,2.609252930E-3,7.308959961E-3
7.615500273E0,3.723144531E-3,2.014160156E-3,7.644653320E-3
7.620535674E0,5.203247070E-3,-1.968383789E-3,8.377075195E-3
7.625571074E0,4.837036133E-3,-3.768920898E-3,8.377075195E-3
7.630606474E0,4.135131836E-3,-7.781982422E-4,8.377075195E-3
7.635641875E0,2.548217773E-3,4.135131836E-3,8.377075195E-3
7.640677275E0,-9.460449219E-4,4.272460938E-3,8.377075195E-3
7.645712675E0,-1.449584961E-3,6.256103516E-4,8.804321289E-3
7.650748076E0,-1.373291016E-4,-2.410888672E-3,9.445190430E-3
7.655783476E0,-1.464843750E-3,-1.296997070E-3,9.017944336E-3
7.660818877E0,-4.257202148E-3,2.578735352E-3,8.377075195E-3
7.665854277E0,-5.477905273E-3,3.494262695E-3,8.377075195E-3
7.670889677E0,-4.531860352E-3,-1.068115234E-3,8.865356445E-3
7.675925078E0,-3.341674805E-3,-6.179809570E-3,9.445190430E-3
7.680960478E0,-3.860473633E-3,-4.806518555E-3,9.445190430E-3
7.685995879E0,-5.447387695E-3,5.950927734E-4,8.941650391E-3
7.691031279E0,-7.080078125E-3,3.875732422E-3,7.324218750E-3
7.696066679E0,-6.546020508E-3,1.190185547E-3,7.858276367E-3
7.701102080E0,-3.829956055E-3,-3.646850586E-3,1.000976562E-2
7.706137480E0,-2.838134766E-3,-4.074096680E-3,9.399414062E-3
7.711172881E0,-4.501342773E-3,-1.327514648E-3,8.377075195E-3
7.716208281E0,-6.072998047E-3,1.327514648E-3,7.797241211E-3
7.721243681E0,-6.546020508E-3,2.288818359E-3,7.919311523E-3
7.726279082E0,-5.935668945E-3,-1.831054688E-4,9.613037109E-3
7.731314482E0,-5.477905273E-3,-5.142211914E-3,9.887695312E-3
7.736349882E0,-5.477905273E-3,-6.042480469E-3,9.445190430E-3
7.741385283E0,-4.837036133E-3,-6.103515625E-4,8.804321289E-3
7.746420683E0,-5.081176758E-3,2.944946289E-3,8.377075195E-3
7.751456084E0,-5.477905273E-3,1.312255859E-3,7.705688477E-3
7.756491484E0,-5.477905273E-3,-2.609252930E-3,7.308959961E-3
7.761526884E0,-4.791259766E-3,-6.927490234E-3,7.308959961E-3
7.766562285E0,-5.126953125E-3,-5.538940430E-3,7.308959961E-3
7.771597685E0,-6.942749023E-3,-4.882812500E-4,7.308959961E-3
7.776633086E0,-6.881713867E-3,1.220703125E-3,8.056640625E-3
7.781668486E0,-5.050659180E-3,-1.052856445E-3,9.140014648E-3
7.786703886E0,-5.172729492E-3,-4.257202148E-3,8.697509766E-3
7.791739287E0,-5.477905273E-3,-4.425048828E-3,6.835937500E-3
7.796774687E0,-5.477905273E-3,-1.754760742E-3,7.034301758E-3
7.801810088E0,-5.477905273E-3,1.495361328E-3,7.308959961E-3
7.806845488E0,-5.477905273E-3,-9.918212891E-4,8.132934570E-3
7.811880888E0,-6.317138672E-3,-1.983642578E-3,7.553100586E-3
7.816916289E0,-4.867553711E-3,-2.838134766E-3,7.308959961E-3
7.821951689E0,-4.409790039E-3,-1.342773438E-3,6.454467773E-3
7.826987090E0,-4.409790039E-3,-4.577636719E-5,3.631591797E-3
7.832022490E0,-6.179809570E-3,1.525878906E-4,2.166748047E-3
7.837057890E0,-5.661010742E-3,1.525878906E-4,2.868652344E-3
7.842093291E0,-4.577636719E-3,-1.678466797E-3,3.036499023E-3
7.847128691E0,-3.494262695E-3,-2.914428711E-3,2.120971680E-3
7.852164091E0,-5.218505859E-3,-3.997802734E-3,1.068115234E-4
7.857199492E0,-4.531860352E-3,-2.227783203E-3,-1.678466797E-4
7.862234892E0,-4.409790039E-3,-6.103515625E-5,8.087158203E-4
7.867270293E0,-3.448486328E-3,1.525878906E-4,-1.037597656E-3
7.872305693E0,-5.310058594E-3,1.525878906E-4,-2.441406250E-4
7.877341093E0,-4.486083984E-3,1.144409180E-3,-3.143310547E-3
7.882376494E0,-4.409790039E-3,1.220703125E-3,-5.386352539E-3
7.887411894E0,-3.402709961E-3,-8.239746094E-4,-2.441406250E-3
7.892447295E0,-3.341674805E-3,-2.990722656E-3,-4.364013672E-3
7.897482695E0,-3.341674805E-3,-9.613037109E-4,-3.387451172E-3
7.902518095E0,-1.220703125E-3,-9.155273438E-4,-2.304077148E-3
7.907553496E0,-1.220703125E-3,-9.307861328E-4,-1.235961914E-3
7.912588896E0,-2.273559570E-3,-2.014160156E-3,-1.251220703E-3
7.917624297E0,-2.319335938E-3,-3.021240234E-3,-2.304077148E-3
7.922659697E0,-3.402709961E-3,-1.892089844E-3,-2.243041992E-3
7.927695097E0,-4.364013672E-3,2.593994141E-4,-1.281738281E-3
7.932730498E0,-3.341674805E-3,2.136230469E-3,-2.365112305E-3
7.937765898E0,-3.112792969E-3,-1.525878906E-5,-3.280639648E-3
7.942801299E0,-2.441406250E-4,-2.090454102E-3,-2.395629883E-3
7.947836699E0,-1.434326172E-3,-2.944946289E-3,-3.250122070E-3
7.952872099E0,-3.341674805E-3,-1.617431641E-3,-2.426147461E-3
7.957907500E0,-3.204345703E-3,1.220703125E-3,-3.372192383E-3
7.962942900E0,-2.136230469E-3,9.155273438E-4,-3.219604492E-3
7.967978300E0,-1.052856445E-3,-7.629394531E-4,-2.609252930E-3
7.973013701E0,-3.204345703E-4,1.525878906E-4,-4.608154297E-3
7.978049101E0,-8.392333984E-4,3.356933594E-4,-5.310058594E-3
7.983084502E0,9.307861328E-4,1.022338867E-3,-4.623413086E-3
7.988119902E0,9.307861328E-4,1.525878906E-4,-5.508422852E-3
7.993155302E0,7.019042969E-4,-7.629394531E-5,-5.950927734E-3
7.998190703E0,9.155273438E-5,-9.155273438E-4,-7.644653320E-3
8.003226103E0,1.419067383E-3,-1.174926758E-3,-7.888793945E-3
8.008261504E0,3.067016602E-3,-1.983642578E-3,-9.231567383E-3
8.013296904E0,2.502441406E-3,-1.434326172E-3,-1.084899902E-2
8.018332304E0,9.307861328E-4,4.272460938E-4,-1.055908203E-2
8.023367705E0,1.525878906E-3,6.103515625E-4,-9.475708008E-3
8.028403105E0,3.372192383E-3,-1.235961914E-3,-8.712768555E-3
8.033438506E0,3.479003906E-3,-1.663208008E-3,-9.033203125E-3
8.038473906E0,2.334594727E-3,-2.441406250E-4,-9.780883789E-3
8.043509306E0,3.067016602E-3,1.907348633E-3,-9.078979492E-3
8.048544707E0,2.700805664E-3,2.990722656E-3,-7.644653320E-3
8.053580107E0,2.365112305E-3,1.541137695E-3,-8.010864258E-3
8.058615507E0,3.448486328E-3,-2.441406250E-4,-9.094238281E-3
8.063650908E0,4.135131836E-3,-1.327514648E-3,-9.368896484E-3
8.068686308E0,3.707885742E-3,-1.159667969E-3,-8.285522461E-3
8.073721709E0,3.067016602E-3,9.918212891E-4,-8.056640625E-3
8.078757109E0,3.494262695E-3,1.846313477E-3,-9.582519531E-3
8.083792509E0,5.035400391E-3,3.051757812E-4,-1.084899902E-2
8.088827910E0,6.271362305E-3,-9.155273438E-4,-1.130676270E-2
8.093863310E0,5.325317383E-3,-4.577636719E-4,-1.237487793E-2
8.098898711E0,4.623413086E-3,6.408691406E-4,-1.347351074E-2
8.103934111E0,5.706787109E-3,1.983642578E-4,-1.455688477E-2
8.108969511E0,6.774902344E-3,-2.471923828E-3,-1.562500000E-2
8.114004912E0,7.858276367E-3,-3.601074219E-3,-1.565551758E-2
8.119040312E0,8.407592773E-3,-1.983642578E-3,-1.565551758E-2
8.124075713E0,7.843017578E-3,1.831054688E-4,-1.673889160E-2
8.129111113E0,7.339477539E-3,1.220703125E-3,-1.780700684E-2
8.134146513E0,7.904052734E-3,1.220703125E-3,-1.832580566E-2
8.139181914E0,8.987426758E-3,-1.144409180E-3,-1.773071289E-2
8.144217314E0,8.255004883E-3,-4.272460938E-3,-1.785278320E-2
8.149252715E0,7.339477539E-3,-2.731323242E-3,-1.832580566E-2
8.154288115E0,7.339477539E-3,3.356933594E-4,-1.768493652E-2
8.159323515E0,7.339477539E-3,1.861572266E-3,-1.725769043E-2
8.164358916E0,7.339477539E-3,9.765625000E-4,-1.789855957E-2
8.169394316E0,8.666992188E-3,-2.532958984E-3,-1.832580566E-2
8.174429716E0,9.475708008E-3,-4.119873047E-3,-1.763916016E-2
8.179465117E0,9.475708008E-3,-2.044677734E-3,-1.725769043E-2
8.184500517E0,1.017761230E-2,4.882812500E-4,-1.725769043E-2
8.189535918E0,1.054382324E-2,5.035400391E-4,-1.725769043E-2
8.194571318E0,1.054382324E-2,1.525878906E-4,-1.652526855E-2
8.199606718E0,9.796142578E-3,8.850097656E-4,-1.692199707E-2
8.204642119E0,9.475708008E-3,1.220703125E-3,-1.573181152E-2
8.209677519E0,1.100158691E-2,4.425048828E-4,-1.588439941E-2
8.214712920E0,1.004028320E-2,-6.408691406E-4,-1.696777344E-2
8.219748320E0,9.475708008E-3,6.561279297E-4,-1.803588867E-2
8.224783720E0,9.475708008E-3,2.014160156E-3,-1.911926270E-2
8.229819121E0,1.028442383E-2,1.464843750E-3,-2.020263672E-2
8.234854521E0,1.054382324E-2,-4.577636719E-4,-2.128601074E-2
8.239889922E0,9.689331055E-3,-9.155273438E-4,-2.236938477E-2
8.244925322E0,8.605957031E-3,-2.639770508E-3,-2.172851562E-2
8.249960722E0,8.407592773E-3,-2.182006836E-3,-2.239990234E-2
8.254996123E0,6.637573242E-3,-1.113891602E-3,-2.259826660E-2
8.260031523E0,6.271362305E-3,-9.155273438E-4,-2.348327637E-2
8.265066924E0,6.271362305E-3,-1.831054688E-3,-2.456665039E-2
8.270102324E0,5.340576172E-3,-3.845214844E-3,-2.473449707E-2
8.275137724E0,4.257202148E-3,-3.189086914E-3,-2.378845215E-2
8.280173125E0,5.081176758E-3,-3.051757812E-3,-2.366638184E-2
8.285208525E0,4.226684570E-3,-3.051757812E-3,-2.462768555E-2
8.290243925E0,3.158569336E-3,-2.090454102E-3,-2.473449707E-2
8.295279326E0,4.043579102E-3,-1.007080078E-3,-2.374267578E-2
8.300314726E0,6.118774414E-3,-2.914428711E-3,-2.265930176E-2
8.305350127E0,5.249023438E-3,-4.074096680E-3,-2.056884766E-2
8.310385527E0,5.203247070E-3,-5.142211914E-3,-1.841735840E-2
8.315420927E0,4.150390625E-3,-4.150390625E-3,-1.832580566E-2
8.320456328E0,6.225585938E-3,-3.082275391E-3,-1.727294922E-2
8.325491728E0,6.271362305E-3,-1.998901367E-3,-1.618957520E-2
8.330527129E0,5.187988281E-3,-9.307861328E-4,-1.403808594E-2
8.335562529E0,4.104614258E-3,-1.968383789E-3,-1.298522949E-2
8.340597929E0,3.021240234E-3,-9.613037109E-4,-1.304626465E-2
8.345633330E0,1.892089844E-3,-1.937866211E-3,-1.506042480E-2
8.350668730E0,-2.593994141E-4,-1.037597656E-3,-1.393127441E-2
8.355704131E0,-2.136230469E-3,-2.914428711E-3,-1.184082031E-2
8.360739531E0,-2.288818359E-4,-9.155273438E-4,-1.084899902E-2
8.365774931E0,-1.403808594E-3,-9.155273438E-4,-1.103210449E-2
8.370810332E0,-3.570556641E-3,-1.037597656E-3,-1.298522949E-2
8.375845732E0,-5.615234375E-3,-2.243041992E-3,-1.284790039E-2
8.380881132E0,-6.546020508E-3,-3.997802734E-3,-1.191711426E-2
8.385916533E0,-6.408691406E-3,-3.341674805E-3,-1.176452637E-2
8.390951933E0,-5.325317383E-3,-5.035400391E-3,-1.084899902E-2
8.395987334E0,-4.577636719E-3,-3.967285156E-3,-1.115417480E-2
8.401022734E0,-5.676269531E-3,-3.051757812E-3,-1.278686523E-2
8.406058134E0,-6.546020508E-3,-2.868652344E-3,-1.210021973E-2
8.411093535E0,-6.347656250E-3,-2.197265625E-3,-1.318359375E-2
8.416128935E0,-5.477905273E-3,-3.509521484E-3,-1.338195801E-2
8.421164336E0,-5.249023438E-3,-4.959106445E-3,-1.084899902E-2
8.426199736E0,-4.409790039E-3,-4.119873047E-3,-1.058959961E-2
8.431235136E0,-4.684448242E-3,-3.601074219E-3,-9.780883789E-3
8.436270537E0,-5.203247070E-3,-1.983642578E-3,-9.490966797E-3
8.441305937E0,-4.699707031E-3,-1.983642578E-3,-8.422851562E-3
8.446341338E0,-5.187988281E-3,-2.593994141E-3,-7.934570312E-3
8.451376738E0,-5.050659180E-3,-4.119873047E-3,-8.392333984E-3
8.456412138E0,-6.546020508E-3,-3.479003906E-3,-7.644653320E-3
8.461447539E0,-6.896972656E-3,-1.312255859E-3,-6.622314453E-3
8.466482939E0,-8.331298828E-3,1.525878906E-4,-4.440307617E-3
8.471518340E0,-9.750366211E-3,-2.136230469E-4,-5.157470703E-3
8.476553740E0,-1.013183594E-2,-1.296997070E-3,-6.195068359E-3
8.481589140E0,-1.043701172E-2,-1.983642578E-3,-5.111694336E-3
8.486624541E0,-9.353637695E-3,-1.190185547E-3,-4.028320312E-3
8.491659941E0,-8.270263672E-3,-2.746582031E-4,-3.372192383E-3
8.496695341E0,-8.041381836E-3,-9.155273438E-4,-3.784179688E-3
8.501730742E0,-8.255004883E-3,-2.243041992E-3,-4.440307617E-3
8.506766142E0,-7.171630859E-3,-4.119873047E-3,-4.440307617E-3
8.511801543E0,-7.019042969E-3,-3.662109375E-3,-4.440307617E-3
8.516836943E0,-8.102416992E-3,-2.105712891E-3,-5.386352539E-3
8.521872343E0,-8.193969727E-3,-9.155273438E-4,-6.576538086E-3
8.526907744E0,-7.110595703E-3,-2.944946289E-3,-5.554199219E-3
8.531943144E0,-7.064819336E-3,-6.225585938E-3,-4.440307617E-3
8.536978545E0,-8.682250977E-3,-6.805419922E-3,-3.906250000E-3
8.542013945E0,-9.216308594E-3,-5.172729492E-3,-1.739501953E-3
8.547049345E0,-8.132934570E-3,-3.570556641E-3,-1.678466797E-4
8.552084746E0,-7.614135742E-3,-3.051757812E-3,4.119873047E-4
8.557120146E0,-7.614135742E-3,-4.806518555E-3,9.002685547E-4
8.562155547E0,-7.019042969E-3,-6.866455078E-3,2.105712891E-3
8.567190947E0,-6.546020508E-3,-7.324218750E-3,3.036499023E-3
8.572226347E0,-7.171630859E-3,-5.477905273E-3,3.662109375E-3
8.577261748E0,-7.614135742E-3,-2.243041992E-3,4.104614258E-3
8.582297148E0,-6.332397461E-3,-2.212524414E-3,4.760742188E-3
8.587332549E0,-5.477905273E-3,-4.379272461E-3,5.172729492E-3
8.592367949E0,-4.150390625E-3,-4.531860352E-3,4.516601562E-3
8.597403349E0,-4.028320312E-3,-2.090454102E-3,4.104614258E-3
8.602438750E0,-5.111694336E-3,-9.155273438E-4,4.806518555E-3
8.607474150E0,-5.477905273E-3,-9.155273438E-4,5.172729492E-3
8.612509550E0,-6.210327148E-3,-1.647949219E-3,5.172729492E-3
8.617544951E0,-7.293701172E-3,-2.731323242E-3,4.440307617E-3
8.622580351E0,-9.109497070E-3,-2.319335938E-3,4.852294922E-3
8.627615752E0,-8.239746094E-3,-4.730224609E-4,5.172729492E-3
8.632651152E0,-8.392333984E-3,1.525878906E-4,5.172729492E-3
8.637686552E0,-8.682250977E-3,-1.434326172E-3,5.966186523E-3
8.642721953E0,-7.888793945E-3,-3.585815430E-3,6.240844727E-3
8.647757353E0,-8.438110352E-3,-3.311157227E-3,7.064819336E-3
8.652792754E0,-7.873535156E-3,-5.950927734E-4,7.308959961E-3
8.657828154E0,-6.790161133E-3,1.525878906E-4,7.308959961E-3
8.662863554E0,-4.013061523E-3,-7.019042969E-4,7.308959961E-3
8.667898955E0,-3.341674805E-3,-3.494262695E-3,9.033203125E-3
8.672934355E0,-1.602172852E-3,-3.250122070E-3,9.445190430E-3
8.677969756E0,-1.205444336E-3,-1.296997070E-3,9.445190430E-3
8.683005156E0,-3.204345703E-4,8.697509766E-4,8.560180664E-3
8.688040556E0,1.678466797E-3,1.220703125E-3,8.377075195E-3
8.693075957E0,3.845214844E-3,-6.408691406E-4,8.377075195E-3
8.698111357E0,3.204345703E-3,-2.777099609E-3,9.307861328E-3
8.703146757E0,3.067016602E-3,-1.159667969E-3,1.040649414E-2
8.708182158E0,3.067016602E-3,-9.155273438E-4,1.051330566E-2
8.713217558E0,4.028320312E-3,1.022338867E-3,1.148986816E-2
8.718252959E0,2.151489258E-3,2.288818359E-4,1.158142090E-2
8.723288359E0,2.990722656E-3,-1.861572266E-3,1.258850098E-2
8.728323759E0,2.044677734E-3,-1.983642578E-3,1.164245605E-2
8.733359160E0,1.998901367E-3,4.180908203E-3,1.158142090E-2
8.738394560E0,1.998901367E-3,6.500244141E-3,1.263427734E-2
8.743429961E0,3.036499023E-3,1.312255859E-3,1.161193848E-2
8.748465361E0,6.240844727E-3,-4.089355469E-3,9.460449219E-3
8.753500761E0,7.339477539E-3,-3.036499023E-3,1.051330566E-2
8.758536162E0,8.407592773E-3,1.266479492E-3,9.429931641E-3
8.763571562E0,8.438110352E-3,4.379272461E-3,8.346557617E-3
8.768606963E0,9.475708008E-3,3.158569336E-3,7.263183594E-3
8.773642363E0,9.475708008E-3,-9.155273438E-4,6.301879883E-3
8.778677763E0,9.536743164E-3,-9.918212891E-4,7.385253906E-3
8.783713164E0,1.036071777E-2,-1.907348633E-3,8.209228516E-3
8.788748564E0,8.300781250E-3,-4.272460938E-4,6.347656250E-3
8.793783965E0,7.446289062E-3,4.425048828E-3,7.202148438E-3
8.798819365E0,8.773803711E-3,4.165649414E-3,6.240844727E-3
8.803854765E0,1.161193848E-2,1.846313477E-3,6.530761719E-3
8.808890166E0,1.191711426E-2,-7.629394531E-4,8.544921875E-3
8.813925566E0,1.374816895E-2,1.525878906E-4,9.445190430E-3
8.818960966E0,1.411437988E-2,5.187988281E-4,9.262084961E-3
8.823996367E0,1.568603516E-2,2.090454102E-3,8.193969727E-3
8.829031767E0,1.481628418E-2,1.419067383E-3,7.308959961E-3
8.834067168E0,1.525878906E-2,2.059936523E-3,7.308959961E-3
8.839102568E0,1.670837402E-2,1.220703125E-3,7.080078125E-3
8.844137968E0,1.611328125E-2,9.765625000E-4,6.011962891E-3
8.849173369E0,1.745605469E-2,1.525878906E-4,5.691528320E-3
8.854208769E0,1.934814453E-2,1.525878906E-4,7.049560547E-3
8.859244170E0,2.043151855E-2,1.525878906E-4,5.691528320E-3
8.864279570E0,2.122497559E-2,4.425048828E-4,4.989624023E-3
8.869314970E0,2.122497559E-2,5.950927734E-4,7.003784180E-3
8.874350371E0,2.153015137E-2,-9.155273438E-4,6.240844727E-3
8.879385771E0,2.261352539E-2,-2.746582031E-4,6.240844727E-3
8.884421172E0,2.301025391E-2,1.892089844E-3,6.240844727E-3
8.889456572E0,2.122497559E-2,3.356933594E-3,5.889892578E-3
8.894491972E0,1.945495605E-2,2.975463867E-3,5.920410156E-3
8.899527373E0,2.090454102E-2,2.288818359E-3,6.942749023E-3
8.904562773E0,2.189636230E-2,1.495361328E-3,5.859375000E-3
8.909598174E0,2.122497559E-2,-2.593994141E-4,5.584716797E-3
8.914633574E0,2.163696289E-2,-9.155273438E-4,6.668090820E-3
8.919668974E0,2.185058594E-2,-6.103515625E-5,7.751464844E-3
8.924704375E0,2.122497559E-2,2.105712891E-3,7.934570312E-3
8.929739775E0,2.168273926E-2,1.968383789E-3,6.851196289E-3
8.934775175E0,2.134704590E-2,-3.204345703E-4,5.783081055E-3
8.939810576E0,2.062988281E-2,-4.425048828E-4,5.661010742E-3
8.944845976E0,2.072143555E-2,2.120971680E-3,6.240844727E-3
8.949881377E0,2.015686035E-2,5.432128906E-3,5.737304688E-3
8.954916777E0,2.117919922E-2,3.448486328E-3,4.150390625E-3
8.959952177E0,2.334594727E-2,-1.983642578E-3,3.036499023E-3
8.964987578E0,2.388000488E-2,-1.953125000E-3,3.585815430E-3
8.970022978E0,2.223205566E-2,1.815795898E-3,4.104614258E-3
8.975058379E0,2.122497559E-2,2.777099609E-3,2.975463867E-3
8.980093779E0,2.354431152E-2,-6.408691406E-4,1.388549805E-3
8.985129179E0,2.429199219E-2,-3.051757812E-3,1.510620117E-3
8.990164580E0,2.275085449E-2,1.205444336E-3,1.373291016E-3
8.995199980E0,2.229309082E-2,4.425048828E-3,9.002685547E-4
9.000235381E0,2.291870117E-2,3.158569336E-3,9.002685547E-4
9.005270781E0,2.400207520E-2,9.918212891E-4,9.002685547E-4
9.010306181E0,2.442932129E-2,1.525878906E-4,9.002685547E-4
9.015341582E0,2.442932129E-2,8.087158203E-4,1.571655273E-3
9.020376982E0,2.442932129E-2,1.892089844E-3,1.968383789E-3
9.025412382E0,2.372741699E-2,1.586914062E-3,1.281738281E-3
9.030447783E0,2.192687988E-2,1.922607422E-3,9.002685547E-4
9.035483183E0,1.904296875E-2,3.723144531E-3,1.831054688E-4
9.040518584E0,1.580810547E-2,5.157470703E-3,-9.002685547E-4
9.045553984E0,1.554870605E-2,5.493164062E-3,-1.235961914E-3
9.050589384E0,1.588439941E-2,3.967285156E-3,-4.730224609E-4
9.055624785E0,1.820373535E-2,1.022338867E-3,-9.307861328E-4
9.060660185E0,1.829528809E-2,9.307861328E-4,-1.235961914E-3
9.065695586E0,1.641845703E-2,6.011962891E-3,-1.235961914E-3
9.070730986E0,1.506042480E-2,8.438110352E-3,-2.853393555E-3
9.075766386E0,1.481628418E-2,6.210327148E-3,-1.708984375E-3
9.080801787E0,1.647949219E-2,2.136230469E-3,-1.235961914E-3
9.085837187E0,1.779174805E-2,3.662109375E-4,-2.075195312E-3
9.090872588E0,1.715087891E-2,1.876831055E-3,-3.158569336E-3
9.095907988E0,1.606750488E-2,6.668090820E-3,-4.241943359E-3
9.100943388E0,1.231384277E-2,6.729125977E-3,-5.325317383E-3
9.105978789E0,1.251220703E-2,2.029418945E-3,-5.508422852E-3
9.111014189E0,1.359558105E-2,-1.541137695E-3,-4.577636719E-3
9.116049590E0,1.188659668E-2,-1.373291016E-4,-5.355834961E-3
9.121084990E0,1.066589355E-2,4.867553711E-3,-7.385253906E-3
9.126120390E0,9.582519531E-3,6.439208984E-3,-7.644653320E-3
9.131155791E0,1.043701172E-2,4.623413086E-3,-6.668090820E-3
9.136191191E0,9.567260742E-3,5.187988281E-4,-6.576538086E-3
9.141226591E0,7.492065430E-3,-1.831054688E-3,-6.576538086E-3
9.146261992E0,4.318237305E-3,1.525878906E-5,-7.568359375E-3
9.151297392E0,4.135131836E-3,3.189086914E-3,-6.622314453E-3
9.156332793E0,3.097534180E-3,5.401611328E-3,-6.576538086E-3
9.161368193E0,2.014160156E-3,4.440307617E-3,-6.576538086E-3
9.166403593E0,9.307861328E-4,1.251220703E-3,-6.576538086E-3
9.171438994E0,1.998901367E-3,1.525878906E-4,-5.508422852E-3
9.176474394E0,-1.525878906E-4,3.356933594E-3,-6.561279297E-3
9.181509795E0,-1.266479492E-3,3.356933594E-3,-5.477905273E-3
9.186545195E0,-3.341674805E-3,3.234863281E-3,-4.440307617E-3
9.191580595E0,-3.250122070E-3,1.525878906E-4,-4.440307617E-3
9.196615996E0,-1.281738281E-3,2.746582031E-4,-4.501342773E-3
9.201651396E0,-2.365112305E-3,2.441406250E-3,-5.584716797E-3
9.206686797E0,-3.433227539E-3,4.501342773E-3,-6.652832031E-3
9.211722197E0,-4.409790039E-3,4.959106445E-3,-7.736206055E-3
9.216757597E0,-4.302978516E-3,3.051757812E-5,-8.590698242E-3
9.221792998E0,-3.341674805E-3,-1.190185547E-3,-7.904052734E-3
9.226828398E0,-3.631591797E-3,-2.349853516E-3,-9.780883789E-3
9.231863799E0,-5.935668945E-3,3.189086914E-3,-9.918212891E-3
9.236899199E0,-8.682250977E-3,8.529663086E-3,-1.100158691E-2
9.241934599E0,-8.514404297E-3,6.347656250E-3,-1.208496094E-2
9.246970000E0,-7.431030273E-3,-6.103515625E-4,-1.278686523E-2
9.252005400E0,-6.759643555E-3,-3.723144531E-3,-1.191711426E-2
9.257040800E0,-7.614135742E-3,-6.866455078E-4,-1.234436035E-2
9.262076201E0,-7.614135742E-3,5.111694336E-3,-1.405334473E-2
9.267111601E0,-7.858276367E-3,6.652832031E-3,-1.405334473E-2
9.272147002E0,-8.682250977E-3,1.556396484E-3,-1.353454590E-2
9.277182402E0,-8.682250977E-3,-4.394531250E-3,-1.191711426E-2
9.282217802E0,-8.972167969E-3,-3.784179688E-3,-1.219177246E-2
9.287253203E0,-1.094055176E-2,1.617431641E-3,-1.268005371E-2
9.292288603E0,-1.402282715E-2,5.798339844E-3,-1.222229004E-2
9.297324004E0,-1.402282715E-2,5.905151367E-3,-1.298522949E-2
9.302359404E0,-1.370239258E-2,3.097534180E-3,-1.264953613E-2
9.307394804E0,-1.295471191E-2,-5.340576172E-4,-1.191711426E-2
9.312430205E0,-1.477050781E-2,-1.831054688E-4,-1.191711426E-2
9.317465605E0,-1.904296875E-2,4.470825195E-3,-1.228332520E-2
9.322501006E0,-2.043151855E-2,6.164550781E-3,-1.258850098E-2
9.327536406E0,-1.965332031E-2,3.906250000E-3,-1.229858398E-2
9.332571806E0,-1.872253418E-2,-3.051757812E-5,-1.255798340E-2
9.337607207E0,-1.895141602E-2,-1.571655273E-3,-1.191711426E-2
9.342642607E0,-1.829528809E-2,8.087158203E-4,-1.147460938E-2
9.347678007E0,-1.875305176E-2,3.356933594E-3,-1.084899902E-2
9.352713408E0,-1.983642578E-2,3.814697266E-3,-1.130676270E-2
9.357748808E0,-1.950073242E-2,2.532958984E-3,-1.191711426E-2
9.362784209E0,-1.829528809E-2,-1.312255859E-3,-1.191711426E-2
9.367819609E0,-1.930236816E-2,-2.563476562E-3,-1.240539551E-2
9.372855009E0,-1.992797852E-2,-4.577636719E-4,-1.298522949E-2
9.377890410E0,-1.884460449E-2,2.792358398E-3,-1.402282715E-2
9.382925810E0,-1.884460449E-2,3.875732422E-3,-1.350402832E-2
9.387961211E0,-1.881408691E-2,1.693725586E-3,-1.301574707E-2
9.392996611E0,-1.774597168E-2,-4.119873047E-4,-1.348876953E-2
9.398032011E0,-1.780700684E-2,-9.155273438E-4,-1.240539551E-2
9.403067412E0,-1.948547363E-2,-3.356933594E-4,-1.191711426E-2
9.408102812E0,-2.104187012E-2,2.563476562E-3,-1.191711426E-2
9.413138213E0,-2.149963379E-2,5.035400391E-3,-1.313781738E-2
9.418173613E0,-2.149963379E-2,3.601074219E-3,-1.530456543E-2
9.423209013E0,-2.279663086E-2,3.509521484E-4,-1.425170898E-2
9.428244414E0,-2.299499512E-2,-1.571655273E-3,-1.362609863E-2
9.433279814E0,-2.323913574E-2,-6.561279297E-4,-1.405334473E-2
9.438315215E0,-2.363586426E-2,2.166748047E-3,-1.472473145E-2
9.443350615E0,-2.294921875E-2,3.356933594E-3,-1.512145996E-2
9.448386015E0,-2.328491211E-2,1.937866211E-3,-1.440429688E-2
9.453421416E0,-2.293395996E-2,1.922607422E-3,-1.261901855E-2
9.458456816E0,-2.185058594E-2,1.556396484E-3,-1.263427734E-2
9.463492216E0,-1.928710938E-2,-2.746582031E-4,-1.223754883E-2
9.468527617E0,-1.829528809E-2,-2.426147461E-3,-1.115417480E-2
9.473563017E0,-1.753234863E-2,-2.288818359E-3,-1.161193848E-2
9.478598418E0,-1.722717285E-2,3.509521484E-4,-1.034545898E-2
9.483633818E0,-1.644897461E-2,2.792358398E-3,-1.135253906E-2
9.488669218E0,-1.536560059E-2,3.356933594E-3,-1.191711426E-2
9.493704619E0,-1.509094238E-2,8.850097656E-4,-1.191711426E-2
9.498740019E0,-1.509094238E-2,-2.349853516E-3,-1.023864746E-2
9.503775420E0,-1.594543457E-2,-3.906250000E-3,-1.062011719E-2
9.508810820E0,-1.530456543E-2,-1.556396484E-3,-1.170349121E-2
9.513846220E0,-1.771545410E-2,8.239746094E-4,-1.191711426E-2
9.518881621E0,-1.829528809E-2,1.220703125E-3,-1.191711426E-2
9.523917021E0,-1.651000977E-2,-5.798339844E-4,-1.191711426E-2
9.528952422E0,-1.525878906E-2,-3.631591797E-3,-1.281738281E-2
9.533987822E0,-1.602172852E-2,-4.119873047E-3,-1.298522949E-2
9.539023222E0,-1.522827148E-2,5.493164062E-4,-1.203918457E-2
9.544058623E0,-1.698303223E-2,1.220703125E-3,-1.284790039E-2
9.549094023E0,-1.628112793E-2,-7.019042969E-4,-1.298522949E-2
9.554129424E0,-1.519775391E-2,-2.868652344E-3,-1.394653320E-2
9.559164824E0,-1.411437988E-2,-4.043579102E-3,-1.405334473E-2
9.564200224E0,-1.502990723E-2,-3.128051758E-3,-1.205444336E-2
9.569235625E0,-1.509094238E-2,-1.037597656E-3,-1.089477539E-2
9.574271025E0,-1.306152344E-2,-1.937866211E-3,-1.084899902E-2
9.579306425E0,-9.857177734E-3,-3.021240234E-3,-1.084899902E-2
9.584341826E0,-7.659912109E-3,-3.051757812E-3,-1.188659668E-2
9.589377226E0,-7.614135742E-3,1.220703125E-4,-1.084899902E-2
9.594412627E0,-6.546020508E-3,1.373291016E-4,-1.191711426E-2
9.599448027E0,-5.447387695E-3,-1.968383789E-3,-1.187133789E-2
9.604483427E0,-3.311157227E-3,-9.613037109E-4,-9.841918945E-3
9.609518828E0,-2.273559570E-3,-1.983642578E-3,-1.184082031E-2
9.614554228E0,-2.273559570E-3,-1.983642578E-3,-9.826660156E-3
9.619589629E0,-2.212524414E-3,-2.059936523E-3,-1.084899902E-2
9.624625029E0,-1.205444336E-3,-2.975463867E-3,-1.092529297E-2
9.629660429E0,-1.205444336E-3,-1.892089844E-3,-1.181030273E-2
9.634695830E0,-9.918212891E-4,-1.037597656E-3,-1.072692871E-2
9.639731230E0,9.307861328E-4,-1.983642578E-3,-9.780883789E-3
9.644766631E0,1.312255859E-3,-1.861572266E-3,-9.902954102E-3
9.649802031E0,4.272460938E-3,-9.155273438E-4,-1.055908203E-2
9.654837431E0,4.882812500E-3,-1.235961914E-3,-9.017944336E-3
9.659872832E0,3.067016602E-3,-3.402709961E-3,-1.101684570E-2
9.664908232E0,3.250122070E-3,-5.004882812E-3,-1.210021973E-2
9.669943632E0,4.714965820E-3,-3.540039062E-3,-1.278686523E-2
9.674979033E0,7.537841797E-3,-1.129150391E-3,-1.170349121E-2
9.680014433E0,8.178710938E-3,-2.212524414E-3,-1.062011719E-2
9.685049834E0,7.339477539E-3,-3.051757812E-3,-9.780883789E-3
9.690085234E0,8.071899414E-3,-3.051757812E-3,-9.780883789E-3
9.695120634E0,1.078796387E-2,-2.548217773E-3,-9.521484375E-3
9.700156035E0,1.161193848E-2,-9.155273438E-4,-8.148193359E-3
9.705191435E0,1.161193848E-2,-6.408691406E-4,-6.851196289E-3
9.710226836E0,1.161193848E-2,-4.577636719E-4,-7.339477539E-3
9.715262236E0,1.191711426E-2,-2.304077148E-3,-6.576538086E-3
9.720297636E0,1.268005371E-2,-2.731323242E-3,-6.576538086E-3
9.725333037E0,1.234436035E-2,-1.663208008E-3,-6.576538086E-3
9.730368437E0,1.161193848E-2,-9.155273438E-4,-7.263183594E-3
9.735403838E0,1.161193848E-2,-1.983642578E-4,-7.980346680E-3
9.740439238E0,1.197814941E-2,4.730224609E-4,-6.576538086E-3
9.745474638E0,1.344299316E-2,-1.693725586E-3,-6.179809570E-3
9.750510039E0,1.481628418E-2,-2.655029297E-3,-5.096435547E-3
9.755545439E0,1.522827148E-2,-1.571655273E-3,-5.264282227E-3
9.760580840E0,1.588439941E-2,-7.629394531E-5,-6.576538086E-3
9.765616240E0,1.588439941E-2,7.781982422E-4,-6.134033203E-3
9.770651640E0,1.632690430E-2,1.525878906E-4,-5.050659180E-3
9.775687041E0,1.786804199E-2,-1.251220703E-3,-4.440307617E-3
9.780722441E0,1.908874512E-2,-2.578735352E-3,-3.952026367E-3
9.785757841E0,1.908874512E-2,-2.487182617E-3,-3.372192383E-3
9.790793242E0,1.908874512E-2,-1.571655273E-3,-1.876831055E-3
9.795828642E0,1.856994629E-2,6.561279297E-4,-6.713867188E-4
9.800864043E0,1.853942871E-2,1.220703125E-3,-1.235961914E-3
9.805899443E0,1.908874512E-2,1.373291016E-4,-1.235961914E-3
9.810934843E0,1.963806152E-2,-3.662109375E-4,-6.713867188E-4
9.815970244E0,2.015686035E-2,-2.105712891E-3,-7.171630859E-4
9.821005644E0,2.015686035E-2,-2.395629883E-3,-7.629394531E-5
9.826041045E0,2.073669434E-2,2.441406250E-4,9.002685547E-4
9.831076445E0,2.061462402E-2,6.103515625E-4,1.510620117E-3
9.836111845E0,2.137756348E-2,-1.708984375E-3,1.358032227E-3
9.841147246E0,2.352905273E-2,-2.441406250E-3,9.002685547E-4
9.846182646E0,2.442932129E-2,-1.358032227E-3,9.002685547E-4
9.851218047E0,2.442932129E-2,3.814697266E-4,1.556396484E-3
9.856253447E0,2.442932129E-2,5.493164062E-4,1.968383789E-3
9.861288847E0,2.510070801E-2,-5.340576172E-4,1.968383789E-3
9.866324248E0,2.549743652E-2,-2.288818359E-4,2.670288086E-3
9.871359648E0,2.479553223E-2,8.392333984E-4,2.349853516E-3
9.876395049E0,2.442932129E-2,-9.307861328E-4,2.685546875E-3
9.881430449E0,2.442932129E-2,-2.716064453E-3,2.319335938E-3
9.886465849E0,2.368164062E-2,-3.051757812E-3,1.968383789E-3
9.891501250E0,2.336120605E-2,-1.556396484E-3,2.731323242E-3
9.896536650E0,2.105712891E-2,6.103515625E-4,7.476806641E-4
9.901572050E0,2.015686035E-2,1.220703125E-3,6.256103516E-4
9.906607451E0,1.936340332E-2,4.272460938E-4,9.002685547E-4
9.911642851E0,1.829528809E-2,-2.227783203E-3,1.693725586E-3
9.916678252E0,1.802062988E-2,-3.051757812E-3,1.159667969E-3
9.921713652E0,1.802062988E-2,-3.051757812E-3,1.739501953E-3
9.926749052E0,1.718139648E-2,-1.388549805E-3,1.144409180E-3
9.931784453E0,1.695251465E-2,-7.629394531E-5,6.103515625E-5
9.936819853E0,1.608276367E-2,-7.171630859E-4,-1.022338867E-3
9.941855254E0,1.763916016E-2,-1.800537109E-3,-1.235961914E-3
9.946890654E0,1.802062988E-2,-1.098632812E-3,-3.356933594E-4
9.951926054E0,1.802062988E-2,-9.155273438E-4,-1.068115234E-3
9.956961455E0,1.893615723E-2,-1.846313477E-3,-3.051757812E-4
9.961996855E0,2.000427246E-2,-1.983642578E-3,7.629394531E-4
9.967032256E0,1.921081543E-2,-1.983642578E-3,1.846313477E-3
9.972067656E0,1.908874512E-2,-2.944946289E-3,2.929687500E-3
9.977103056E0,1.908874512E-2,-2.090454102E-3,2.075195312E-3
9.982138457E0,1.908874512E-2,-1.983642578E-3,1.968383789E-3
9.987173857E0,1.908874512E-2,-1.983642578E-3,1.968383789E-3
9.992209257E0,2.009582520E-2,-1.983642578E-3,1.968383789E-3
9.997244658E0,1.913452148E-2,-9.765625000E-4,2.990722656E-3
1.000228006E1,1.908874512E-2,1.144409180E-3,3.036499023E-3
1.000731546E1,1.803588867E-2,-1.937866211E-3,4.089355469E-3
1.001235086E1,1.695251465E-2,-1.983642578E-3,4.104614258E-3
1.001738626E1,1.480102539E-2,-6.256103516E-3,3.036499023E-3
1.002242166E1,1.374816895E-2,-5.142211914E-3,1.998901367E-3
1.002745706E1,1.374816895E-2,-1.831054688E-3,3.036499023E-3
1.003249246E1,1.368713379E-2,3.356933594E-3,2.990722656E-3
1.003752786E1,1.261901855E-2,3.173828125E-3,2.029418945E-3
1.004256326E1,1.153564453E-2,0.000000000E0,2.975463867E-3
1.004759866E1,1.062011719E-2,-2.166748047E-3,2.059936523E-3
1.005263406E1,1.161193848E-2,-3.860473633E-3,3.036499023E-3
1.005766946E1,1.141357422E-2,-8.239746094E-4,2.853393555E-3
1.006270486E1,9.353637695E-3,2.593994141E-4,9.002685547E-4
1.006774026E1,8.407592773E-3,9.613037109E-4,1.159667969E-3
1.007277566E1,8.255004883E-3,-9.155273438E-4,2.761840820E-3
1.007781106E1,7.476806641E-3,-9.155273438E-4,7.629394531E-4
1.008284647E1,8.407592773E-3,-9.155273438E-4,-1.678466797E-4
1.008788186E1,7.873535156E-3,-1.098632812E-3,-1.678466797E-4
1.009291726E1,5.004882812E-3,-1.800537109E-3,-1.678466797E-4
1.009795267E1,4.135131836E-3,-9.155273438E-4,-1.678466797E-4
1.010298807E1,3.906250000E-3,-7.019042969E-4,-3.814697266E-4
1.010802347E1,3.295898438E-3,3.814697266E-4,-9.918212891E-4
1.011305887E1,3.890991211E-3,1.449584961E-3,-3.967285156E-4
1.011809427E1,3.311157227E-3,1.510620117E-3,-9.765625000E-4
1.012312967E1,3.860473633E-3,-6.561279297E-4,1.068115234E-4
1.012816507E1,2.502441406E-3,1.525878906E-4,9.002685547E-4
1.013320047E1,6.256103516E-4,1.525878906E-4,9.002685547E-4
1.013823587E1,-1.373291016E-4,1.525878906E-4,9.002685547E-4
1.014327127E1,-1.373291016E-4,7.781982422E-4,9.002685547E-4
1.014830667E1,-1.373291016E-4,1.953125000E-3,9.002685547E-4
1.015334207E1,-8.239746094E-4,1.556396484E-3,9.002685547E-4
1.015837747E1,-2.273559570E-3,1.571655273E-3,9.002685547E-4
1.016341287E1,-1.541137695E-3,-2.288818359E-4,5.340576172E-4
1.016844827E1,-5.187988281E-4,-9.155273438E-4,2.136230469E-4
1.017348367E1,-1.602172852E-3,-5.340576172E-4,9.002685547E-4
1.017851907E1,-3.097534180E-3,9.613037109E-4,9.002685547E-4
1.018355447E1,-4.409790039E-3,3.952026367E-3,9.002685547E-4
1.018858987E1,-4.409790039E-3,6.118774414E-3,9.002685547E-4
1.019362527E1,-4.409790039E-3,4.592895508E-3,1.358032227E-3
1.019866067E1,-4.882812500E-3,2.426147461E-3,1.052856445E-3
1.020369607E1,-5.477905273E-3,2.151489258E-3,3.051757812E-4
1.020873147E1,-5.966186523E-3,3.356933594E-3,4.272460938E-4
1.021376688E1,-6.546020508E-3,2.868652344E-3,-6.408691406E-4
1.021880228E1,-6.546020508E-3,2.777099609E-3,-1.235961914E-3
1.022383768E1,-6.546020508E-3,4.913330078E-3,-1.754760742E-3
1.022887308E1,-6.546020508E-3,7.095336914E-3,-2.304077148E-3
1.023390848E1,-7.095336914E-3,7.629394531E-3,-1.754760742E-3
1.023894388E1,-7.614135742E-3,7.064819336E-3,-1.235961914E-3
1.024397928E1,-8.193969727E-3,5.416870117E-3,-6.561279297E-4
1.024901468E1,-8.682250977E-3,3.829956055E-3,-1.678466797E-4
1.025405008E1,-9.887695312E-3,3.952026367E-3,-1.678466797E-4
1.025908548E1,-1.081848145E-2,3.814697266E-3,-1.678466797E-4
1.026412088E1,-1.144409180E-2,3.356933594E-3,-7.781982422E-4
1.026915628E1,-1.062011719E-2,2.716064453E-3,-1.861572266E-3
1.027419168E1,-1.170349121E-2,2.288818359E-3,-1.647949219E-3
1.027922708E1,-1.362609863E-2,3.601074219E-3,-1.892089844E-3
1.028426248E1,-1.538085938E-2,7.110595703E-3,-9.460449219E-4
1.028929788E1,-1.686096191E-2,8.697509766E-3,-8.544921875E-4
1.029433328E1,-1.722717285E-2,7.293701172E-3,-1.922607422E-3
1.029936868E1,-1.722717285E-2,4.425048828E-3,-1.586914062E-3
1.030440408E1,-1.722717285E-2,1.190185547E-3,-1.953125000E-3
1.030943948E1,-1.649475098E-2,-1.327514648E-3,-9.155273438E-5
1.031447488E1,-1.542663574E-2,-5.035400391E-4,1.647949219E-3
1.031951028E1,-1.585388184E-2,1.663208008E-3,1.968383789E-3
1.032454568E1,-1.615905762E-2,3.829956055E-3,1.968383789E-3
1.032958108E1,-1.458740234E-2,5.996704102E-3,1.190185547E-3
1.033461648E1,-1.483154297E-2,5.752563477E-3,9.002685547E-4
1.033965188E1,-1.428222656E-2,3.860473633E-3,9.155273438E-5
1.034468729E1,-1.237487793E-2,4.180908203E-3,1.495361328E-3
