"Time (s)","Linear Acceleration x (m/s^2)","Linear Acceleration y (m/s^2)","Linear Acceleration z (m/s^2)"
3.936158290E-1,2.782390118E-1,-2.699089050E-2,-3.817510605E-2
3.985901940E-1,2.507402301E-1,-7.377243042E-2,5.131912231E-2
4.035645590E-1,2.336115241E-1,-1.097393036E-2,6.880950928E-2
4.085389240E-1,2.081173658E-1,-4.469394684E-2,-9.852266312E-2
4.135132900E-1,1.744735241E-1,-4.509735107E-2,-2.215003967E-1
4.184876550E-1,1.028422117E-1,-8.475112915E-2,-1.724452972E-1
4.234620200E-1,1.674704552E-1,-7.816314697E-3,-6.264114380E-2
4.284363850E-1,8.235046268E-2,-2.568054199E-2,-8.795976639E-2
4.334107500E-1,8.286723495E-2,-4.322528839E-2,-1.544995308E-1
4.383851160E-1,1.459473372E-1,-3.263282776E-2,-8.515405655E-2
4.433594810E-1,1.311492026E-1,-9.191131592E-2,-8.496904373E-2
4.483338460E-1,1.610686481E-1,-8.020973206E-2,-1.452350616E-1
4.533387290E-1,1.508764625E-1,-4.572296143E-2,-1.508111954E-1
4.583436120E-1,1.014891565E-1,1.798629761E-2,-1.982698441E-1
4.632569420E-1,1.323202848E-1,-5.237293243E-2,-1.867675781E-1
4.682618250E-1,1.437951922E-1,-2.586364746E-2,-1.943149567E-1
4.732361900E-1,7.366105914E-2,-2.086925507E-2,-3.273663521E-1
4.782105550E-1,2.079085708E-1,-1.824855804E-2,-2.853183746E-1
4.831849200E-1,1.694677770E-1,-3.203296661E-2,-2.083444595E-2
4.881592860E-1,8.007344604E-2,-2.709102631E-2,-8.137130737E-2
4.931336510E-1,3.151357174E-2,-5.969047546E-2,-3.109655380E-1
4.981080160E-1,-4.396262765E-2,-6.596469879E-2,-2.374978065E-1
5.031434160E-1,9.034237266E-2,4.231166840E-2,-3.730616570E-1
5.080567470E-1,8.721718192E-2,6.188392639E-3,-2.493591309E-1
5.130311120E-1,7.935106754E-2,1.501560211E-2,-2.963466644E-1
5.180054770E-1,5.707073212E-2,-1.148509979E-2,-4.244418144E-1
5.229798420E-1,-5.381050706E-2,1.148796082E-2,-2.747163773E-1
5.279542070E-1,-5.248606205E-2,-1.263427734E-2,-2.188949585E-1
5.329590900E-1,-8.342939615E-2,-1.984882355E-2,-2.809143066E-1
5.379334560E-1,1.501825452E-2,-3.455162048E-3,-3.722195625E-1
5.429078210E-1,-9.405210614E-2,-7.625579834E-2,-3.053531647E-1
5.478821860E-1,-5.861780047E-2,2.052116394E-2,-3.100547791E-1
5.528565510E-1,-1.443207264E-2,-4.115295410E-2,-2.164788246E-1
5.578003990E-1,-1.202374697E-3,2.000522614E-2,-1.384506226E-1
5.627747640E-1,9.161269665E-2,2.871608734E-2,-1.998310089E-1
5.677491290E-1,-2.554634213E-2,-3.994846344E-2,-1.454238892E-1
5.727234950E-1,9.078112245E-2,-1.386165619E-2,-5.678939819E-2
5.776978600E-1,-1.113775074E-1,-4.921531677E-2,-1.665167809E-1
5.826722250E-1,-1.001030207E-3,-6.524944305E-2,-2.042417526E-1
5.876465900E-1,1.269794405E-1,-1.212120056E-3,-1.428365707E-1
5.926209560E-1,9.760916233E-3,-3.178882599E-2,-7.283258438E-2
5.976258380E-1,2.575123310E-2,2.966308594E-2,-1.046071053E-1
6.026002040E-1,6.078213453E-3,-5.991935730E-3,2.122592926E-2
6.075745690E-1,5.266040564E-3,-6.077766418E-3,9.012699127E-3
6.125184160E-1,9.620982409E-2,-2.030277252E-2,6.026840210E-2
6.175232990E-1,1.559506357E-1,-8.411407471E-3,1.320629120E-1
6.224976650E-1,2.246193290E-1,1.515769958E-2,1.513624191E-1
6.274720300E-1,2.405588925E-1,-3.911018372E-2,9.995555878E-2
6.324769130E-1,1.996654868E-1,-1.527118683E-2,1.595115662E-1
6.374512780E-1,1.310020685E-1,-5.061626434E-2,2.674951553E-1
6.424256430E-1,1.948185265E-1,-4.560756683E-2,3.106446266E-1
6.474000080E-1,1.568985581E-1,-6.761550903E-4,3.157405853E-1
6.523743730E-1,1.972271502E-1,-2.911567688E-2,2.668271065E-1
6.573487390E-1,3.430817425E-1,-5.447387695E-3,1.645278931E-1
6.623231040E-1,3.487300277E-1,-7.931709290E-3,2.327890396E-1
6.672974690E-1,3.615471423E-1,-1.987171173E-2,4.318523407E-1
6.722718340E-1,3.576065600E-1,1.521110535E-2,3.485240936E-1
6.772462000E-1,3.534762561E-1,3.461837769E-4,3.742723465E-1
6.822510820E-1,2.482488751E-1,1.855087280E-2,3.267869949E-1
6.872254480E-1,3.044618964E-1,-5.519580841E-2,2.822651863E-1
6.921692950E-1,2.968503237E-1,-3.868198395E-2,3.371176720E-1
6.971741780E-1,1.882574856E-1,-4.590225220E-2,3.396029472E-1
7.021485430E-1,3.206773102E-1,-4.369068146E-2,3.185033798E-1
7.071229090E-1,3.338069916E-1,-1.567268372E-2,3.235011101E-1
7.120972740E-1,3.259855509E-1,7.390975952E-3,3.732819557E-1
7.170716390E-1,3.586537540E-1,-3.252029419E-4,2.931466103E-1
7.220460040E-1,3.956861198E-1,-3.386497498E-2,3.575572968E-1
7.270203700E-1,3.332945704E-1,5.061531067E-2,3.222908974E-1
7.319947350E-1,3.233473897E-1,-2.842712402E-2,3.202624321E-1
7.369691000E-1,2.618109286E-1,-7.369232178E-2,3.276872635E-1
7.419434650E-1,2.882882655E-1,-4.306793213E-2,3.091988564E-1
7.469178310E-1,2.180482149E-1,-4.572486877E-2,3.168716431E-1
7.518921960E-1,2.663779855E-1,-2.714824677E-2,3.551378250E-1
7.568665610E-1,2.764794827E-1,-6.058597565E-2,3.435974121E-1
7.618409260E-1,2.346795797E-1,-3.232002258E-2,3.464732170E-1
7.668152910E-1,3.231908083E-1,-5.137538910E-2,3.164734840E-1
7.717896570E-1,2.578136325E-1,-2.541923523E-2,3.764228821E-1
7.767945400E-1,2.495573163E-1,-1.386165619E-2,3.462438583E-1
7.817689050E-1,1.562958956E-1,-1.659488678E-2,3.446412086E-1
7.867432700E-1,1.486923099E-1,-3.584766388E-2,1.001539230E-1
7.917176350E-1,1.248070598E-1,-5.492496490E-2,2.423424721E-1
7.966920000E-1,1.462917030E-1,-1.479053497E-2,2.371068001E-1
8.016663660E-1,2.078959644E-1,-2.210044861E-2,2.013926506E-1
8.067017660E-1,2.571336329E-1,-2.933025360E-2,2.603960037E-1
8.116150960E-1,1.099115312E-1,-7.431030273E-2,3.329706192E-1
8.165894610E-1,1.785887480E-1,-4.580211639E-2,2.491641045E-1
8.215638270E-1,1.571286321E-1,-1.273155212E-2,1.921882629E-1
8.265381920E-1,1.951158643E-1,-8.364009857E-2,2.066783905E-1
8.315125570E-1,3.438228071E-1,-4.535293579E-2,3.060569763E-1
8.364869220E-1,1.961494982E-1,-2.865600586E-2,1.969075203E-1
8.414612880E-1,5.657750368E-2,-6.874370575E-2,2.869677544E-1
8.464356530E-1,1.092663705E-1,-7.779312134E-2,2.276201248E-1
8.514100180E-1,5.557957292E-2,-2.055931091E-2,1.878104210E-1
8.563843830E-1,1.704086065E-1,-3.674221039E-2,2.430481911E-1
8.613892660E-1,1.569928229E-1,-4.318904877E-2,2.531766891E-1
8.663636310E-1,9.158399701E-2,-8.262920380E-2,1.097903252E-1
8.713379970E-1,4.769617319E-2,-9.345340729E-2,1.611237526E-1
8.763123620E-1,5.131426454E-2,-5.933761597E-2,1.955065727E-1
8.812867270E-1,3.147393465E-3,-3.723239899E-2,3.052339554E-1
8.862610920E-1,1.609483361E-1,-1.993656158E-2,1.356172562E-1
8.912354570E-1,5.785170197E-2,6.696701050E-3,1.563048363E-1
8.962098230E-1,1.230626702E-1,-2.120304108E-2,1.508350372E-1
9.011841880E-1,5.053058267E-2,-2.766418457E-2,2.232713699E-1
9.061585530E-1,4.214170575E-2,-1.994705200E-2,3.257493973E-1
9.111329180E-1,-4.417225718E-2,-3.350257874E-2,2.503833771E-1
9.161072840E-1,-5.415204167E-2,-7.517433167E-2,2.182583809E-1
9.210816490E-1,2.583444118E-2,-3.380012512E-2,2.620339394E-1
9.260560140E-1,-1.827370822E-1,-6.118774414E-2,2.393960953E-1
9.310608970E-1,6.836837530E-2,-3.342628479E-3,1.414389610E-1
9.360352620E-1,-5.804637074E-2,-3.322792053E-2,1.766123772E-1
9.409791100E-1,-9.376853704E-2,-2.970695496E-2,2.163596153E-1
9.459839930E-1,-1.056983471E-1,-2.856636047E-2,2.321867943E-1
9.509583580E-1,-2.569680512E-1,-5.348491669E-2,2.879104614E-1
9.559327230E-1,-1.757546961E-1,-5.230617523E-2,2.935028076E-1
9.609070880E-1,-2.629016340E-1,-3.699398041E-2,2.848620415E-1
9.658814540E-1,-1.864930987E-1,-6.188488007E-2,2.622022629E-1
9.708558190E-1,-2.216829062E-1,-2.045822144E-2,3.082070351E-1
9.758301840E-1,-1.999770999E-1,-7.380008698E-2,2.476029396E-1
9.808350670E-1,-3.533815742E-1,-6.306648254E-3,1.686320305E-1
9.857789150E-1,-2.815726101E-1,4.405021667E-2,1.044292450E-1
9.907532800E-1,-3.450338840E-1,2.073669434E-2,2.767267227E-1
9.957276450E-1,-3.253394961E-1,-5.435657501E-2,1.878743172E-1
1.000702010E0,-3.577202260E-1,1.288509369E-2,1.824779510E-1
1.005676375E0,-4.182151854E-1,-4.072761536E-2,2.527909279E-1
1.010681258E0,-4.359032810E-1,1.945590973E-2,1.195731163E-1
1.015655623E0,-3.756159544E-1,1.067543030E-2,1.007652283E-1
1.020629989E0,-3.675542772E-1,-2.632141113E-2,1.010379791E-1
1.025604354E0,-3.451624811E-1,-1.339912415E-2,1.650834084E-1
1.030578719E0,-4.079123139E-1,-2.418899536E-2,5.627393723E-2
1.035553084E0,-3.853621781E-1,5.204200745E-3,1.513404846E-1
1.040527450E0,-4.717184901E-1,-1.149177551E-3,2.596645355E-1
1.045501815E0,-4.651928842E-1,-4.034042358E-4,1.663885117E-1
1.050476180E0,-3.616477549E-1,1.926326752E-2,1.255273819E-2
1.055450545E0,-3.600614369E-1,-8.441925049E-3,3.974437714E-3
1.060424911E0,-3.724706471E-1,4.175186157E-3,-1.037354469E-1
1.065399276E0,-3.282591701E-1,-9.356498718E-3,-1.020574570E-1
1.070373641E0,-4.309406281E-1,2.432060242E-2,-1.555490494E-2
1.075348006E0,-5.068349838E-1,-2.261829376E-2,-4.789829254E-2
1.080322372E0,-4.639720619E-1,3.992080688E-3,-1.531815529E-1
1.085296737E0,-4.142511487E-1,-7.352828979E-3,-1.489648819E-1
1.090271102E0,-3.907714188E-1,2.736091614E-3,-2.013225555E-1
1.095245467E0,-3.320080042E-1,3.340721130E-3,-9.739780426E-2
1.100250350E0,-2.668265104E-1,4.877471924E-2,-1.713929176E-1
1.105224715E0,-2.731783390E-1,1.832580566E-2,-1.007246971E-1
1.110260116E0,-3.715605438E-1,1.656150818E-2,-1.154885292E-1
1.115173446E0,-2.448382974E-1,-1.343727112E-2,-1.843252182E-1
1.120147811E0,-2.653662264E-1,-4.549503326E-2,-1.038155556E-1
1.125122176E0,-8.026936650E-2,3.134059906E-2,-1.655631065E-1
1.130096541E0,-1.209214628E-1,3.914070129E-2,-2.503285408E-1
1.135070907E0,2.768900990E-2,6.583976746E-2,-1.784949303E-1
1.140045272E0,5.161106586E-3,2.157783508E-2,-8.355522156E-2
1.145019637E0,1.580762863E-2,3.436183929E-2,-9.323740005E-2
1.149994002E0,-2.800250053E-2,-1.193046570E-2,-1.193017960E-1
1.154968368E0,-5.412697792E-4,3.637313843E-3,-4.116058350E-2
1.159942733E0,1.614175439E-1,4.753589630E-2,-3.432607651E-2
1.164917098E0,1.191876233E-1,2.508544922E-2,9.121894836E-4
1.169891463E0,1.056498885E-1,-1.602458954E-2,-6.559944153E-2
1.174865829E0,7.783192396E-2,1.162624359E-2,-1.433963776E-1
1.179840194E0,2.411579788E-1,6.493568420E-2,-1.781396866E-1
1.184814559E0,2.497530282E-1,5.400943756E-2,-8.992242813E-2
1.189819442E0,2.940338850E-1,1.717853546E-2,2.110767365E-2
1.194793807E0,3.662783206E-1,2.303600311E-2,7.914257050E-2
1.199768172E0,1.107924461E0,3.827381134E-1,-6.543235779E-1
1.204742538E0,-1.087085009E-1,-1.366415024E-1,-6.017923355E-2
1.209716903E0,3.893418908E-1,3.497695923E-2,6.601810455E-2
1.214691268E0,5.737512112E-1,1.640701294E-2,-3.091521263E-1
1.219665633E0,1.428969800E-1,-9.171104431E-2,5.057525635E-2
1.224639998E0,6.787124276E-1,7.232284546E-2,1.308503151E-1
1.229614364E0,3.198822141E-1,-3.417587280E-2,-1.012039185E-1
1.234588729E0,1.859750450E-1,-7.556915283E-3,-2.440404892E-2
1.239563094E0,5.041975379E-1,8.261394501E-2,-3.790569305E-2
1.244537459E0,2.509818077E-1,-4.512119293E-2,-1.823043823E-2
1.249511825E0,4.058318436E-1,1.943206787E-2,-1.474065781E-1
1.254516707E0,3.654749990E-1,2.441310883E-2,-8.194875717E-2
1.259491073E0,2.425001860E-1,5.698204041E-3,-9.261751175E-2
1.264465438E0,2.430060804E-1,1.081180573E-2,-1.927962303E-1
1.269439803E0,3.282359838E-1,7.260513306E-2,-6.542539597E-2
1.274414168E0,2.356719673E-1,8.192825317E-2,-4.064750671E-2
1.279388534E0,2.263686061E-1,5.340194702E-2,-1.435422897E-1
1.284362899E0,1.956301928E-1,1.562976837E-2,-3.788948059E-2
1.289337264E0,3.067228198E-1,4.894924164E-2,-1.149272919E-1
1.294311629E0,2.636283636E-1,-5.307197571E-3,-2.550148964E-1
1.299285995E0,2.943373322E-1,7.070255280E-2,-1.933255196E-1
1.304260360E0,2.210635841E-1,7.760334015E-2,-5.428266525E-2
1.309234725E0,1.274505854E0,3.276119232E-1,-2.090802193E-1
1.314209090E0,-6.332383156E-1,-3.332576752E-1,-2.067971230E-1
1.319183456E0,1.407563448E0,9.785652161E-3,-6.059660912E-1
1.324188338E0,-3.506440818E-1,1.586074829E-1,3.458871841E-1
1.329132186E0,4.131086767E-1,-8.091831207E-2,-2.941107750E-1
1.334137069E0,-1.535235047E-1,-3.753662109E-2,-5.773830414E-2
1.339111434E0,3.967435658E-1,9.515857697E-2,-3.583621979E-2
1.344085799E0,2.247384191E-2,3.563785553E-2,9.575843811E-3
1.349060165E0,4.703496993E-1,9.939670563E-2,-6.573104858E-2
1.354034530E0,3.188404739E-1,-3.547668457E-4,-2.065944672E-1
1.359008895E0,2.835987806E-1,4.934310913E-2,-3.652615547E-1
1.363983260E0,1.070407629E-1,2.072906494E-2,-5.993652344E-2
1.368957625E0,2.227509618E-1,3.488254547E-2,-1.678705215E-2
1.373931991E0,2.126882672E-1,1.592636108E-2,-4.475641251E-2
1.378906356E0,2.690986097E-1,6.092548370E-2,-3.701972961E-2
1.383880721E0,3.441551030E-1,3.473854065E-2,1.193647385E-1
1.388855086E0,1.683343947E-1,-7.788658142E-3,2.654600143E-2
1.393829452E0,1.967106760E-1,2.550125122E-2,-6.558322906E-2
1.398803817E0,2.200331390E-1,5.839920044E-2,-8.371829987E-3
1.403778182E0,3.237397671E-1,4.379558563E-2,-1.776838303E-2
1.408752547E0,1.932988763E-1,4.824066162E-2,-2.941322327E-2
1.413818465E0,2.860385180E-1,3.843021393E-2,-9.769535065E-2
1.418701278E0,1.535165906E-1,7.323265076E-3,-1.183562279E-1
1.423706161E0,1.635891199E-1,-4.489040375E-2,-2.286949158E-1
1.428680526E0,6.978553534E-2,5.671024323E-2,1.730918884E-3
1.433654891E0,1.067431867E-1,4.882240295E-2,3.659248352E-2
1.438629256E0,8.188566566E-2,1.023483276E-2,-6.112146378E-2
1.443603622E0,2.198630869E-1,-9.224891663E-3,-1.486678123E-1
1.448577987E0,1.725825369E-1,4.543304443E-3,-1.764483452E-1
1.453552352E0,9.060642123E-2,3.955841064E-2,-3.390502930E-2
1.458526717E0,3.076937795E-2,1.296615601E-2,-1.309013367E-1
1.463501082E0,1.125767827E-2,6.209278107E-2,-1.209020615E-1
1.468475448E0,-3.922852874E-2,-1.909828186E-2,9.194660187E-2
1.473449813E0,9.710824490E-2,3.964328766E-2,-4.871749878E-2
1.478424178E0,6.262129545E-2,1.067256927E-2,-1.054553986E-1
1.483398543E0,1.161448956E-1,1.514339447E-2,-1.639075279E-1
1.488403426E0,6.074178219E-2,5.031776428E-2,-1.321086884E-1
1.493377791E0,-3.942644596E-2,7.801914215E-2,-1.478934288E-1
1.498352157E0,-1.062025726E-1,1.559162140E-2,-1.023979187E-1
1.503326522E0,-1.512748599E-1,2.438640594E-2,-1.848931313E-1
1.508300887E0,-9.647521377E-2,-4.617691040E-3,-8.962297440E-2
1.513275252E0,2.667614818E-2,-1.203727722E-2,-1.319522858E-1
1.518249618E0,4.972743988E-2,-5.213737488E-3,-1.030936241E-1
1.523223983E0,5.362883210E-2,6.759071350E-2,-1.524443626E-1
1.528198348E0,-1.620531976E-1,4.057121277E-2,-5.276346207E-2
1.533172713E0,-1.021179855E-1,1.846122742E-2,-2.949619293E-2
1.538147079E0,2.177536488E-3,4.141235352E-2,1.957559586E-2
1.543121444E0,-9.972020984E-2,2.865791321E-3,-8.275318146E-2
1.548095809E0,-1.228978038E-1,-3.767395020E-2,-1.275167465E-1
1.553070174E0,-1.033955514E-1,-2.357959747E-2,3.110599518E-2
1.558075057E0,-1.050640941E-1,-1.190376282E-2,1.507019997E-1
1.563049422E0,7.536855340E-2,-2.857017517E-2,1.230330467E-1
1.567993270E0,4.280418158E-3,-1.667022705E-2,9.334993362E-2
1.572998153E0,2.581968904E-2,3.529930115E-2,5.216073990E-2
1.577972518E0,-2.595275640E-3,3.952980042E-2,9.854412079E-2
1.582946883E0,-4.754382372E-2,-1.778602600E-2,7.828569412E-2
1.587921248E0,2.102550864E-2,3.392124176E-2,1.195282936E-1
1.592895614E0,-5.470472574E-2,1.685905457E-2,1.322340965E-1
1.597869979E0,1.459386945E-2,9.517669678E-3,8.833074570E-2
1.602844344E0,7.641223073E-2,-3.315067291E-2,1.510329247E-1
1.607818709E0,1.588793695E-1,3.302764893E-2,2.319812775E-1
1.612793075E0,-2.870783210E-2,1.118373871E-2,3.663973808E-1
1.617767440E0,1.909258068E-1,8.272171021E-3,2.422418594E-1
1.622741805E0,-3.031414747E-2,-1.111888885E-2,1.970415115E-1
1.627716170E0,-6.038913131E-2,1.470184326E-2,1.217556000E-1
1.632690536E0,-4.513195157E-2,7.357597351E-3,1.888408661E-1
1.637695418E0,1.184778214E-1,2.351760864E-3,1.820969582E-1
1.642669784E0,-2.656123042E-2,-1.213645935E-2,1.304779053E-1
1.647644149E0,8.668929338E-2,-3.595066071E-2,2.775840759E-1
1.652618514E0,1.375697851E-1,-2.900123596E-3,4.258465767E-1
1.657562362E0,4.403087497E-2,-3.214836121E-3,3.934168816E-1
1.662567245E0,3.388395905E-2,-2.479839325E-2,2.408337593E-1
1.667541610E0,7.082948089E-2,-3.198432922E-2,2.076301575E-1
1.672515975E0,-2.738854289E-2,2.221870422E-2,2.265958786E-1
1.677490340E0,-9.559422731E-3,-3.043174744E-2,2.121543884E-1
1.682464706E0,-1.126326323E-1,-3.325176239E-2,4.313220978E-1
1.687439071E0,-2.643250525E-1,-1.954841614E-2,2.898221016E-1
1.692413436E0,-1.783060431E-1,-4.349994659E-2,-4.616165161E-2
1.697387801E0,-2.743241191E-1,-5.763912201E-2,-6.520366669E-2
1.702362166E0,-2.206058800E-1,-3.868961334E-2,1.400532722E-1
1.707336532E0,-3.211669028E-1,1.527976990E-2,1.946134567E-1
1.712310897E0,-1.901435554E-1,-6.933212280E-3,-6.436347961E-3
1.717346297E0,-2.347258627E-1,-5.018234253E-2,2.427153587E-1
1.722259627E0,-2.428909540E-1,6.298065186E-3,2.728695869E-1
1.727233993E0,-1.870056987E-1,6.011104584E-2,1.991009712E-1
1.732208358E0,-2.004592419E-1,-9.234428406E-3,8.825302124E-2
1.737182723E0,-2.733914256E-1,-8.279991150E-2,-1.303181648E-1
1.742157088E0,-2.492134571E-1,-2.598190308E-2,-1.559238434E-1
1.747131454E0,-2.037400603E-1,-1.909637451E-2,-1.358795166E-2
1.752105819E0,-1.321921945E-1,-7.375717163E-3,-3.276777267E-2
1.757080184E0,-9.416168928E-2,-2.396392822E-2,1.135916710E-1
1.762054549E0,-5.440270901E-2,3.516769409E-2,2.210426331E-1
1.767028915E0,-2.584121823E-1,3.489875793E-2,5.393123627E-2
1.772003280E0,-3.120387793E-1,-1.953601837E-2,-5.733394623E-2
1.776977645E0,-1.833146811E-1,-2.392101288E-2,8.256959915E-2
1.781952010E0,-1.876852512E-1,-6.597614288E-2,1.843929291E-3
1.786926375E0,-7.816314697E-3,-1.323890686E-2,1.106553078E-1
1.791900741E0,-2.024280429E-1,-3.526687622E-3,1.594233513E-1
1.796875106E0,-2.420899272E-1,-6.709003448E-2,-5.661249161E-2
1.801879989E0,-3.192202449E-1,-1.677036285E-2,5.260896683E-2
1.806823836E0,-1.760691404E-1,4.963970184E-2,1.349272728E-1
1.811828719E0,-1.921337843E-1,4.708194733E-2,-5.289077759E-3
1.816833602E0,-2.904995680E-1,-5.924320221E-2,2.051100731E-1
1.821807967E0,-3.146752715E-1,-2.069282532E-2,1.139454842E-1
1.826782332E0,-8.840709925E-2,-1.081371307E-2,1.698617935E-1
1.831756698E0,-3.153294325E-2,-2.219104767E-2,4.331288338E-1
1.836731063E0,-5.530315638E-2,-1.451778412E-2,3.520073891E-1
1.841705428E0,-6.495296955E-2,-5.648231506E-2,3.164277077E-1
1.846679793E0,-1.836556196E-2,-1.323127747E-2,2.125773430E-1
1.851654159E0,-5.051404238E-2,-3.899192810E-2,1.070113182E-1
1.856628524E0,8.974748850E-2,-1.739120483E-2,2.831621170E-1
1.861602889E0,-6.610989571E-2,-1.716136932E-2,2.525386810E-1
1.866577254E0,-1.308210492E-1,1.141643524E-2,9.707689285E-2
1.871551620E0,-1.738601923E-1,-5.238246918E-2,9.389448166E-2
1.876556502E0,-2.402213216E-1,-9.208393097E-2,4.348230362E-2
1.881500350E0,-2.445529699E-1,-8.647918701E-3,1.480007172E-2
1.886505233E0,-2.016016245E-1,1.516532898E-2,-3.006029129E-2
1.891479598E0,-1.732139587E-1,-2.491283417E-2,7.422685623E-2
1.896423446E0,-1.238893270E-1,5.100154877E-2,3.523235321E-1
1.901428329E0,-1.201550364E-1,2.945804596E-2,2.102551460E-1
1.906402694E0,-1.215435863E-1,-1.028194427E-1,-2.734231949E-2
1.911377059E0,2.107304335E-2,-2.846240997E-2,-5.447387695E-3
1.916351424E0,-4.726898670E-2,-3.013992310E-2,2.760624886E-1
1.921325790E0,-8.680331707E-2,7.439517975E-2,2.105588913E-1
1.926300155E0,-1.149060726E-1,3.162288666E-2,6.056785583E-2
1.931274520E0,-1.904720664E-1,-1.786136627E-2,-1.376900673E-1
1.936248885E0,-2.016561627E-1,-2.669811249E-2,7.657718658E-2
1.941223250E0,-5.908298492E-2,6.608963013E-2,2.938251495E-1
1.946197616E0,-2.865195274E-2,2.354526520E-2,2.259879112E-1
1.951202498E0,-1.144665480E-1,-2.804756165E-2,1.422696114E-1
1.956146346E0,-2.588694096E-1,-2.023410797E-2,1.843323708E-1
1.961151229E0,-1.734085679E-1,-1.965522766E-2,4.525723457E-1
1.966125594E0,-1.360579729E-1,-4.977703094E-2,2.181434631E-1
1.971099959E0,-3.229644299E-1,-3.700828552E-2,-3.305101395E-2
1.976074325E0,-2.646878958E-1,-1.237201691E-2,-4.591703415E-2
1.981048690E0,-3.815236688E-1,7.331848145E-3,2.198596001E-1
1.986023055E0,-3.773687482E-1,-3.991127014E-3,1.905164719E-1
1.990997420E0,-4.824019670E-1,-3.665637970E-2,1.682982445E-1
1.995971786E0,-4.241704941E-1,-3.135013580E-2,-3.082847595E-2
2.000946151E0,-6.566408277E-1,-4.956054688E-2,-3.220891953E-2
2.005920516E0,-8.748170137E-1,1.071863174E-1,2.403640747E-1
2.010894881E0,-2.014635205E-1,5.000782013E-2,2.437248230E-1
2.015869247E0,-1.246071458E-1,-1.013269424E-1,9.577131271E-2
2.020904647E0,-1.025190353E-1,-3.420829773E-2,1.922020912E-1
2.025817977E0,-2.783499956E-1,1.576433182E-1,1.298608780E-1
2.030822860E0,-5.640185475E-1,8.089065552E-3,-3.189210892E-1
2.035797225E0,-4.089608192E-1,1.766872406E-2,1.327595711E-1
2.040771590E0,-4.372380972E-1,-1.561355591E-2,-5.095005035E-3
2.045745956E0,-4.341236353E-1,5.763053894E-3,-6.618785858E-2
2.050720321E0,-3.830030560E-1,2.484989166E-2,-1.760897636E-1
2.055694686E0,-2.586228848E-1,8.164405823E-2,-1.173925400E-1
2.060669051E0,-4.754852653E-1,-1.323413849E-2,-2.835745811E-1
2.065643416E0,-2.498136163E-1,2.699375153E-2,-2.267284393E-1
2.070617782E0,-5.172847509E-1,-6.312751770E-2,2.299833298E-2
2.075592147E0,-3.549609184E-1,2.224063873E-2,-1.754517555E-1
2.080566512E0,-2.856469750E-1,-6.226539612E-3,-2.894291878E-1
2.085540877E0,-2.143665552E-1,4.350471497E-2,-2.324299812E-1
2.090515243E0,-2.147259712E-1,-3.005409241E-2,-2.279825211E-1
2.095489608E0,-3.597506881E-1,-1.592159271E-2,-1.860861778E-1
2.100463973E0,-3.321056366E-1,5.219459534E-2,-4.067392349E-1
2.105438338E0,-4.749721289E-1,6.403923035E-3,-4.839386940E-1
2.110412704E0,-1.867285371E-1,-1.299095154E-2,-2.819094658E-1
2.115387069E0,-1.625608802E-1,2.451515198E-2,-2.585225105E-1
2.120391952E0,-2.920755148E-1,2.399063110E-2,-3.438482285E-1
2.125366317E0,-4.445738196E-1,9.268760681E-3,-4.804096222E-1
2.130340682E0,-3.153633475E-1,-7.151031494E-2,-3.845682144E-1
2.135284530E0,-2.532308698E-1,6.463050842E-3,-8.662319183E-2
2.140289413E0,-4.494875669E-2,3.422737122E-2,-3.034133911E-1
2.145263778E0,-1.072432995E-1,-1.840209961E-2,-2.421107292E-1
2.150238143E0,-7.462221384E-2,4.033374786E-2,-3.182563782E-1
2.155212508E0,-2.716660500E-1,2.288436890E-2,-4.081034660E-1
2.160186873E0,-2.621527314E-1,3.369235992E-2,-5.068883896E-1
2.165161239E0,-2.102177143E-1,-1.477718353E-2,-1.943364143E-1
2.170135604E0,-1.159220338E-1,-1.331329346E-2,-2.857604027E-1
2.175109969E0,-1.968218684E-1,2.128028870E-2,-4.093751907E-1
2.180084334E0,-2.134600878E-1,2.017021179E-2,-2.675762177E-1
2.185058700E0,-2.918546200E-1,1.892471313E-2,-2.451324463E-1
2.190063582E0,-3.794496655E-1,-4.373264313E-2,-4.235539436E-1
2.195007430E0,-2.491775155E-1,4.055500031E-2,-3.855900764E-1
2.199981795E0,-2.425690889E-1,-3.633308411E-2,-2.652792931E-1
2.204986678E0,-2.381640077E-1,-6.770515442E-2,-2.946705818E-1
2.209961043E0,-1.511949897E-1,7.390022278E-3,-1.963725090E-1
2.214935409E0,-2.210146189E-1,2.982807159E-2,-1.414928436E-1
2.219909774E0,-1.889994144E-1,7.132530212E-3,1.668930054E-2
2.224884139E0,-1.524847746E-1,-3.567695618E-3,-1.356811523E-1
2.229858504E0,-2.387603521E-1,-1.642227173E-2,-2.016758919E-1
2.234832870E0,-2.580375671E-1,1.815700531E-2,-3.236413002E-1
2.239807235E0,-2.275913358E-1,5.798339844E-4,-1.990122795E-1
2.244781600E0,-2.259193063E-1,-9.821891785E-3,-1.510128975E-1
2.249755965E0,-1.015733480E-1,2.229976654E-2,-7.751321793E-2
2.254730331E0,-8.179295063E-2,-4.739761353E-3,-5.170869827E-2
2.259704696E0,-7.585489750E-2,-1.961421967E-2,7.552671432E-2
2.264679061E0,-3.907024860E-3,-2.724647522E-2,9.788656235E-2
2.269653426E0,-1.384363770E-1,-4.429912567E-2,3.505945206E-2
2.274658309E0,-3.855800629E-2,-6.123828888E-2,-8.370876312E-3
2.279632674E0,-4.798424244E-2,1.174736023E-2,-1.593732834E-2
2.284576522E0,-1.223576069E-2,-4.326057434E-2,8.995580673E-2
2.289581405E0,3.244292736E-2,1.546955109E-2,1.099600792E-1
2.294555770E0,5.991077423E-2,-2.078628540E-2,1.627669334E-1
2.299530135E0,4.922944307E-2,-7.335853577E-2,1.961345673E-1
2.304504500E0,5.765345693E-2,-2.162647247E-2,1.631174088E-1
2.309478866E0,1.251615584E-1,-2.930068970E-2,2.932906151E-1
2.314453231E0,1.401109397E-1,-1.598358154E-3,3.254733086E-1
2.319427596E0,1.074947119E-1,-7.106208801E-2,1.659941673E-1
2.324462997E0,1.646570563E-1,-3.146743774E-2,5.964422226E-2
2.329376327E0,1.366363168E-1,-4.176235199E-2,1.099691391E-1
2.334350692E0,3.001861870E-1,7.047653198E-3,3.227496147E-1
2.339325057E0,3.302870989E-1,4.131412506E-2,4.511604309E-1
2.344299422E0,3.954966068E-1,1.156997681E-2,3.896665573E-1
2.349273788E0,3.631960154E-1,-5.327033997E-2,2.910037041E-1
2.354278670E0,3.427706063E-1,-1.198358536E-1,2.263374329E-1
2.359222518E0,2.564372122E-1,-3.233909607E-2,3.133711815E-1
2.364227401E0,2.722263634E-1,-8.011150360E-2,3.288774490E-1
2.369201766E0,3.090297282E-1,-7.316780090E-2,2.947149277E-1
2.374145614E0,3.573094606E-1,-5.915546417E-2,4.426536560E-1
2.379119979E0,2.658353746E-1,6.728172302E-3,3.415694237E-1
2.384094344E0,2.882832587E-1,-8.098602295E-3,2.249283791E-1
2.389068709E0,3.104470372E-1,-3.688335419E-2,2.226700783E-1
2.394043075E0,4.645332992E-1,-7.016277313E-2,3.219151497E-1
2.399017440E0,5.252957344E-1,-4.034996033E-3,4.108648300E-1
2.403991805E0,4.204686284E-1,-5.642223358E-2,4.495701790E-1
2.408996688E0,3.093950748E-1,-3.281307220E-2,4.313216209E-1
2.413971053E0,2.792564929E-1,-3.541660309E-2,3.045763969E-1
2.418945418E0,3.577340841E-1,-2.661705017E-3,2.897400856E-1
2.423919784E0,3.720435500E-1,-9.996604919E-2,4.237842560E-1
2.428894149E0,4.764865339E-1,-1.681804657E-2,3.421840668E-1
2.433868514E0,3.868165910E-1,1.632499695E-2,3.796100616E-1
2.438842879E0,2.623077035E-1,-4.038619995E-2,3.720345497E-1
2.443817245E0,3.013818264E-1,-4.002285004E-2,3.361349106E-1
2.448791610E0,2.077560574E-1,-3.973293304E-2,4.137487411E-1
2.453765975E0,3.416994810E-1,-5.354690552E-2,4.058051109E-1
2.458740340E0,3.451451957E-1,-8.093833923E-3,3.390727043E-1
2.463714706E0,4.149700403E-1,-7.384681702E-2,3.769001961E-1
2.468689071E0,4.132560492E-1,-2.213478088E-3,4.426412582E-1
2.473693954E0,3.119111657E-1,-3.991127014E-2,3.518500328E-1
2.478668319E0,2.678003907E-1,-5.372238159E-2,3.538341522E-1
2.483642684E0,3.280447125E-1,-5.319309235E-2,3.511524200E-1
2.488617049E0,3.574372530E-1,-4.784679413E-2,4.029016495E-1
2.493591415E0,4.552614093E-1,-4.484558105E-2,4.542922974E-1
2.498565780E0,4.625432789E-1,-2.297878265E-2,3.400173187E-1
2.503540145E0,3.633571267E-1,-8.369445801E-3,3.400053978E-1
2.508514510E0,3.191981018E-1,-6.703472137E-2,2.432374954E-1
2.513488875E0,3.700847924E-1,9.385108948E-3,3.385281563E-1
2.518463241E0,3.620196581E-1,3.096008301E-2,2.796845436E-1
2.523437606E0,4.677060843E-1,4.539585114E-2,2.993774414E-1
2.528411971E0,3.743970394E-1,-1.523971558E-3,2.883949280E-1
2.533416854E0,3.574633002E-1,-7.153415680E-2,1.265859604E-1
2.538391219E0,3.784971237E-1,-6.058788300E-2,1.834411621E-1
2.543365584E0,3.782066703E-1,9.342193604E-3,2.186522484E-1
2.548339950E0,3.237596154E-1,8.144378662E-4,2.040219307E-1
2.553314315E0,3.571577370E-1,4.667186737E-2,3.028450012E-1
2.558288680E0,4.895372689E-1,2.375221252E-2,2.380409241E-1
2.563263045E0,5.265920162E-1,-3.190708160E-2,2.943143845E-1
2.568237411E0,5.540702939E-1,2.716064453E-3,1.708655357E-1
2.573211776E0,4.490763843E-1,-2.428245544E-2,9.098339081E-2
2.578186141E0,4.486020207E-1,-2.512645721E-2,1.887578964E-1
2.583160506E0,5.187492967E-1,-1.419734955E-2,2.856683731E-1
2.588134872E0,3.946754634E-1,1.421928406E-3,1.930012703E-1
2.593109237E0,4.535836279E-1,5.826950073E-4,1.249613762E-1
2.598083602E0,4.415306747E-1,1.881027222E-2,1.521363258E-1
2.603088485E0,3.684130013E-1,3.948211670E-3,1.745038033E-1
2.608032332E0,4.069334865E-1,6.478500366E-2,1.968717575E-2
2.613006698E0,3.460040390E-1,5.195140839E-2,5.445003510E-3
2.617981063E0,4.864072204E-1,1.089859009E-2,3.617048264E-2
2.622985946E0,4.985131025E-1,4.345607758E-2,9.036254883E-2
2.628021346E0,4.565258324E-1,-1.622867584E-2,1.513032913E-1
2.632934676E0,5.613393188E-1,5.436611176E-2,1.691803932E-1
2.637909041E0,5.163741112E-1,2.755832672E-2,1.302084923E-1
2.642883407E0,5.236174464E-1,5.994987488E-2,1.882910728E-1
2.647857772E0,4.884811640E-1,4.488086700E-2,9.719800949E-2
2.652832137E0,4.232616425E-1,1.111030579E-2,-4.864692688E-3
2.657806502E0,4.225815237E-1,4.611587524E-2,1.300292015E-1
2.662780868E0,3.890491724E-1,1.469516754E-2,1.457214355E-1
2.667755233E0,4.007846713E-1,3.074645996E-2,8.810377121E-2
2.672729598E0,4.031719565E-1,4.914188385E-2,4.764080048E-2
2.677703963E0,5.215481520E-1,-3.316879272E-3,4.779815674E-2
2.682678329E0,5.565174818E-1,2.728080750E-2,3.615188599E-2
2.687652694E0,3.951113224E-1,5.516624451E-2,-2.037906647E-2
2.692627059E0,3.953203261E-1,5.677700043E-2,9.813642502E-2
2.697601424E0,2.986720800E-1,8.666324615E-2,-1.125063896E-1
2.702575790E0,2.525271475E-1,1.243591309E-2,-1.301908493E-1
2.707550155E0,3.864000440E-1,3.798961639E-2,-6.035995483E-2
2.712555038E0,4.438259006E-1,9.869194031E-2,1.150560379E-1
2.717529403E0,5.126239657E-1,1.304912567E-1,4.105997086E-2
2.722503768E0,2.716005445E-1,-2.678108215E-2,-2.991151810E-2
2.727478133E0,3.796109557E-1,4.392814636E-2,-7.189130783E-2
2.732421981E0,3.876656294E-1,5.034065247E-2,-5.919456482E-2
2.737426864E0,5.515276194E-1,9.213447571E-2,-6.440639496E-3
2.742401229E0,5.417660475E-1,7.923603058E-2,-2.736949921E-2
2.747375594E0,4.118630290E-1,1.065940857E-1,-1.141939163E-1
2.752349959E0,3.940625787E-1,8.187007904E-2,-1.411819458E-1
2.757324325E0,2.489144057E-1,8.801746368E-2,-1.372876167E-1
2.762298690E0,2.442005277E-1,4.446125031E-2,-1.901869774E-1
2.767273055E0,2.159590423E-1,4.845714569E-2,-2.096271515E-1
2.772247420E0,2.920874655E-1,9.492874146E-2,-5.891561508E-2
2.777221786E0,1.956562102E-1,7.495689392E-2,-5.339431763E-2
2.782196151E0,2.561928034E-1,5.050754547E-2,-1.658406258E-1
2.787170516E0,8.980861306E-2,6.648826599E-2,-2.347340584E-1
2.792144881E0,1.514118314E-1,6.821155548E-2,-2.723202705E-1
2.797149764E0,1.249868721E-1,7.223606110E-2,-1.821870804E-1
2.802124129E0,2.143324614E-1,1.044826508E-1,-1.637177467E-1
2.807098495E0,1.495220959E-1,7.746601105E-2,-1.359348297E-1
2.812072860E0,1.751478761E-1,9.558486938E-2,-1.484332085E-1
2.817047225E0,1.583496779E-1,1.206951141E-1,-1.017327309E-1
2.822021590E0,1.606703848E-1,1.809854507E-1,-1.616716385E-1
2.826995956E0,9.677639604E-2,4.002475739E-2,-2.542920113E-1
2.831970321E0,1.018545926E-1,1.338138580E-1,-2.211880684E-1
2.836944686E0,9.664446115E-4,1.040124893E-1,-2.616086006E-1
2.841949569E0,4.769898951E-2,1.169614792E-1,-1.765594482E-1
2.846893416E0,-9.736418724E-5,1.084737778E-1,-2.410373688E-1
2.851867782E0,6.991237402E-3,1.377563477E-1,-2.318868637E-1
2.856872665E0,1.368860900E-1,1.171560287E-1,-2.842736244E-1
2.861847030E0,3.451731801E-2,1.344661713E-1,-2.607231140E-1
2.866821395E0,9.833495319E-2,1.422100067E-1,-3.412084579E-1
2.871795760E0,3.404821455E-2,1.096620560E-1,-2.960433960E-1
2.876770125E0,-3.684362769E-2,1.386213303E-1,-2.231059074E-1
2.881744491E0,-6.462545693E-2,5.631446838E-2,-2.476596832E-1
2.886718856E0,2.357050776E-2,1.494359970E-1,-2.931776047E-1
2.891693221E0,1.217085123E-2,1.121110916E-1,-3.758802414E-1
2.896667586E0,5.988121033E-3,7.521724701E-2,-2.924966812E-1
2.901641952E0,-2.830125391E-2,8.112144470E-2,-2.499346733E-1
2.906616317E0,-2.705958486E-2,1.081438065E-1,-2.526826859E-1
2.911590682E0,-5.677376688E-2,6.642723083E-2,-3.805985451E-1
2.916565047E0,-9.332825243E-2,8.173465729E-2,-2.902526855E-1
2.921539413E0,-1.602372527E-2,1.064786911E-1,-3.232526779E-1
2.926513778E0,-5.121380091E-3,1.216983795E-1,-4.596862793E-1
2.931549178E0,-7.650698721E-2,4.947662354E-2,-1.157517433E-1
2.936462508E0,3.912109882E-2,9.105968475E-2,-1.808323860E-1
2.941436873E0,-1.132557765E-1,5.678462982E-2,-3.090829849E-1
2.946411239E0,-1.727110595E-1,1.407651901E-1,-3.183207512E-1
2.951385604E0,-1.754065752E-1,8.459663391E-2,-3.395166397E-1
2.956359969E0,-9.089318663E-2,1.349439621E-1,-2.191295624E-1
2.961334334E0,1.186281443E-4,1.493654251E-1,-4.085302353E-2
2.966308700E0,7.998034358E-3,1.210985184E-1,-1.403441429E-1
2.971283065E0,-9.503026307E-2,1.544027328E-1,-2.178115845E-1
2.976257430E0,-1.405976564E-1,1.118726730E-1,-3.324303627E-1
2.981262313E0,-8.909817040E-2,1.451025009E-1,-2.220106125E-1
2.986236678E0,-1.230764017E-1,1.094131470E-1,-2.189712524E-1
2.991241561E0,-2.203528285E-1,1.211175919E-1,-2.326250076E-1
2.996215926E0,-1.939046383E-1,1.019535065E-1,-2.745981216E-1
3.001159774E0,-1.296641231E-1,1.111736298E-1,-1.227836609E-1
3.006164657E0,-1.271872520E-1,1.012601852E-1,-2.840447426E-1
3.011139022E0,-2.665836811E-1,1.596651077E-1,-3.144135475E-1
3.016113387E0,-2.493282557E-1,1.252431870E-1,-4.227809906E-1
3.021087752E0,-2.181629837E-1,1.451425552E-1,-2.661886215E-1
3.026062118E0,-1.894214600E-1,1.694793701E-1,-2.904510498E-1
3.031036483E0,-2.269091457E-1,1.580867767E-1,-2.391228676E-1
3.036010848E0,-2.430047393E-1,1.395692825E-1,-3.489160538E-1
3.040985213E0,-3.158404529E-1,7.393646240E-2,-5.263285637E-1
3.045959579E0,-3.126873374E-1,4.423999786E-2,-4.591512680E-1
3.050933944E0,-3.167323172E-1,1.209583282E-1,-3.123483658E-1
3.055908309E0,-3.822335899E-1,8.133125305E-2,-1.526527405E-1
3.060882674E0,-3.365638852E-1,8.924770355E-2,-1.146740913E-1
3.065857040E0,-2.608169019E-1,4.050636292E-2,-2.162098885E-1
3.070861922E0,-3.247987330E-1,8.207035065E-2,-4.228806496E-1
3.075836288E0,-4.116418660E-1,9.988880157E-2,-4.316501617E-1
3.080810653E0,-3.775389194E-1,1.246023178E-1,-3.979063034E-1
3.085785018E0,-5.898024440E-1,1.040191650E-1,-3.198914528E-1
3.090759383E0,-4.704034925E-1,7.628536224E-2,-2.923955917E-1
3.095733748E0,-4.395397604E-1,1.147584915E-1,-2.581958771E-1
3.100708114E0,-6.115594506E-1,6.803226471E-2,-5.688009262E-1
3.105682479E0,-5.547782779E-1,7.853126526E-2,-7.396879196E-1
3.110656844E0,-5.946131945E-1,8.184242249E-2,-5.055246353E-1
3.115631209E0,-5.090010762E-1,8.480644226E-2,-3.091192245E-1
3.120605575E0,-7.103098631E-1,5.897712708E-2,-3.179035187E-1
3.125579940E0,-6.318548918E-1,1.487121582E-1,-7.424721718E-1
3.130554305E0,-8.205198646E-1,3.219127655E-2,-7.175393105E-1
3.135528670E0,-6.079113483E-1,1.125879288E-1,-8.698425293E-1
3.140533553E0,-5.712169409E-1,7.659339905E-2,-2.915382385E-1
3.145507918E0,-3.982262015E-1,1.279697418E-1,-1.314802170E-1
3.150451766E0,-7.399648428E-1,3.699874878E-2,-1.713857651E-1
3.155456649E0,-6.192348599E-1,1.517105103E-2,-6.855144501E-1
3.160431014E0,-7.233672142E-1,-7.003307343E-2,-8.363471031E-1
3.165405379E0,-5.023152828E-1,4.870033264E-2,-7.590541840E-1
3.170379745E0,-4.715474844E-1,1.712245941E-1,-2.692413330E-1
3.175354110E0,-3.659814298E-1,1.107854843E-1,-2.015428543E-1
3.180328475E0,-6.303102970E-1,3.890895844E-2,-2.171854973E-1
3.185302840E0,-7.038215995E-1,5.983924866E-2,-5.323061943E-1
3.190277206E0,-5.874254704E-1,-1.112174988E-2,-6.248536110E-1
3.195282088E0,-7.144328952E-1,1.790237427E-2,-3.551678658E-1
3.200256454E0,-6.608142257E-1,1.033697128E-1,-3.331937790E-1
3.205230819E0,-7.615532279E-1,4.861259460E-2,-5.675125122E-2
3.210174666E0,-5.503896475E-1,2.477264404E-2,-1.629323959E-1
3.215179549E0,-4.305441380E-1,2.944946289E-2,-2.847709656E-1
3.220153915E0,-5.070085526E-1,8.389186859E-2,-4.336524010E-1
3.225128280E0,-4.338376522E-1,3.409385681E-2,-2.294845581E-1
3.230102645E0,-3.334785104E-1,3.870010376E-2,8.828783035E-2
3.235138045E0,-3.883488178E-1,-1.617813110E-2,3.465270996E-2
3.240051375E0,-4.077305198E-1,-1.403808594E-2,1.631212234E-1
3.245025741E0,-4.830118716E-1,2.356529236E-3,2.861166000E-2
3.250000106E0,-3.632030785E-1,-9.471893311E-3,1.823949814E-2
3.255004989E0,-3.241234422E-1,-1.875400543E-2,1.567568779E-1
3.259979354E0,-2.337721288E-1,-1.389980316E-2,3.128833771E-1
3.264953719E0,-3.385040164E-1,-4.560470581E-3,1.228427887E-1
3.269928084E0,-4.214859903E-1,-4.776954651E-3,2.404832840E-2
3.274902450E0,-3.546293378E-1,-1.497268677E-4,7.964658737E-2
3.279876815E0,-3.207239509E-1,-4.973316193E-2,2.128067017E-1
3.284851180E0,-2.776797712E-1,-1.392364502E-2,4.558019638E-1
3.289825545E0,-2.309015989E-1,-6.349372864E-2,5.149030685E-1
3.294799911E0,-1.780190170E-1,-7.250308990E-2,3.422183990E-1
3.299774276E0,-2.437840402E-1,-8.358383179E-2,3.506484032E-1
3.304748641E0,-2.001547217E-1,-1.880073547E-2,4.324688911E-1
3.309753524E0,-1.898908019E-1,-5.361652374E-2,3.933205605E-1
3.314727889E0,-9.042170644E-2,2.037334442E-2,5.196633339E-1
3.319702254E0,-1.975952089E-1,-5.508708954E-2,5.999684334E-1
3.324676620E0,-1.175428033E-1,-7.560539246E-2,5.734086037E-1
3.329650985E0,-1.300559938E-1,-6.048583984E-2,6.226739883E-1
3.334625350E0,-7.626110315E-2,-3.838920593E-2,5.724039078E-1
3.339599715E0,-2.495891452E-1,-1.131782532E-1,6.430444717E-1
3.344574081E0,-7.225021720E-2,-7.875728607E-2,6.729731560E-1
3.349548446E0,-2.741326094E-1,-5.886268616E-2,6.931118965E-1
3.354522811E0,-2.477609217E-1,-6.273651123E-2,6.705942154E-1
3.359497176E0,-2.264063656E-1,-7.596111298E-2,6.058492661E-1
3.364471541E0,-1.485137939E-1,-6.777191162E-2,5.605969429E-1
3.369445907E0,-1.159341931E-1,-4.072666168E-2,6.290688515E-1
3.374420272E0,-3.872182965E-2,-8.004093170E-2,6.473441124E-1
3.379394637E0,-6.161209941E-2,-8.611679077E-2,8.045768738E-1
3.384369002E0,-1.130391359E-1,-7.567501068E-2,7.692356110E-1
3.389343368E0,-2.950319648E-2,-4.163646698E-2,8.121857643E-1
3.394317733E0,-1.068903506E-1,-7.384014130E-2,7.746791840E-1
3.399322616E0,-1.173709929E-1,-1.056089401E-1,5.913343430E-1
3.404296981E0,-6.173256040E-2,-8.978939056E-2,6.811275482E-1
3.409271346E0,-4.681453109E-2,-6.229305267E-2,7.937908173E-1
3.414245711E0,-9.346237779E-2,-4.204463959E-2,7.356371880E-1
3.419220077E0,-2.363575697E-1,-1.114873886E-1,5.861291885E-1
3.424194442E0,-9.695509076E-2,-1.046361923E-1,6.647009850E-1
3.429168807E0,-5.308887362E-2,-6.473636627E-2,7.308883667E-1
3.434143172E0,1.386925578E-2,-3.230857849E-2,6.760635376E-1
3.439117538E0,3.998455405E-2,-1.111354828E-1,6.263723373E-1
3.444091903E0,3.762111068E-2,-5.229663849E-2,6.173458099E-1
3.449066268E0,-7.088220119E-2,-9.057903290E-2,7.289786339E-1
3.454040633E0,-9.366330504E-2,-5.055046082E-2,6.486063004E-1
3.459045516E0,-1.331794858E-1,-7.928085327E-2,6.468586922E-1
3.464019881E0,-6.165686250E-2,-1.029329300E-1,6.311278343E-1
3.468994247E0,9.465366602E-3,-5.541896820E-2,7.431898117E-1
3.473968612E0,3.062495589E-2,-6.716346741E-2,6.845469475E-1
3.478942977E0,3.493094444E-2,-7.866096497E-2,7.658696175E-1
3.483917342E0,-5.088683963E-2,-5.931949615E-2,5.893044472E-1
3.488891707E0,-4.190316796E-2,-1.038923264E-1,5.251474380E-1
3.493866073E0,-5.670323968E-2,-1.339092255E-1,5.913882256E-1
3.498840438E0,-9.243264794E-2,-9.750366211E-2,6.784162521E-1
3.503814803E0,-1.428157091E-2,-3.541374207E-2,6.325421333E-1
3.508789168E0,-1.183854043E-1,-1.225528717E-1,4.170851707E-1
3.513763534E0,-1.578501463E-1,-1.239652634E-1,4.324231148E-1
3.518737899E0,-4.346674681E-2,-2.621746063E-2,5.373363495E-1
3.523742782E0,1.590222120E-3,1.412487030E-2,4.809350967E-1
3.528717147E0,-3.865656257E-2,-5.909729004E-2,3.472056389E-1
3.533691512E0,-8.084002137E-2,-5.371379852E-2,4.106416702E-1
3.538726913E0,-1.415770650E-1,-6.956005096E-2,4.311408997E-1
3.543640243E0,-6.270450354E-2,-5.697536469E-2,3.145279884E-1
3.548614608E0,-6.962424517E-2,-8.218765259E-2,2.839746475E-1
3.553588973E0,-3.276556730E-3,-7.404804230E-2,3.269777298E-1
3.558563338E0,-5.540710688E-2,-1.870918274E-2,3.319230080E-1
3.563537704E0,8.563995361E-3,-6.527805328E-2,2.542834282E-1
3.568512069E0,-4.383745790E-2,-5.710887909E-2,2.222247124E-1
3.573486434E0,1.967388391E-2,-6.309700012E-2,1.433286667E-1
3.578460799E0,-1.157075763E-1,-6.661987305E-2,2.138810158E-1
3.583435165E0,-1.604141295E-1,-7.948207855E-2,1.470389366E-1
3.588409530E0,-1.154229343E-1,-8.270454407E-2,3.840112686E-2
3.593414413E0,1.400116086E-2,-1.030349731E-2,1.998581886E-1
3.598388778E0,-2.610390484E-1,-1.249408722E-1,2.679610252E-1
3.603363143E0,6.813016534E-2,-1.664257050E-2,5.470848083E-2
3.608337508E0,-1.960151792E-1,-1.240224838E-1,2.115445137E-1
3.613311873E0,-2.340534031E-1,-5.820655823E-2,5.783176422E-2
3.618286239E0,-1.113133729E-1,-4.951572418E-2,-1.346282959E-1
3.623260604E0,-6.950250268E-2,-1.243400574E-2,7.597208023E-2
3.628234969E0,-7.024839520E-2,-5.816650391E-2,4.654073715E-2
3.633209334E0,-1.325476468E-1,9.863853455E-3,-3.447103500E-2
3.638183700E0,-1.049400270E-1,4.134178162E-3,1.501417160E-2
3.643158065E0,-1.909212768E-1,-5.113506317E-2,9.776115417E-3
3.648132430E0,-1.295574605E-1,-2.796554565E-2,-1.180753708E-1
3.653106795E0,3.549391031E-2,-9.573936462E-3,-1.668019295E-1
3.658081161E0,-2.373031974E-1,-1.714706421E-2,-9.454154968E-2
3.663055526E0,-1.371831596E-1,1.313209534E-3,-2.070059776E-1
3.668029891E0,-1.441865563E-1,-3.720188141E-2,-3.784656525E-2
3.673034774E0,-4.250741005E-2,-2.590656281E-2,-1.794409752E-1
3.678009139E0,6.334838271E-2,-2.645778656E-2,-1.899757385E-1
3.682983504E0,3.578066826E-3,8.500099182E-3,-1.625514030E-1
3.687927352E0,-4.843229055E-2,-4.416656494E-2,-1.329941750E-1
3.692932235E0,-7.206454873E-2,1.211738586E-2,-1.911058426E-1
3.697906600E0,-1.810691953E-1,6.415367126E-3,-1.521129608E-1
3.702880965E0,-2.349449694E-1,-3.462696075E-2,-3.235058784E-1
3.707855331E0,1.417670250E-1,7.523536682E-3,-3.067092896E-1
3.712829696E0,2.089762986E-1,3.534889221E-2,-1.340317726E-1
3.717804061E0,1.411072016E-1,5.588054657E-2,-7.843589783E-2
3.722778426E0,5.417832732E-2,1.239013672E-2,-2.193498611E-1
3.727752791E0,-6.587988138E-2,-8.748912811E-2,-2.010259628E-1
3.732727157E0,7.464048266E-2,2.327919006E-3,-3.409857750E-1
3.737701522E0,2.334531546E-1,-3.129577637E-2,-1.634192467E-1
3.742675887E0,2.571228743E-1,-5.567550659E-3,-1.076769829E-1
3.747650252E0,1.885206103E-1,-1.313781738E-2,-2.885050774E-1
3.752655135E0,1.361726820E-1,1.452350616E-2,-1.990032196E-1
3.757629500E0,7.653239369E-2,3.886222839E-3,-6.103658676E-2
3.762603866E0,1.945359707E-1,2.739906311E-3,-1.981015205E-1
3.767578231E0,2.626227438E-1,2.770328522E-2,-1.403145790E-1
3.772552596E0,2.928735614E-1,-1.775741577E-3,-6.170892715E-2
3.777526961E0,2.540922165E-1,3.263092041E-2,-2.836618423E-1
3.782501327E0,1.393101513E-1,-1.896858215E-3,-3.387470245E-1
3.787475692E0,1.430913806E-1,3.452396393E-2,-2.590084076E-1
3.792450057E0,1.612399817E-1,8.950614929E-2,-7.846641541E-2
3.797424422E0,2.387580574E-1,4.494571686E-2,-3.053894043E-1
3.802398788E0,3.559562564E-1,1.964187622E-2,-3.675532341E-1
3.807373153E0,2.454343140E-1,2.276039124E-2,-1.696825027E-1
3.812347518E0,1.875455678E-1,5.873107910E-2,-7.517480850E-2
3.817321883E0,1.723122299E-1,4.589080811E-3,-1.822357178E-1
3.822296248E0,7.678410411E-2,2.881526947E-2,-2.860159874E-1
3.827270614E0,1.524293423E-1,1.280689240E-2,-3.062043190E-1
3.832275497E0,8.642956614E-2,3.954601288E-2,-2.033395767E-1
3.837219344E0,1.887893379E-1,2.830505371E-2,-2.878084183E-1
3.842285262E0,2.167917490E-1,4.777240753E-2,-4.023456573E-1
3.847198592E0,2.348742485E-1,8.002281189E-3,-4.003334045E-1
3.852172957E0,-4.180818796E-3,-3.132915497E-2,-3.344755173E-1
3.857147323E0,1.443507373E-1,9.748077393E-2,-3.397364616E-1
3.862121688E0,2.183662355E-1,8.588695526E-2,-4.523324966E-2
3.867096053E0,1.227860749E-1,8.420944214E-4,-4.523396492E-1
3.872070418E0,5.793491006E-2,3.631591797E-3,-3.865561485E-1
3.877044784E0,1.501542628E-1,6.311035156E-2,-1.937999725E-1
3.882019149E0,2.333074659E-1,4.444694519E-2,-2.148141861E-1
3.886993514E0,2.477080673E-1,7.804679871E-2,-3.345861435E-1
3.891967879E0,3.322850764E-1,8.998870850E-2,-3.331279755E-1
3.896942245E0,1.769661605E-1,5.197143555E-2,-2.494077682E-1
3.901916610E0,1.643906385E-1,4.484367371E-2,-1.500005722E-1
3.906890975E0,1.643399745E-1,7.098388672E-2,-1.338539124E-1
3.911865340E0,1.934000999E-1,4.519271851E-2,-2.025671005E-1
3.916839706E0,3.217926621E-1,6.688880920E-2,-2.966103554E-1
3.921844588E0,3.003570437E-1,6.470870972E-2,-3.333320618E-1
3.926788436E0,2.008802742E-1,8.835220337E-2,-1.527729034E-1
3.931793319E0,2.012079060E-1,7.160091400E-2,-2.381825447E-1
3.936767684E0,2.253401577E-1,6.677150726E-2,-2.096066475E-1
3.941742049E0,2.260600328E-1,8.092594147E-2,-2.331371307E-1
3.946716415E0,3.899044991E-1,8.083820343E-2,-1.454825401E-1
3.951690780E0,3.870673776E-1,4.760456085E-2,-1.531033516E-1
3.956665145E0,4.052482545E-1,8.062553406E-2,-2.623090744E-1
3.961639510E0,3.688915968E-1,1.653003693E-2,-3.069434166E-1
3.966613875E0,3.189162314E-1,4.034900665E-2,-2.803449631E-1
3.971588241E0,3.805800676E-1,8.759593964E-2,-1.477236748E-1
3.976562606E0,5.125539303E-1,9.656238556E-2,-1.249427795E-1
3.981536971E0,4.567693770E-1,6.282806396E-2,-6.475114822E-2
3.986511336E0,3.918001354E-1,3.407669067E-2,-3.261165619E-1
3.991485702E0,4.147322476E-1,4.805469513E-2,-2.335834503E-1
3.996460067E0,3.385216594E-1,2.884769440E-2,-2.504367828E-1
4.001434432E0,5.533550978E-1,8.293914795E-2,-1.798605919E-1
4.006408797E0,3.791850805E-1,4.682064056E-2,-1.618757248E-1
4.011383163E0,3.172270954E-1,4.163074493E-2,-1.771602631E-1
4.016357528E0,3.170583248E-1,4.356384277E-2,-3.032650948E-1
4.021331893E0,3.100214899E-1,-1.731872559E-3,-2.300381660E-1
4.026336776E0,5.062284470E-1,7.841873169E-2,-3.014712334E-1
4.031311141E0,2.876966298E-1,-1.451587677E-2,-9.388589859E-2
4.036285506E0,4.673881531E-1,2.773857117E-2,-1.431388855E-1
4.041259872E0,3.668051958E-1,2.475166321E-2,-2.038302422E-1
4.046234237E0,4.395535588E-1,5.251598358E-2,-2.875766754E-1
4.051208602E0,3.232703805E-1,2.821445465E-2,-2.902507782E-1
4.056182967E0,4.064265490E-1,5.838871002E-2,-1.772632599E-1
4.061157332E0,3.612293601E-1,7.637214661E-2,-3.469800949E-2
4.066131698E0,2.404896319E-1,6.110000610E-2,-2.144231796E-1
4.071106063E0,2.386692911E-1,8.205413818E-3,-1.990585327E-1
4.076080428E0,3.387598991E-1,9.510326385E-2,-1.412386894E-1
4.081054793E0,2.378901839E-1,2.792072296E-2,-5.548095703E-2
4.086029159E0,2.134502679E-1,4.623985291E-2,-1.026773453E-1
4.091003524E0,2.194183171E-1,5.006694794E-2,2.734661102E-2
4.095977889E0,1.777451783E-1,-5.329132080E-3,-8.706903458E-2
4.100952254E0,1.460790336E-1,-1.775455475E-2,-1.674642563E-1
4.105896102E0,2.404339314E-1,3.384017944E-2,-3.215932846E-2
4.110900985E0,2.093377411E-1,8.035945892E-2,-1.592159271E-2
4.115875350E0,1.971788853E-1,3.197383881E-2,-7.547473907E-2
4.120849715E0,1.279792935E-1,2.636337280E-2,4.945182800E-2
4.125824081E0,2.172979265E-1,3.254413605E-2,-6.514883041E-2
4.130798446E0,2.768479288E-2,-5.338764191E-2,-7.257509232E-2
4.135772811E0,2.816673815E-1,1.251316071E-2,1.160292625E-1
4.140747176E0,2.081009299E-1,3.303527832E-2,1.992197037E-1
4.145782577E0,9.245587885E-2,5.332088470E-2,1.329202652E-1
4.150695907E0,1.188387722E-1,1.434326172E-2,4.111433029E-2
4.155670272E0,4.341897368E-2,-1.721763611E-2,6.741046906E-3
4.160644637E0,5.413623154E-2,2.009868622E-2,3.185987473E-2
4.165649520E0,5.586992204E-2,1.471138000E-2,2.221221924E-1
4.170623885E0,1.140285134E-1,6.360721588E-2,1.534328461E-1
4.175598250E0,1.077443361E-3,-2.261257172E-2,9.456968307E-2
4.180572616E0,1.154604852E-1,-1.967430115E-3,3.137969971E-2
4.185577498E0,8.310055733E-2,3.984642029E-2,1.435079575E-1
4.190551864E0,8.950054646E-2,5.897521973E-3,1.604237556E-1
4.195495711E0,9.827741981E-2,4.303264618E-2,9.691762924E-2
4.200500594E0,3.507733345E-4,2.546119690E-2,1.778078079E-1
4.205474959E0,5.644036829E-2,1.036453247E-2,8.566617966E-2
4.210449325E0,8.159050345E-2,-2.244949341E-3,1.642494202E-1
4.215423690E0,2.225749940E-1,2.067947388E-2,1.336102486E-1
4.220398055E0,6.279702485E-2,2.694892883E-2,2.236871719E-1
4.225372420E0,3.345429897E-3,1.592636108E-4,2.186465263E-1
4.230346786E0,9.053273499E-2,2.316570282E-2,2.018499374E-1
4.235321151E0,6.611290574E-2,-8.252143860E-3,2.230377197E-1
4.240326034E0,1.082388014E-1,3.197669983E-3,1.804561615E-1
4.245300399E0,2.021820694E-1,4.532146454E-2,2.587170601E-1
4.250274764E0,1.325938404E-1,-2.147102356E-2,2.466487885E-1
4.255249129E0,2.098133415E-1,-9.807586670E-3,1.544251442E-1
4.260192977E0,5.017073452E-2,-1.946353912E-2,2.424044609E-1
4.265167342E0,5.476294458E-2,-1.247596741E-2,1.975088120E-1
4.270141707E0,1.090324372E-1,-1.728916168E-2,3.419055939E-1
4.275116073E0,1.583710313E-1,2.052783966E-2,2.656898499E-1
4.280090438E0,1.885749847E-1,3.446578979E-2,1.405849457E-1
4.285064803E0,2.018889040E-1,3.410720825E-2,2.124280930E-1
4.290039168E0,6.612610817E-2,3.026008606E-3,2.576632500E-1
4.295044051E0,1.531921774E-1,2.171611786E-2,2.764840126E-1
4.300018416E0,1.027315855E-3,1.192569733E-2,2.739071846E-1
4.305023299E0,1.098745018E-1,3.532314301E-2,2.643418312E-1
4.309997665E0,7.162973285E-2,-1.455307007E-2,2.006850243E-1
4.314941512E0,6.692314148E-2,-1.204299927E-2,2.697949409E-1
4.319946395E0,1.425402910E-1,-1.189422607E-2,2.533736229E-1
4.324920760E0,1.301043332E-1,1.191711426E-2,3.481130600E-1
4.329895125E0,1.343153268E-1,7.263183594E-3,3.075871468E-1
4.334869491E0,1.763306856E-1,4.051685333E-2,2.557215691E-1
4.339843856E0,6.940127909E-2,-1.963615417E-3,2.893686295E-1
4.344818221E0,8.618688583E-2,-1.336193085E-2,2.826566696E-1
4.349792586E0,6.038722396E-2,-4.823112488E-2,3.161802292E-1
4.354766952E0,1.647313088E-1,-1.193428040E-2,2.338299751E-1
4.359741317E0,9.121716022E-2,-2.307224274E-2,3.151435852E-1
4.364715682E0,4.424118996E-2,-1.049137115E-2,3.651194572E-1
4.369690047E0,1.273813993E-1,2.555370331E-2,3.060469627E-1
4.374664413E0,6.104131043E-2,-2.846050262E-2,4.031906128E-1
4.379638778E0,9.208904207E-2,2.180099487E-2,2.893819809E-1
4.384643661E0,1.190236211E-2,-5.346584320E-2,2.426161766E-1
4.389618026E0,3.098160028E-3,1.114368439E-2,2.599458694E-1
4.394592391E0,-1.260361224E-1,4.209041595E-2,2.652282715E-1
4.399566756E0,5.031423271E-2,-4.367828369E-4,1.783556938E-1
4.404541122E0,-2.976749837E-2,4.480743408E-2,2.008910179E-1
4.409515487E0,-8.540187776E-2,-2.827453613E-2,2.068104744E-1
4.414489852E0,-9.798221290E-2,-2.518653870E-2,1.607728004E-1
4.419464217E0,-6.090769172E-2,6.244659424E-3,1.623830795E-1
4.424438582E0,-3.813737631E-2,3.279304504E-2,1.853475571E-1
4.429412948E0,3.685057163E-3,1.912879944E-2,1.469116211E-1
4.434387313E0,2.895343304E-2,-8.427619934E-3,1.680016518E-1
4.439361678E0,-6.387716532E-2,2.804279327E-2,1.110911369E-1
4.444336043E0,-2.623346448E-2,-1.141834259E-2,1.843700409E-1
4.449371444E0,-3.376543522E-3,1.540374756E-2,9.398555756E-2
4.454284774E0,-1.413742304E-1,3.484916687E-2,9.868574142E-2
4.459259139E0,-1.102803349E-1,-4.496192932E-2,7.979059219E-2
4.464233504E0,-1.082840562E-2,1.520156860E-2,7.525396347E-2
4.469207870E0,-5.143442750E-2,4.063606262E-3,5.188751221E-2
4.474182235E0,-7.043033838E-2,-1.880455017E-2,3.812885284E-2
4.479187118E0,1.208522916E-2,4.108524323E-2,-1.098918915E-2
4.484161483E0,-5.517756939E-2,-1.108169556E-3,5.823802948E-2
4.489135848E0,-6.784164906E-2,-1.234054565E-2,6.306314468E-2
4.494110213E0,-4.506787658E-2,-4.002380371E-2,-7.145118713E-2
4.499075713E0,-6.481355429E-2,-3.905582428E-2,-7.962369919E-2
4.504050078E0,-1.431651413E-1,1.397037506E-2,-4.035615921E-2
4.509024443E0,-1.642033458E-1,3.594589233E-2,-8.399009705E-3
4.513998808E0,-4.611662030E-2,4.827690125E-2,-3.573560715E-2
4.518973174E0,-1.393995881E-1,1.488685608E-3,-7.700014114E-2
4.523947539E0,-8.550983667E-2,1.183891296E-2,-1.201615334E-1
4.528921904E0,-1.193428636E-1,1.048011780E-1,-4.011869431E-2
4.533896269E0,-1.246514320E-1,1.524639130E-2,6.997346878E-2
4.538870634E0,-2.645608187E-1,-7.446289062E-3,-4.817810059E-1
4.543845000E0,-1.742996871E-1,9.520339966E-2,1.041803360E-1
4.548849882E0,-2.333881855E-1,7.657814026E-2,-6.308221817E-2
4.553793730E0,-1.528977454E-1,5.335426331E-2,-2.597951889E-2
4.558798613E0,-2.645275593E-1,-5.052566528E-3,-1.449313164E-1
4.563772978E0,-2.928135097E-1,3.376388550E-2,4.865074158E-2
4.568747343E0,-2.546451092E-1,-1.274013519E-2,3.758287430E-2
4.573721709E0,-1.668893695E-1,5.214977264E-2,8.095836639E-2
4.578696074E0,-3.203459680E-1,-2.976036072E-2,-8.837223053E-2
4.583670439E0,-1.560133994E-1,4.721069336E-2,-1.641931534E-1
4.588644804E0,-1.583545506E-1,4.790878296E-2,2.724075317E-2
4.593619170E0,-1.797677577E-1,9.566211700E-2,-6.873178482E-2
4.598593535E0,-3.050415218E-1,2.485847473E-2,-8.616971970E-2
4.603567900E0,-3.112195134E-1,1.356220245E-2,-1.649641991E-1
4.608542265E0,-3.242766261E-1,1.178359985E-2,-7.317733765E-2
4.613516631E0,-3.654653132E-1,2.178287506E-2,-1.097679138E-3
4.618490996E0,-4.796323478E-1,1.269721985E-2,-1.044454575E-1
4.623465361E0,-2.792577744E-1,4.371833801E-2,-1.810755730E-1
4.628470244E0,-4.866668880E-1,-8.157730103E-3,4.506444931E-2
4.633444609E0,-3.357808292E-1,3.483581543E-2,-1.178011894E-1
4.638418974E0,-3.442969024E-1,8.224773407E-2,-1.777410507E-1
4.643362822E0,-4.450114667E-1,8.925437927E-3,-2.772378922E-1
4.648367705E0,-3.988584578E-1,6.130695343E-2,-2.484393120E-1
4.653342070E0,-5.422018766E-1,2.586650848E-2,-1.892356873E-1
4.658316435E0,-4.222956598E-1,4.501438141E-2,-1.753792763E-1
4.663290800E0,-4.378017187E-1,2.668380737E-3,-2.135295868E-1
4.668265166E0,-4.200350642E-1,2.448463440E-2,-2.205872536E-1
4.673239531E0,-4.212583303E-1,-1.277923584E-2,-2.510490417E-1
4.678213896E0,-3.824116588E-1,5.182838440E-2,-1.230225563E-1
4.683188261E0,-4.384992123E-1,1.435375214E-2,-5.511665344E-2
4.688162627E0,-3.786237240E-1,-3.942489624E-3,-2.568931580E-1
4.693136992E0,-3.569507003E-1,3.698921204E-2,-2.090587616E-1
4.698111357E0,-2.879114151E-1,1.158428192E-2,-1.025056839E-1
4.703085722E0,-1.978604794E-1,5.722999573E-2,-8.181667328E-2
4.708060088E0,-2.194745541E-1,7.413291931E-2,-4.010438919E-2
4.713064970E0,-3.001929522E-1,4.833507538E-2,8.270263672E-3
4.718008818E0,-3.286702633E-1,3.920841217E-2,-3.352069855E-2
4.722983183E0,-2.860357761E-1,5.379009247E-2,-8.201789856E-2
4.727957549E0,-1.559301019E-1,6.121158600E-2,-5.455541611E-2
4.732931914E0,-7.377928495E-2,4.968357086E-2,-1.595444679E-1
4.737906279E0,-9.391152859E-2,7.500648499E-3,-9.849500656E-2
4.742911162E0,-9.781670570E-2,7.177925110E-2,4.455280304E-2
4.747885527E0,-1.282536983E-1,9.757041931E-2,-1.442861557E-2
4.752920927E0,-1.845926642E-1,2.152538300E-2,-6.597423553E-2
4.757834257E0,-1.081333756E-1,4.051876068E-2,-4.158592224E-2
4.762808623E0,-1.123514771E-1,2.629280090E-2,-9.297275543E-2
4.767782988E0,-6.003415585E-2,3.799819946E-2,4.236888885E-2
4.772757353E0,-3.968238831E-3,6.116104126E-2,-1.725912094E-2
4.777731718E0,-1.235468984E-1,8.428573608E-3,-6.712055206E-2
4.782706084E0,-7.946193218E-2,-2.264881134E-2,-2.688598633E-2
4.787680449E0,-1.207200289E-1,7.880783081E-2,-1.379566193E-1
4.792654814E0,-2.512568235E-1,-1.165866852E-2,-9.923124313E-2
4.797629179E0,-1.165121794E-1,2.135372162E-2,5.326271057E-4
4.802603545E0,-9.891718626E-2,-4.045104980E-2,-5.409574509E-2
4.807577910E0,-6.488198042E-2,3.522586823E-2,-7.279634476E-2
4.812552275E0,-5.664747953E-2,2.784919739E-2,-6.043910980E-2
4.817526640E0,-1.592199802E-1,7.256793976E-2,-1.354122162E-1
4.822501006E0,-2.493997812E-1,7.437515259E-2,-1.106610298E-1
4.827505888E0,-2.142025232E-1,5.003643036E-2,-1.004505157E-1
4.832480254E0,-2.102262378E-1,2.584648132E-2,-8.329248428E-2
4.837454619E0,-1.658536196E-1,1.145362854E-2,-5.194187164E-2
4.842428984E0,-6.938612461E-2,5.632686615E-2,-1.788849831E-1
4.847403349E0,-7.024961710E-2,-1.720905304E-2,-1.348395348E-1
4.852377715E0,-5.707186460E-2,3.953742981E-2,-5.830812454E-2
4.857352080E0,-6.324404478E-2,3.658008575E-2,9.523677826E-2
4.862326445E0,-6.743037701E-2,5.000972748E-2,5.848741531E-2
4.867300810E0,-1.544215679E-1,2.547359467E-2,-2.053833008E-2
4.872275175E0,-1.531867385E-1,3.517150879E-3,-1.107039452E-1
4.877249541E0,-7.382285595E-2,4.081153870E-2,-5.135345459E-2
4.882223906E0,-9.194982052E-2,3.533744812E-2,-4.255294800E-3
4.887198271E0,-5.344134569E-2,2.042388916E-2,2.280235291E-3
4.892172636E0,-3.529310226E-3,-4.639720917E-2,-8.578157425E-2
4.897147002E0,7.196247578E-2,5.259418488E-2,-1.447653770E-1
4.902121367E0,-4.898285866E-2,-7.317543030E-3,5.413579941E-2
4.907126250E0,2.218502760E-2,2.768898010E-2,-3.424263000E-2
4.912070097E0,-1.365729570E-1,1.041698456E-2,-1.242876053E-1
4.917074980E0,-2.512329817E-2,2.151203156E-2,1.999807358E-2
4.922049345E0,2.411609888E-2,-7.693290710E-3,7.327413559E-2
4.927023711E0,-4.673421383E-3,-1.065540314E-2,2.934503555E-2
4.931998076E0,-5.426037312E-2,1.479721069E-2,-1.014971733E-1
4.936972441E0,-1.697711945E-1,2.818012238E-2,-1.581239700E-1
4.941946806E0,-1.102453470E-1,4.127597809E-2,-1.554412842E-1
4.946921172E0,-1.530802846E-1,2.335643768E-2,1.220893860E-2
4.951895537E0,-9.861981869E-2,1.736259460E-2,-8.360528946E-2
4.956869902E0,3.837800026E-2,-4.900932312E-3,-1.787281036E-2
4.961844267E0,8.719182014E-2,2.037906647E-2,-5.638837814E-2
4.966818632E0,8.825850487E-2,-1.785278320E-3,3.522920609E-2
4.971792998E0,-2.464818954E-2,-1.914405823E-2,-1.461505890E-3
4.976767363E0,-5.698782206E-2,-1.068115234E-3,-1.583371162E-1
4.981741728E0,-1.787549853E-1,-1.856899261E-2,-1.227254868E-1
4.986716093E0,-5.827707052E-2,4.443359375E-2,-2.594518661E-2
4.991690459E0,-3.064107895E-2,7.476806641E-4,-4.321765900E-2
4.996664824E0,-7.904404402E-2,2.584362030E-2,-3.204631805E-2
5.001639189E0,-1.865379214E-1,3.438949585E-3,-8.712863922E-2
5.006613554E0,-8.554792404E-2,-4.562377930E-3,-2.030491829E-1
5.011618437E0,-1.359456778E-1,-4.536247253E-2,-6.759214401E-2
5.016592802E0,-8.613920212E-2,-2.429676056E-2,1.258754730E-2
5.021567168E0,3.165638447E-2,2.020931244E-2,4.018545151E-2
5.026541533E0,-6.210654974E-2,-1.605033875E-2,-8.120536804E-3
5.031485381E0,-9.075462818E-3,1.392269135E-2,1.066689491E-1
5.036490263E0,-3.436678648E-2,1.086235046E-3,2.156910896E-1
5.041464629E0,-7.331907749E-2,-2.337932587E-2,5.240249634E-2
5.046438994E0,-8.082211018E-3,-3.509521484E-4,-1.264333725E-2
5.051413359E0,-9.950685501E-2,-2.704811096E-2,6.455993652E-2
5.056448759E0,-1.620941758E-1,-2.756214142E-2,4.435014725E-2
5.061362090E0,-1.391002536E-1,4.284381866E-2,3.859233856E-2
5.066336455E0,-9.013909101E-2,-2.649879456E-2,9.403228760E-3
5.071310820E0,-5.943059921E-3,-2.199459076E-2,3.721094131E-2
5.076285185E0,2.810996771E-2,-1.035499573E-2,1.498746872E-1
5.081259550E0,3.820359707E-2,3.191184998E-2,2.710957527E-1
5.086233916E0,-2.768790722E-2,-1.747131348E-3,1.977233887E-1
5.091208281E0,-2.737087011E-2,-3.992176056E-2,1.130967140E-1
5.096182646E0,1.769626141E-2,-2.114391327E-2,1.283001900E-1
5.101157011E0,1.099681854E-1,-7.165908813E-3,2.685585022E-1
5.106131377E0,1.641164422E-1,-2.667427063E-3,1.386141777E-1
5.111105742E0,8.327287436E-2,-6.193828583E-2,1.348638535E-1
5.116080107E0,7.830339670E-2,-2.779960632E-3,1.971459389E-1
5.121054472E0,1.108555198E-1,-1.506710052E-2,2.516746521E-1
5.126028838E0,1.219648123E-1,-1.314830780E-2,2.419304848E-1
5.131033720E0,1.733833551E-1,7.692337036E-3,2.016272545E-1
5.136008086E0,1.702772379E-1,-3.055572510E-2,2.255067825E-1
5.140982451E0,3.016009331E-1,9.371757507E-3,2.042937279E-1
5.145956816E0,1.695004702E-1,-4.319095612E-2,2.563323975E-1
5.150931181E0,2.035405636E-1,-3.159523010E-2,1.993465424E-1
5.155905547E0,1.617143750E-1,-2.241802216E-2,2.443909645E-1
5.160879912E0,2.573282719E-1,-5.335235596E-2,2.183513641E-1
5.165854277E0,2.767931223E-1,-1.073551178E-2,2.634806633E-1
5.170828642E0,2.889441848E-1,-1.444816589E-3,2.186355591E-1
5.175803007E0,3.432381153E-1,-1.675605774E-3,2.166671753E-1
5.180777373E0,2.198554873E-1,-2.080917358E-2,1.769313812E-1
5.185751738E0,3.853994608E-1,-4.357337952E-3,1.422748566E-1
5.190726103E0,2.711109519E-1,-1.871013641E-2,2.826056480E-1
5.195700468E0,2.453157306E-1,-3.526306152E-2,1.621446609E-1
5.200674834E0,3.117722273E-1,2.387905121E-2,1.583786011E-1
5.205649199E0,3.374036252E-1,2.109527588E-2,2.065081596E-1
5.210623564E0,2.754393816E-1,4.097938538E-3,2.659463882E-1
5.215597929E0,3.461416364E-1,6.072998047E-3,1.997108459E-1
5.220602812E0,2.840205729E-1,-7.700634003E-2,2.165727615E-1
5.225577177E0,2.176192105E-1,-1.309299469E-2,1.624102592E-1
5.230551543E0,1.232168972E-1,-3.473281860E-2,1.511483192E-1
5.235525908E0,1.074091494E-1,-3.026676178E-2,1.588158607E-1
5.240469756E0,2.004173994E-1,-1.633644104E-2,1.452431679E-1
5.245474638E0,2.667976618E-1,-4.960727692E-2,5.640029907E-2
5.250449004E0,2.477577925E-1,1.431369781E-2,1.313376427E-1
5.255423369E0,2.666610777E-1,2.239227295E-3,1.207652092E-1
5.260397734E0,1.813409626E-1,1.855278015E-2,9.843778610E-2
5.265372099E0,1.838376522E-1,-3.076553345E-3,1.116671562E-1
5.270346465E0,2.454489470E-1,4.873561859E-2,8.003568649E-2
5.275290312E0,1.651561558E-1,-2.013206482E-2,8.703231812E-3
5.280264677E0,1.044243276E-1,-3.405570984E-3,9.617376328E-2
5.285239043E0,9.826675057E-2,-8.115768433E-3,-1.070642471E-2
5.290213408E0,1.202183068E-1,-2.228260040E-2,-6.482076645E-2
5.295187773E0,1.019938886E-1,-1.976776123E-2,-5.942821503E-2
5.300162138E0,1.907123029E-1,-7.752418518E-3,7.363796234E-3
5.305136504E0,2.861900032E-1,3.959369659E-2,1.695013046E-2
5.310110869E0,2.037973404E-1,1.527786255E-3,6.653881073E-2
5.315085234E0,2.610636055E-1,1.801586151E-2,2.359533310E-2
5.320059599E0,2.138420939E-1,3.907489777E-2,-7.199287415E-3
5.325033965E0,1.364778280E-1,-2.027416229E-2,-7.076120377E-2
5.330008330E0,1.260577738E-1,1.771736145E-2,-3.221797943E-2
5.334982695E0,1.064029336E-1,-2.244281769E-2,-2.696847916E-2
5.339987578E0,1.200037003E-1,-2.207565308E-2,-2.876567841E-2
5.344992461E0,2.091455460E-1,-5.066871643E-3,-9.177207947E-2
5.349966826E0,1.820709109E-1,2.513885498E-3,-5.346775055E-3
5.354941191E0,2.002596557E-1,-8.752822876E-3,4.940986633E-3
5.359976591E0,2.961752117E-1,-1.277446747E-2,1.759433746E-2
5.364889922E0,2.779135108E-1,-9.675979614E-3,-7.371330261E-2
5.369864287E0,2.881687880E-1,3.591537476E-2,-7.216548920E-2
5.374838652E0,2.488446832E-1,-2.269840240E-2,4.272365570E-2
5.379813017E0,2.450298667E-1,-1.710987091E-2,2.208709717E-2
5.384787382E0,2.928300798E-1,-6.868362427E-3,-4.324197769E-2
5.389761748E0,1.063562036E-1,-4.156589508E-2,-1.221880913E-1
5.394736113E0,1.480640471E-1,1.370429993E-2,-8.011960983E-2
5.399710478E0,1.824683845E-1,1.888275146E-2,3.705310822E-2
5.404684843E0,1.694981456E-1,-1.850986481E-2,1.201477051E-1
5.409659209E0,2.511096001E-1,2.469062805E-2,9.398984909E-2
5.414633574E0,2.163625956E-1,1.799774170E-2,6.337690353E-2
5.419607939E0,1.748894453E-1,6.093120575E-2,3.301334381E-2
5.424582304E0,1.786627769E-1,-7.437705994E-3,1.234436035E-2
5.429556670E0,8.797156811E-2,-1.857948303E-2,1.452898979E-1
5.434531035E0,1.726875603E-1,5.057716370E-2,3.156042099E-2
5.439505400E0,1.221439838E-1,-5.988121033E-3,2.731513977E-2
5.444479765E0,1.052229404E-1,1.733779907E-3,-4.997491837E-2
5.449454131E0,1.877995431E-1,7.150650024E-3,-9.106731415E-2
5.454428496E0,1.541948617E-1,1.018428802E-2,1.325874329E-1
5.459402861E0,1.420482099E-1,3.439998627E-2,2.103409767E-1
5.464407744E0,1.344200075E-1,-2.188014984E-2,7.024145126E-2
5.469351591E0,2.293324471E-2,-2.810859680E-2,2.102518082E-2
5.474325957E0,1.155952215E-1,8.325576782E-3,-1.111125946E-2
5.479300322E0,1.983008087E-1,1.852798462E-2,4.675912857E-2
5.484274687E0,2.307718694E-1,5.687522888E-2,-1.872873306E-2
5.489279570E0,2.036980987E-1,-6.711006165E-3,1.061773300E-2
5.494253935E0,1.529320180E-1,3.348350525E-3,5.381584167E-2
5.499228300E0,1.308873594E-1,6.263732910E-3,1.170158386E-2
5.504202666E0,1.116523743E-1,-1.677036285E-2,9.036922455E-2
5.509146513E0,1.235608459E-1,2.175712585E-2,1.211543083E-1
5.514151396E0,2.417570651E-1,3.318786621E-3,9.503316879E-2
5.519125761E0,2.363091707E-1,8.638381958E-3,-1.113510132E-2
5.524100127E0,2.002362609E-1,1.859855652E-2,1.336240768E-2
5.529074492E0,2.282437086E-1,2.845668793E-2,-6.859588623E-2
5.534048857E0,1.664590240E-1,-4.256248474E-3,5.920886993E-3
5.539023222E0,1.146500111E-1,3.410053253E-2,5.146503448E-2
5.543997588E0,1.433356255E-1,1.776695251E-2,1.155519485E-2
5.548971953E0,1.551019847E-1,1.567363739E-2,-6.848335266E-3
5.553946318E0,2.046065480E-1,4.194259644E-3,-3.807544708E-3
5.558920683E0,2.208830863E-1,2.591419220E-2,-5.029916763E-2
5.563895049E0,1.261579841E-1,3.566837311E-2,-6.333637238E-2
5.568869414E0,1.452148110E-1,2.399921417E-2,-3.861236572E-2
5.573843779E0,1.258206517E-1,-8.994102478E-3,-8.984279633E-2
5.578818144E0,4.974356294E-2,3.144645691E-2,-1.642718315E-1
5.583792509E0,5.008064210E-2,-8.612632751E-3,-5.856132507E-2
5.588766875E0,8.843001723E-2,3.669738770E-3,-8.819293976E-2
5.593771757E0,9.337538481E-2,8.808135986E-3,-1.434936523E-1
5.598715605E0,1.240203679E-1,9.116172791E-3,-4.261589050E-2
5.603689970E0,7.162906229E-2,4.473495483E-2,-2.059412003E-2
5.608664336E0,-1.007717699E-1,1.630496979E-2,-3.418493271E-2
5.613669218E0,-1.325636059E-1,2.828407288E-2,-1.963219643E-1
5.618643584E0,-1.947360635E-1,-3.773689270E-2,-1.729879379E-1
5.623617949E0,-2.160739750E-1,2.180480957E-2,-1.476178169E-1
5.628561797E0,-9.540274739E-2,3.592300415E-2,-1.296472549E-1
5.633566679E0,-1.172642410E-1,3.106117249E-2,-2.445936203E-2
5.638541045E0,-1.129437685E-1,2.614021301E-3,-1.113796234E-1
5.643515410E0,-1.699920744E-1,7.113075256E-2,-1.669640541E-1
5.648489775E0,-2.335607409E-1,3.753566742E-2,-9.702491760E-2
5.653464140E0,-1.855779588E-1,7.263946533E-2,-5.368423462E-2
5.658438506E0,-1.449468583E-1,4.133701324E-2,-1.429238319E-1
5.663473906E0,-1.633853912E-1,2.213859558E-2,-2.006888390E-1
5.668387236E0,-1.908117384E-1,1.027965546E-2,-1.728758812E-1
5.673361601E0,-2.296978384E-1,4.339313507E-2,-2.302479744E-1
5.678335966E0,-2.423448265E-1,-1.122474670E-2,-1.291308403E-1
5.683310332E0,-2.054157406E-1,4.310131073E-2,-1.375622749E-1
5.688284697E0,-1.497547030E-1,2.618026733E-2,-1.175737381E-1
5.693259062E0,-1.437746286E-1,4.964733124E-2,-1.495428085E-1
5.698233427E0,-1.258418709E-1,1.870346069E-2,-2.920999527E-1
5.703207793E0,2.399350703E-2,2.572441101E-2,-1.998496056E-1
5.708182158E0,-1.723368317E-1,2.312660217E-2,-1.604423523E-1
5.713156523E0,-7.690314949E-2,-1.493549347E-2,-1.851902008E-1
5.718130888E0,-3.188028932E-2,7.006835938E-2,-2.309770584E-1
5.723105254E0,-7.677336037E-2,2.459144592E-2,-1.866126060E-1
5.728079619E0,-3.619423509E-2,3.146457672E-2,-8.591604233E-2
5.733053984E0,1.630395651E-3,4.062366486E-2,-1.560392380E-1
5.738028349E0,-6.009113789E-2,2.842330933E-2,-1.713323593E-1
5.743033232E0,-1.019580662E-2,3.754901886E-2,-2.006921768E-1
5.747977080E0,6.320594251E-2,4.661941528E-2,-1.235651970E-1
5.752951445E0,5.125960708E-2,2.962875366E-2,-2.194342613E-1
5.757956328E0,3.237557411E-2,6.465435028E-2,-2.012734413E-1
5.762930693E0,-7.768541574E-3,9.592056274E-3,-2.235097885E-1
5.767905058E0,-1.703803241E-2,-2.784729004E-4,-2.150197029E-1
5.772879424E0,9.251505136E-3,8.757591248E-3,-1.476645470E-1
5.777823271E0,2.850861847E-2,-2.004909515E-2,-7.615423203E-2
5.782828154E0,1.540386677E-1,1.281166077E-2,-1.420907974E-1
5.787802519E0,1.440105289E-1,-1.115512848E-2,-6.335830688E-2
5.792776884E0,1.646545976E-1,2.885246277E-2,-1.481065750E-1
5.797751250E0,3.142535686E-3,-2.357292175E-2,-1.259655952E-1
5.802725615E0,4.333199561E-2,1.175975800E-2,-1.913657188E-1
5.807699980E0,1.161309779E-1,-3.938674927E-4,-1.310839653E-1
5.812674345E0,1.153441519E-1,-7.666587830E-3,-1.930093765E-2
5.817648711E0,1.217079014E-1,1.722335815E-3,-4.998493195E-2
5.822623076E0,9.951159358E-2,8.689880371E-3,-5.441951752E-2
5.827597441E0,6.081783772E-2,2.974319458E-2,-3.287172318E-2
5.832571806E0,3.656426072E-2,8.051872253E-3,7.573747635E-2
5.837546172E0,7.633000612E-2,-2.296257019E-2,5.825233459E-2
5.842520537E0,1.441993117E-1,3.128051758E-2,-1.099967957E-2
5.847494902E0,8.402754366E-2,1.421546936E-2,5.246543884E-2
5.852469267E0,1.044436544E-1,5.144786835E-2,4.284381866E-3
5.857443632E0,8.672897518E-2,1.979541779E-2,3.425741196E-2
5.862448515E0,9.281077981E-2,7.228851318E-3,1.488804817E-1
5.867392363E0,8.728350699E-2,-2.883911133E-3,1.020088196E-1
5.872366728E0,4.415117204E-2,-2.231884003E-2,3.432416916E-2
5.877371611E0,6.748543680E-2,1.037788391E-2,1.301298141E-1
5.882345976E0,1.506406069E-2,4.514789581E-2,8.820676804E-2
5.887320341E0,8.818630874E-2,-1.009082794E-2,1.622776985E-1
5.892294707E0,1.159791052E-1,-5.834579468E-3,1.295294762E-1
5.897269072E0,1.366420835E-1,1.260948181E-2,2.127933502E-1
5.902243437E0,1.123920828E-1,4.750442505E-2,1.396665573E-1
5.907217802E0,1.507307589E-2,-2.910614014E-3,1.213936806E-1
5.912192168E0,-2.488961816E-2,-5.298423767E-2,4.416131973E-2
5.917166533E0,-2.908031642E-2,-3.422260284E-2,-1.791000366E-3
5.922140898E0,7.552188635E-2,-6.195068359E-3,1.674199104E-1
5.927115263E0,7.083922625E-2,-1.618957520E-2,2.738180161E-1
5.932089629E0,3.311373293E-2,3.529453278E-2,2.023148537E-1
5.937063994E0,-1.625254750E-2,-5.054283142E-2,1.668453217E-1
5.942038359E0,-5.347572267E-2,-1.763820648E-2,1.670799255E-1
5.947012724E0,-5.018399656E-2,-2.748012543E-2,1.814961433E-1
5.951987090E0,-3.979606926E-2,3.833580017E-2,1.863975525E-1
5.956961455E0,-4.365800321E-2,1.632213593E-2,1.748099327E-1
5.961935820E0,-7.821461558E-2,-1.963233948E-2,1.326832771E-1
5.967001738E0,-9.372188151E-2,-8.024215698E-3,1.098613739E-1
5.971915068E0,-1.469054669E-1,-3.564834595E-3,1.321191788E-1
5.976889433E0,-1.004453450E-1,7.875442505E-3,2.626948357E-1
5.981863799E0,-1.464398205E-1,3.104305267E-2,1.585121155E-1
5.986807646E0,-1.023969799E-1,-1.955032349E-4,1.969347000E-1
5.991782011E0,-1.436794996E-1,-4.769992828E-2,1.736598015E-1
5.996786894E0,-1.798954159E-1,-5.148887634E-3,1.882944107E-1
6.001761259E0,-2.158573419E-1,1.621246338E-3,1.130833626E-1
6.006735625E0,-1.995818019E-1,-1.058769226E-2,2.060484886E-1
6.011709990E0,-2.329630256E-1,9.117126465E-4,2.108988762E-1
6.016684355E0,-1.785905510E-1,-6.468772888E-3,1.591801643E-1
6.021658720E0,-1.599383354E-1,-3.497123718E-2,1.953072548E-1
6.026633086E0,-1.932921112E-1,-1.364231110E-2,2.146358490E-1
6.031607451E0,-2.357819229E-1,-5.390167236E-2,2.007083893E-1
6.036581816E0,-2.519093454E-1,-1.834392548E-2,1.844620705E-1
6.041556181E0,-2.016189396E-1,-2.791118622E-2,1.636500359E-1
6.046530547E0,-1.373487115E-1,1.457309723E-2,2.610826492E-1
6.051504912E0,-1.253893673E-1,3.783893585E-2,2.278933525E-1
6.056479277E0,-1.182723939E-1,-1.464462280E-2,1.619095802E-1
6.061453642E0,-1.136691868E-1,-4.312133789E-2,1.153154373E-1
6.066428007E0,-1.704930067E-1,4.118919373E-3,2.059473991E-1
6.071402373E0,-1.843265593E-1,-1.753044128E-2,1.730217934E-1
6.076376738E0,-1.744452119E-1,-3.191852570E-2,1.262059212E-1
6.081351103E0,-1.481669545E-1,-1.548004150E-2,1.317377090E-1
6.086325468E0,-9.371402860E-2,1.030254364E-2,1.868419647E-1
6.091299834E0,-1.601657271E-2,1.702404022E-2,8.809709549E-2
6.096304716E0,-9.787857533E-3,-3.996849060E-2,1.555142403E-1
6.101279082E0,-1.793888211E-2,-3.975296021E-2,7.848501205E-2
6.106222929E0,-8.049535751E-2,-5.128574371E-2,8.715724945E-2
6.111197295E0,-3.634235263E-2,-5.086421967E-2,1.335997581E-1
6.116202177E0,-5.152377486E-2,-5.538940430E-3,6.878089905E-2
6.121176543E0,-3.587061167E-2,-4.783630371E-2,-9.539127350E-3
6.126150908E0,-3.880172968E-3,-4.249382019E-2,1.675844193E-2
6.131125273E0,1.774549484E-3,1.237487793E-2,9.241199493E-2
6.136099638E0,-9.291887283E-3,-6.408691406E-3,1.320090294E-1
6.141074004E0,-2.978071570E-2,-1.559352875E-2,1.217088699E-1
6.146048369E0,-3.585192561E-2,-5.302810669E-2,9.024667740E-2
6.151022734E0,-1.574274898E-2,-1.219558716E-2,7.181167603E-3
6.155997099E0,-7.440030575E-3,-1.175594330E-2,6.417322159E-2
6.160971465E0,5.983334780E-2,3.351306915E-2,2.152156830E-2
6.165945830E0,-1.073807478E-3,2.879524231E-2,9.012794495E-2
6.170920195E0,-4.039296508E-2,2.834320068E-3,6.605911255E-2
6.175894560E0,-8.885470033E-2,-2.530956268E-2,6.102752686E-2
6.180868925E0,4.902333021E-3,-8.347511292E-3,1.079893112E-1
6.185843291E0,4.620021582E-2,-9.498596191E-4,5.307102203E-2
6.190817656E0,8.494403958E-2,-1.249885559E-2,7.414054871E-2
6.195792021E0,7.371559739E-2,-3.461837769E-4,1.398887634E-1
6.200766386E0,-6.162583828E-3,-2.610206604E-2,4.403114319E-3
6.205740752E0,-6.431436539E-2,-2.573394775E-2,-5.920505524E-2
6.210745634E0,-1.030792892E-1,1.478099823E-2,-1.367282867E-2
6.215720000E0,-2.094081044E-2,-1.104354858E-2,4.103755951E-2
6.220694365E0,5.122414231E-2,-1.059246063E-2,-1.081705093E-2
6.225668730E0,2.358242869E-2,-2.663326263E-2,3.695297241E-2
6.230643095E0,2.193036675E-2,-4.773139954E-3,6.308698654E-2
6.235617461E0,-2.953919768E-2,2.721786499E-3,8.426666260E-2
6.240591826E0,-1.701280475E-2,-3.467845917E-2,1.559829712E-2
6.245566191E0,-2.208590508E-3,-2.918243408E-2,-4.057359695E-2
6.250540556E0,1.026201248E-2,-1.423263550E-2,1.709794998E-2
6.255514922E0,5.098316073E-2,-1.355266571E-2,-2.719259262E-2
6.260489287E0,1.806509495E-2,1.284599304E-3,8.704757690E-2
6.265463652E0,-2.417942882E-2,-1.236438751E-2,-7.116937637E-2
6.270499052E0,-1.181208193E-1,-1.412773132E-2,-8.174991608E-2
6.275412382E0,-7.904550433E-2,7.738113403E-3,-2.377605438E-2
6.280386748E0,1.174807549E-4,5.862236023E-3,4.320573807E-2
6.285361113E0,-8.451968431E-3,1.660346985E-3,5.062913895E-2
6.290335478E0,4.295051098E-3,-1.194858551E-2,-7.184123993E-2
6.295309843E0,-3.757953644E-2,9.907722473E-3,-3.519868851E-2
6.300284209E0,-7.227191329E-2,3.138542175E-3,2.224397659E-2
6.305258574E0,-1.043737233E-1,-6.051063538E-3,-2.952718735E-2
6.310232939E0,-1.006048620E-1,-3.402996063E-2,-3.127861023E-2
6.315207304E0,-2.110058069E-2,2.802276611E-2,-1.165485382E-2
6.320212187E0,-1.535788178E-2,5.887317657E-2,6.445837021E-2
6.325186552E0,-5.032896996E-3,1.621055603E-2,2.926826477E-3
6.330160918E0,-9.648996592E-2,-1.194953918E-2,-1.561546326E-2
6.335135283E0,-1.471368670E-1,2.388191223E-2,-6.229829788E-2
6.340109648E0,-1.075884402E-1,2.876663208E-2,-7.041931152E-3
6.345084013E0,-1.036640704E-1,9.742069244E-2,-8.198499680E-2
6.350058379E0,-7.379007339E-2,9.710216522E-2,2.080917358E-2
6.355032744E0,-4.670441151E-2,8.974075317E-2,7.795143127E-2
6.360007109E0,-8.183568716E-3,4.579544067E-3,1.134295464E-1
6.364981474E0,-5.502817035E-2,-2.554225922E-2,3.535699844E-2
6.369955840E0,-8.266657591E-2,1.294136047E-3,9.255981445E-2
6.374930205E0,-5.586361885E-2,-4.761409760E-2,-3.009223938E-2
6.379904570E0,-1.450963914E-1,3.365898132E-2,9.606885910E-2
6.384878935E0,-1.109311879E-1,-6.168365479E-3,5.117702484E-2
6.389853300E0,-1.832427382E-1,3.925323486E-3,6.681442261E-3
6.394827666E0,-1.060529351E-1,-2.551078796E-3,-8.225536346E-2
6.399802031E0,-9.536671638E-2,2.643489838E-2,1.858711243E-3
6.404776396E0,-6.109917164E-2,1.027107239E-2,5.450820923E-2
6.409750761E0,-1.769608259E-2,5.080127716E-2,-1.615238190E-2
6.414725127E0,-3.134903312E-2,5.316925049E-2,-1.783895493E-2
6.419730009E0,-3.773617744E-2,2.247619629E-2,-4.075098038E-2
6.424673857E0,-8.635672927E-2,5.339431763E-2,-1.865577698E-2
6.429648222E0,-9.912928939E-2,3.722190857E-3,-4.405307770E-2
6.434622588E0,-9.066197276E-2,3.464508057E-2,-4.808902740E-2
6.439596953E0,-8.696895838E-2,-3.162384033E-3,-4.975318909E-2
6.444571318E0,-1.466828585E-2,-9.947776794E-3,-3.250122070E-2
6.449545683E0,-3.248673677E-2,-9.536743164E-5,8.145618439E-2
6.454520049E0,1.358658075E-2,2.899169922E-4,-3.679752350E-2
6.459494414E0,-1.878440380E-2,6.513595581E-4,-5.966377258E-2
6.464438261E0,1.268336177E-2,1.985263824E-2,-2.127170563E-3
6.469443144E0,3.202369809E-2,4.365634918E-2,-7.484388351E-2
6.474417509E0,5.118259788E-2,3.424835205E-2,8.887290955E-3
6.479391875E0,4.888638854E-2,2.961826324E-2,3.996419907E-2
6.484366240E0,2.994260192E-2,2.030467987E-2,-2.389907837E-3
6.489340605E0,2.991786599E-2,1.626014709E-3,-6.799268723E-2
6.494314970E0,1.106169820E-2,3.505325317E-2,-5.276870728E-2
6.499289336E0,2.083432674E-2,2.338886261E-2,-6.942749023E-3
6.504263701E0,1.250661612E-1,-4.682540894E-3,-3.937721252E-2
6.509238066E0,8.676898479E-2,5.480289459E-2,-3.615474701E-2
6.514212431E0,1.288794577E-1,2.165412903E-2,-7.084846497E-3
6.519217314E0,9.030348063E-2,2.885341644E-2,-1.223216057E-1
6.524191679E0,1.631870866E-1,5.485916138E-2,-1.304073334E-1
6.529166045E0,1.295022368E-1,2.774238586E-3,-3.454160690E-2
6.534140410E0,1.008888483E-1,5.500888824E-2,-2.442932129E-2
6.539114775E0,1.408134699E-1,-2.542209625E-2,-1.135883331E-1
6.544089140E0,1.282718182E-1,3.381729126E-3,-1.123213768E-1
6.549063506E0,8.988201618E-2,-5.824089050E-3,-1.323118210E-1
6.554037871E0,1.439996958E-1,1.101112366E-2,-2.467298508E-2
6.559012236E0,1.600353122E-1,2.774524689E-2,-3.591394424E-2
6.563986601E0,1.807428300E-1,3.731822968E-2,-2.574300766E-2
6.568991484E0,2.248181999E-1,5.151367188E-2,-5.816888809E-2
6.574026884E0,1.432763636E-1,-7.644653320E-3,-5.498552322E-2
6.578940215E0,1.614320278E-1,5.881214142E-2,-1.226229668E-1
6.583884062E0,1.793616414E-1,-5.151748657E-3,-1.236457825E-1
6.588888945E0,1.357408166E-1,4.702663422E-2,-3.739213943E-2
6.593863310E0,1.656976342E-1,3.031253815E-2,-2.503728867E-2
6.598837675E0,7.496538758E-2,1.141452789E-2,-9.317398071E-4
6.603812041E0,2.091020346E-1,4.228115082E-2,-1.044449806E-1
6.608786406E0,1.414489746E-1,4.220294952E-2,-5.365991592E-2
6.613760771E0,1.075356305E-1,2.560329437E-2,-9.300279617E-2
6.618735136E0,2.108822763E-1,4.927253723E-2,-1.635217667E-2
6.623709502E0,1.409127414E-1,6.626129150E-3,-3.950548172E-2
6.628683867E0,1.635033786E-1,-2.384185791E-4,-7.896232605E-2
6.633658232E0,1.458156109E-1,1.898002625E-2,-7.316637039E-2
6.638632597E0,1.589624286E-1,2.385520935E-2,-1.078987122E-2
6.643606963E0,1.531069875E-1,5.007743835E-3,-5.289602280E-2
6.648581328E0,9.537321329E-2,4.057121277E-2,-5.221128464E-2
6.653555693E0,7.822972536E-2,1.678562164E-2,-6.810617447E-2
6.658560576E0,1.509910226E-1,2.150630951E-2,-3.668403625E-2
6.663534941E0,1.147473752E-1,4.983329773E-2,-3.616714478E-2
6.668509306E0,1.214442849E-1,2.367973328E-3,-4.748725891E-2
6.673453154E0,9.741407633E-2,3.079605103E-2,-2.571725845E-2
6.678458037E0,5.934843421E-2,-9.507179260E-3,-1.597690582E-2
6.683432402E0,1.065236628E-1,8.977985382E-2,-5.591201782E-2
6.688406767E0,8.488082886E-2,2.774333954E-2,-8.368587494E-2
6.693381132E0,3.048509359E-2,3.993988037E-3,-2.152872086E-2
6.698355498E0,1.300942898E-1,8.791923523E-3,-6.136941910E-2
6.703329863E0,1.367930472E-1,2.063179016E-2,-3.242158890E-2
6.708304228E0,3.948652744E-2,-2.668190002E-2,5.680084229E-3
6.713278593E0,5.853950977E-2,4.676818848E-2,-9.582948685E-2
6.718252959E0,8.439788222E-2,-7.884025574E-3,-6.904363632E-2
6.723227324E0,7.462695241E-2,2.053833008E-2,-6.608724594E-2
6.728201689E0,4.614531994E-2,4.876232147E-2,-1.174035072E-1
6.733176054E0,5.098229647E-2,1.539516449E-2,-5.496263504E-2
6.738150420E0,6.162047386E-3,-1.171112061E-3,-5.205440521E-2
6.743155302E0,2.536806464E-2,2.249050140E-2,-5.157852173E-2
6.748129668E0,1.838114858E-2,3.180980682E-2,-7.468557358E-2
6.753104033E0,7.527217269E-2,3.322601318E-3,-7.158613205E-2
6.758078398E0,2.553442121E-2,3.642940521E-2,-1.251926422E-1
6.763022246E0,1.395714283E-2,5.745792389E-2,-3.671836853E-2
6.768027129E0,7.168799639E-3,4.524517059E-2,-7.175159454E-2
6.773001494E0,-4.670965672E-2,1.893520355E-2,-2.156114578E-2
6.777975859E0,4.873639345E-2,2.113533020E-2,-2.377414703E-2
6.782950224E0,-3.822666407E-2,6.580924988E-2,-4.721784592E-2
6.787924590E0,1.959326863E-2,3.695487976E-2,-4.211616516E-2
6.792898955E0,-1.039683819E-3,7.203769684E-2,1.246881485E-2
6.797873320E0,-2.150943875E-2,2.889156342E-2,-1.904964447E-3
6.802847685E0,7.867598534E-2,-1.863384247E-2,-1.058869362E-1
6.807822050E0,2.708631754E-2,9.757041931E-3,6.243371964E-2
6.812826933E0,9.064704180E-3,4.031276703E-2,1.458978653E-2
6.817770781E0,5.382299423E-4,-4.884719849E-3,-6.835937500E-3
6.822745146E0,5.106380582E-2,2.581214905E-2,1.674365997E-2
6.827719511E0,3.040257096E-2,-1.930236816E-2,2.593851089E-2
6.832724394E0,6.892806292E-2,4.216289520E-2,9.063243866E-3
6.837698759E0,-2.276083827E-2,2.047538757E-2,5.603885651E-2
6.842673125E0,2.777871490E-2,2.019214630E-2,1.762294769E-2
6.847647490E0,4.002481699E-2,3.346443176E-3,1.488828659E-2
6.852621855E0,3.093793988E-2,-2.044105530E-2,-1.988887787E-3
6.857596220E0,3.056079149E-3,-2.038669586E-2,-2.103757858E-2
6.862570586E0,7.451933622E-2,6.700706482E-2,1.908540726E-2
6.867544951E0,1.315113902E-2,7.258415222E-3,1.158857346E-2
6.872519316E0,5.380368233E-2,5.183315277E-2,2.770996094E-2
6.877554716E0,5.403599143E-2,2.757835388E-2,-5.309200287E-2
6.882468047E0,7.314839959E-2,6.016349792E-2,-5.062103271E-2
6.887442412E0,4.253822565E-2,3.929138184E-4,-1.751232147E-2
6.892416777E0,2.633208036E-2,1.427841187E-2,8.215427399E-3
6.897391142E0,-1.626461744E-3,-1.210212708E-2,2.662515640E-2
6.902365507E0,4.859149456E-2,-5.213737488E-3,-4.010009766E-2
6.907339873E0,3.241100907E-2,-5.461692810E-3,-9.488582611E-3
6.912314238E0,5.183270574E-2,-3.327369690E-3,2.089118958E-2
6.917288603E0,7.396668196E-3,-5.931854248E-3,4.157400131E-2
6.922293486E0,8.197695017E-3,1.037025452E-2,1.723337173E-2
6.927267851E0,3.963500261E-2,-1.829338074E-2,-6.875514984E-3
6.932242216E0,9.340316057E-3,1.941490173E-2,2.315998077E-3
6.937216582E0,9.940117598E-3,1.199722290E-2,2.039909363E-3
6.942160429E0,8.195400238E-3,-1.898288727E-2,6.464004517E-3
6.947165312E0,4.187676311E-2,2.819061279E-2,2.501010895E-2
6.952139677E0,9.113043547E-3,1.125621796E-2,2.690696716E-2
6.957114043E0,1.203045249E-2,-8.163452148E-4,-6.620407104E-3
6.962088408E0,5.508702993E-2,2.966213226E-2,4.928588867E-3
6.967062773E0,2.216553688E-2,-1.530647278E-3,6.354141235E-2
6.972037138E0,-3.560662270E-3,2.884864807E-2,-3.892564774E-2
6.977011504E0,-7.872354984E-2,1.404571533E-2,-7.926321030E-2
6.981985869E0,-6.826099753E-2,-3.136157990E-2,-3.905725479E-2
6.986960234E0,-1.779231429E-2,5.105781555E-2,-3.226089478E-2
6.991934599E0,-3.389573097E-2,5.725097656E-2,4.057407379E-2
6.996908965E0,-3.094130754E-2,4.417419434E-3,-5.947017670E-2
7.001883330E0,-9.884268045E-2,-4.559516907E-2,-2.882337570E-2
7.006857695E0,-6.710806489E-2,2.045726776E-2,-2.677917480E-2
7.011832060E0,-1.135559678E-1,9.994506836E-4,4.137039185E-2
7.016806425E0,-1.076063514E-1,5.259895325E-2,-4.674720764E-2
7.021811308E0,-1.276057661E-1,-2.366256714E-2,-5.854701996E-2
7.026785674E0,-7.191652060E-2,-1.239776611E-4,7.679939270E-3
7.031729521E0,-7.107505202E-2,-3.569793701E-2,-1.149463654E-2
7.036734404E0,-8.687186241E-2,6.978034973E-3,2.858114243E-2
7.041708769E0,-9.780555964E-2,-4.039955139E-2,-4.851341248E-3
7.046683134E0,-1.015412807E-1,-1.888656616E-2,5.410718918E-2
7.051657500E0,-1.312572360E-1,2.140998840E-2,8.435106277E-2
7.056631865E0,-7.339042425E-2,-1.176834106E-2,5.773925781E-2
7.061606230E0,-4.195725918E-2,-4.231071472E-2,2.426528931E-2
7.066580595E0,-9.336638451E-2,2.958297729E-3,8.315515518E-2
7.071554961E0,-1.112942100E-1,4.077053070E-2,1.037874222E-1
7.076529326E0,-1.457147002E-1,-3.273773193E-2,1.572260857E-1
7.081503691E0,-1.398818195E-1,-3.955936432E-2,8.981227875E-2
7.086478056E0,-1.199846268E-1,-3.448390961E-2,1.828861237E-2
7.091452422E0,-1.614570022E-1,3.636360168E-3,9.139585495E-2
7.096426787E0,-6.081828475E-2,3.435611725E-2,2.252621651E-1
7.101401152E0,-1.358085871E-1,1.050567627E-2,1.951131821E-1
7.106375517E0,-1.773428619E-1,-4.619407654E-2,9.676933289E-2
7.111349882E0,-1.548296809E-1,-2.214241028E-2,1.479878426E-1
7.116354765E0,-1.701220870E-1,1.591205597E-2,1.563324928E-1
7.121298613E0,-1.355838180E-1,1.119613647E-2,1.788120270E-1
7.126303496E0,-1.084530056E-1,-2.652645111E-2,2.341570854E-1
7.131277861E0,-1.596821547E-1,-2.403259277E-4,2.299876213E-1
7.136252226E0,-1.610951424E-1,-9.601593018E-3,2.494416237E-1
7.141226591E0,-1.200035214E-1,2.376556396E-3,2.522311211E-1
7.146200957E0,-2.043029368E-1,-3.526115417E-2,2.031335831E-1
7.151175322E0,-9.902179241E-2,-2.765846252E-2,7.664346695E-2
7.156149687E0,-1.268222332E-1,-2.479934692E-2,1.259407997E-1
7.161124052E0,-1.402752399E-1,2.521038055E-2,2.597632408E-1
7.166098418E0,-1.135647595E-1,-2.203845978E-2,2.602086067E-1
7.171072783E0,-1.649165750E-1,1.961708069E-3,2.182078362E-1
7.176047148E0,-3.147011995E-2,6.978034973E-3,1.861147881E-1
7.181082549E0,-8.306992054E-2,1.945495605E-4,1.991887093E-1
7.185995879E0,-6.581854820E-2,1.940727234E-2,1.672697067E-1
7.190970244E0,-8.188354969E-2,-1.702308655E-3,2.677721977E-1
7.195944609E0,-7.423666120E-2,-1.793289185E-2,1.998171806E-1
7.200918974E0,-3.584858775E-2,-5.997562408E-2,1.796579361E-1
7.205893340E0,9.452521801E-3,1.875877380E-2,1.762313843E-1
7.210867705E0,-2.114775777E-2,-3.295516968E-2,1.776032448E-1
7.215842070E0,-2.330917120E-2,7.209777832E-4,1.695022583E-1
7.220846953E0,-5.854201317E-2,-3.666877747E-3,1.614522934E-1
7.225821318E0,-8.158338070E-2,1.483917236E-3,1.440992355E-1
7.230795683E0,2.547305822E-2,1.925468445E-3,1.458415985E-1
7.235770049E0,7.022374868E-2,2.355575562E-3,9.326887131E-2
7.240744414E0,2.946174145E-2,5.138397217E-3,1.308383942E-1
7.245718779E0,-2.761620283E-2,-8.605003357E-3,1.256384850E-1
7.250693144E0,1.952871680E-2,1.783752441E-2,9.680652618E-2
7.255667509E0,1.738965511E-4,3.869056702E-3,9.882354736E-2
7.260641875E0,8.253976703E-2,-3.121280670E-2,1.102833748E-1
7.265616240E0,4.144760966E-2,3.083515167E-2,7.450819016E-2
7.270590605E0,6.198829412E-2,-3.034496307E-2,9.337711334E-2
7.275564970E0,5.390042067E-2,1.008033752E-3,2.470541000E-2
7.280539336E0,4.578799009E-2,-9.460449219E-4,2.978897095E-2
7.285513701E0,7.801523805E-2,-2.785682678E-3,-2.818584442E-3
7.290488066E0,9.124603868E-2,4.891395569E-3,8.530187607E-2
7.295462431E0,5.474990606E-2,1.250362396E-2,6.646442413E-2
7.300436797E0,1.034599245E-1,2.473449707E-2,-3.960418701E-2
7.305411162E0,4.546085000E-2,-3.871345520E-2,-2.444791794E-2
7.310416045E0,5.875837803E-2,-1.258850098E-4,2.389431000E-3
7.315390410E0,5.073642731E-2,4.049682617E-2,-3.946065903E-2
7.320364775E0,7.577863336E-2,2.412605286E-2,-6.915950775E-2
7.325339140E0,7.458761334E-2,4.562187195E-2,-1.839971542E-2
7.330313506E0,4.974210262E-2,3.145217896E-3,-6.727886200E-2
7.335287871E0,2.741894126E-2,1.767444611E-2,-3.313064575E-2
7.340262236E0,2.659669518E-2,-2.218914032E-2,-8.422279358E-2
7.345236601E0,8.487382531E-2,2.563953400E-2,-6.641197205E-2
7.350210966E0,3.180316091E-2,-1.661014557E-2,-3.692436218E-2
7.355185332E0,6.654617190E-2,3.827667236E-2,-8.794069290E-2
7.360159697E0,4.190185666E-2,7.725715637E-3,-6.535196304E-2
7.365134062E0,4.810512066E-2,1.757717133E-2,-1.137418747E-1
7.370108427E0,3.298056126E-2,-2.454853058E-2,-8.378124237E-2
7.375113310E0,2.505430579E-2,-2.566337585E-3,-8.944940567E-2
7.380057158E0,-2.771407366E-2,3.809070587E-2,-1.092662811E-1
7.385062041E0,-1.648491621E-2,-6.567001343E-3,-1.407065392E-1
7.390005888E0,-3.143382072E-2,8.212089539E-3,-3.018045425E-2
7.394980254E0,-1.082202792E-2,8.785247803E-3,-1.258406639E-1
7.399985136E0,-3.031420708E-2,1.884078979E-2,-1.191530228E-1
7.404959502E0,-2.595594525E-2,-1.840305328E-2,-1.219730377E-1
7.409933867E0,1.371026039E-2,6.503200531E-2,-5.633640289E-2
7.414908232E0,-1.325070858E-3,3.912830353E-2,-5.269241333E-2
7.419882597E0,-3.524330258E-2,5.585098267E-2,-9.638643265E-2
7.424856963E0,-3.821730614E-2,-1.254653931E-2,-1.090297699E-1
7.429831328E0,-3.402605653E-2,3.769207001E-2,-2.945804596E-2
7.434805693E0,-4.158845544E-2,1.433658600E-2,-1.087093353E-1
7.439780058E0,-8.678707480E-2,1.946544647E-2,-1.047329903E-1
7.444754424E0,-2.543717623E-2,2.685356140E-2,-9.378004074E-2
7.449728789E0,-8.731654286E-2,1.291751862E-2,-6.405782700E-2
7.454703154E0,-4.940810800E-2,6.161689758E-3,-4.405450821E-2
7.459677519E0,-5.899843574E-2,-1.234245300E-2,-1.115622520E-1
7.464682402E0,-4.017710686E-2,-1.412868500E-2,-1.052794456E-1
7.469656767E0,-5.212622881E-2,3.605175018E-2,-8.958625793E-2
7.474631132E0,-4.746600986E-2,3.148365021E-2,-5.046653748E-2
7.479574980E0,-1.459828019E-2,1.514625549E-2,-2.111530304E-2
7.484640898E0,-3.159019351E-2,5.807113647E-2,-1.547050476E-2
7.489554228E0,-6.021207571E-2,8.616447449E-3,-6.175470352E-2
7.494528593E0,-3.900551796E-2,2.095699310E-2,-2.266359329E-2
7.499502959E0,-3.449374437E-2,2.843475342E-2,4.250049591E-3
7.504477324E0,2.190756798E-2,3.345012665E-2,-7.297706604E-2
7.509451689E0,-4.010471702E-2,-1.348781586E-2,-1.498651505E-2
7.514426054E0,1.181027293E-2,5.801391602E-2,2.129793167E-2
7.519400420E0,1.609611511E-2,3.681850433E-2,2.934932709E-3
7.524374785E0,-3.398066759E-2,1.101970673E-2,-2.006912231E-2
7.529349150E0,-9.077060223E-2,4.262924194E-3,-5.003499985E-2
7.534323515E0,-1.961159706E-2,7.776355743E-2,-3.733587265E-2
7.539297881E0,-2.681976557E-2,4.204845428E-2,-2.241182327E-2
7.544272246E0,3.217604756E-2,2.315235138E-2,-5.256175995E-3
7.549246611E0,-1.471072435E-3,3.978061676E-2,-9.441375732E-5
7.554251494E0,-2.319595218E-2,3.022670746E-2,-6.870269775E-3
7.559225859E0,-2.370446920E-3,5.139827728E-2,3.121376038E-2
7.564200224E0,3.016346693E-2,2.988433838E-2,-1.222548485E-1
7.569144072E0,-3.464877605E-3,1.803016663E-2,-9.264230728E-2
7.574148955E0,1.005411148E-3,6.293010712E-2,-1.081275940E-1
7.579123320E0,-1.120194793E-2,4.360198975E-2,-3.392982483E-2
7.584097685E0,1.667001843E-2,2.433681488E-2,-5.317687988E-3
7.589072050E0,2.542558312E-2,3.593921661E-2,-2.176904678E-2
7.594046416E0,3.669661283E-2,1.687812805E-2,-9.931564331E-2
7.599020781E0,1.971012354E-2,1.457881927E-2,-5.101203918E-2
7.603995146E0,7.515847683E-3,3.352260590E-2,-5.978822708E-2
7.608969511E0,2.360644937E-2,3.570461273E-2,-6.622648239E-2
7.613943877E0,6.072962284E-2,3.312778473E-2,-2.306079865E-2
7.618918242E0,2.676063776E-2,4.951572418E-2,-4.391670227E-2
7.623892607E0,4.039832950E-2,2.331542969E-2,-2.442502975E-2
7.628836455E0,6.812706590E-2,3.508090973E-2,-9.010457993E-2
7.633810820E0,5.771645904E-2,5.853271484E-2,5.263805389E-3
7.638785185E0,7.792225480E-2,-9.088516235E-4,-2.772617340E-2
7.643790068E0,6.020718813E-2,3.680896759E-2,-7.475757599E-2
7.648764433E0,6.636118889E-2,-1.312923431E-2,-1.989936829E-2
7.653738799E0,2.296522260E-2,5.541515350E-2,-2.918672562E-2
7.658682646E0,2.947071195E-2,3.599071503E-2,-7.004737854E-4
7.663687529E0,-3.265276551E-2,-2.255439758E-3,-4.102945328E-2
7.668661894E0,7.568520308E-2,-9.250640869E-5,-6.690788269E-2
7.673636259E0,1.803401113E-2,-1.443290710E-2,-5.712032318E-2
7.678610625E0,5.071628094E-2,4.456233978E-2,-3.792905807E-2
7.683584990E0,1.933205128E-2,6.763839722E-2,-6.141042709E-2
7.688559355E0,-4.881322384E-3,5.033493042E-2,-1.394605637E-2
7.693564238E0,-2.893885970E-2,2.429962158E-3,-1.746797562E-1
7.698538603E0,8.654922247E-3,9.236335754E-3,-1.050782204E-1
7.703512968E0,-1.199096441E-3,3.496646881E-2,-6.662464142E-2
7.708487334E0,-3.844469786E-3,2.983474731E-2,-6.857061386E-2
7.713461699E0,6.666195393E-2,6.245803833E-2,-4.224491119E-2
7.718436064E0,1.955866814E-3,1.213169098E-2,5.035400391E-3
7.723410429E0,-1.976120472E-2,2.121829987E-2,-7.793235779E-2
7.728384795E0,2.480149269E-2,-1.932525635E-2,-7.992887497E-2
7.733359160E0,5.970349908E-2,3.727054596E-2,1.725244522E-2
7.738333525E0,4.697769880E-3,5.090618134E-2,-3.745365143E-2
7.743307890E0,2.553567290E-2,-1.108932495E-2,-2.321529388E-2
7.748282256E0,-3.419175744E-2,1.713371277E-2,-2.325153351E-2
7.753256621E0,3.411328793E-2,1.205539703E-2,-3.275680542E-2
7.758261504E0,3.119465709E-2,1.646041870E-2,-2.060890198E-3
7.763235869E0,4.853934050E-3,2.321052551E-2,-3.533601761E-2
7.768210234E0,-6.611868739E-2,6.299018860E-3,-5.653142929E-2
7.773184599E0,4.272520542E-2,-4.593944550E-2,-5.873394012E-2
7.778158965E0,2.779012918E-2,1.318264008E-2,-3.969383240E-2
7.783133330E0,-1.769965887E-2,1.049518585E-2,5.227088928E-3
7.788168730E0,-1.076373458E-2,5.487442017E-3,2.146482468E-2
7.793082060E0,5.677759647E-3,1.467227936E-2,3.046512604E-2
7.798056425E0,-3.944817185E-2,2.533912659E-3,8.703231812E-3
7.803030791E0,1.480177045E-2,-1.186466217E-2,-7.660818100E-2
7.808005156E0,-2.222299576E-3,-2.538681030E-3,4.179859161E-2
7.812979521E0,9.300976992E-3,-2.635765076E-2,2.936029434E-2
7.817953886E0,5.146089196E-2,-5.106925964E-3,-1.363754272E-2
7.822928252E0,-1.147270203E-3,1.843452454E-3,4.291772842E-2
7.827902617E0,3.406536579E-2,5.831146240E-2,2.110624313E-2
7.832876982E0,-1.750677824E-3,1.040840149E-2,1.623063087E-1
7.837851347E0,9.964451194E-2,2.898025513E-2,6.624889374E-2
7.842825713E0,-1.460179687E-2,-2.135276794E-3,5.365943909E-2
7.847800078E0,5.159014463E-2,4.817008972E-3,-2.487325668E-2
7.852774443E0,1.031834483E-1,9.333610535E-3,6.718158722E-2
7.857748808E0,1.048064530E-1,2.087688446E-2,7.818698883E-2
7.862723174E0,5.910035968E-2,2.762222290E-2,6.316280365E-2
7.867697539E0,4.208716750E-2,1.072597504E-2,4.593038559E-2
7.872702422E0,5.120724440E-2,3.392219543E-3,8.546829224E-2
7.877676787E0,6.264278293E-2,4.331398010E-2,1.482601166E-1
7.882651152E0,1.000563800E-1,2.391338348E-2,1.114115715E-1
7.887625517E0,5.691334605E-2,2.121734619E-2,9.613847733E-2
7.892599882E0,6.847575307E-2,-1.684570312E-2,1.707158089E-1
7.897574248E0,1.153759360E-1,3.274917603E-2,1.290049553E-1
7.902548613E0,1.240269244E-1,1.587390900E-2,1.183805466E-1
7.907522978E0,1.113102138E-1,3.694534302E-2,1.102557182E-1
7.912497343E0,1.128570735E-1,-8.275032043E-3,7.384538651E-2
7.917471709E0,1.073739529E-1,-1.064777374E-2,1.297736168E-1
7.922446074E0,1.019617319E-1,3.655242920E-2,8.842754364E-2
7.927420439E0,1.012313664E-1,2.194499969E-2,1.606850624E-1
7.932394804E0,1.311159432E-1,-1.850700378E-2,1.072344780E-1
7.937399687E0,1.159521937E-1,2.637863159E-2,1.227092743E-1
7.942343535E0,1.127944589E-1,3.082084656E-2,1.546535492E-1
7.947317900E0,1.545739174E-1,-2.610969543E-2,1.438894272E-1
7.952292265E0,1.558761299E-1,1.179695129E-2,1.779899597E-1
7.957266631E0,1.334831715E-1,3.990745544E-2,1.008124352E-1
7.962240996E0,1.301274300E-1,8.790016174E-3,1.635785103E-1
7.967245879E0,1.409778297E-1,2.990245819E-2,1.054816246E-1
7.972220244E0,1.163735092E-1,-1.049518585E-2,1.092929840E-1
7.977194609E0,1.581262052E-1,3.914737701E-2,1.295976639E-1
7.982168974E0,1.499399543E-1,1.757907867E-2,9.546661377E-2
7.987143340E0,1.229372025E-1,5.671501160E-3,1.301264763E-1
7.992117705E0,1.245308518E-1,1.038837433E-2,1.054830551E-1
7.997092070E0,1.592295170E-1,1.268672943E-2,6.921529770E-2
8.002066435E0,1.394166350E-1,3.621292114E-2,1.796040535E-1
8.007040800E0,1.741066873E-1,-2.065658569E-2,7.197713852E-2
8.012015166E0,1.401470602E-1,1.505088806E-2,7.388162613E-2
8.016989531E0,1.159235239E-1,2.209663391E-2,1.182117462E-1
8.021963896E0,7.529327273E-2,-6.364822388E-3,2.285099030E-2
8.026938261E0,1.175900698E-1,-3.455162048E-2,9.121274948E-2
8.031943144E0,1.359657049E-1,1.545333862E-2,1.142296791E-1
8.036886992E0,1.117175817E-1,1.072883606E-2,9.689807892E-2
8.041891875E0,9.472516179E-2,3.435325623E-2,8.913135529E-2
8.046835722E0,5.413445830E-2,1.294708252E-2,1.310281754E-1
8.051840605E0,7.518967986E-2,5.862236023E-3,1.489481926E-1
8.056814970E0,9.143117070E-2,2.244281769E-2,2.508163452E-2
8.061789336E0,1.076470017E-1,5.877494812E-3,1.218266487E-1
8.066763701E0,1.237671673E-1,2.015686035E-2,4.074764252E-2
8.071738066E0,9.247156978E-2,4.846000671E-2,8.778953552E-2
8.076712431E0,1.180116832E-1,1.041221619E-2,4.943752289E-2
8.081686797E0,4.661211371E-2,1.283264160E-2,3.267574310E-2
8.086661162E0,7.505986094E-2,4.125976562E-2,3.265094757E-2
8.091696562E0,3.960701823E-2,2.936363220E-2,9.877490997E-2
8.096609892E0,1.130520701E-1,-3.722190857E-3,3.210020065E-2
8.101584257E0,5.843409896E-2,-2.474594116E-2,7.926702499E-2
8.106558623E0,9.168180823E-2,1.109981537E-2,1.042318344E-2
8.111532988E0,8.939293027E-2,2.308273315E-2,3.190040588E-2
8.116537871E0,4.231667519E-2,-7.483482361E-3,2.020215988E-2
8.121481718E0,1.680794358E-2,-1.049041748E-5,2.986955643E-2
8.126486601E0,4.578661919E-2,3.571319580E-2,8.429002762E-2
8.131460966E0,6.508862972E-2,9.744644165E-3,3.908777237E-2
8.136435332E0,5.592849851E-2,1.942157745E-2,1.081085205E-2
8.141409697E0,7.050332427E-2,7.295608521E-4,4.655170441E-2
8.146384062E0,1.897832751E-2,1.057624817E-3,-5.022668839E-2
8.151358427E0,3.632462025E-2,2.731132507E-2,7.092380524E-2
8.156332793E0,4.158091545E-2,-1.038932800E-2,5.651855469E-2
8.161307158E0,6.579607725E-3,4.155158997E-3,-1.205778122E-2
8.166281523E0,1.440462470E-2,-3.051757812E-4,4.504585266E-2
8.171255888E0,4.119199514E-2,7.085037231E-2,4.978752136E-2
8.176230254E0,5.364623666E-2,1.870250702E-2,-2.336168289E-2
8.181204619E0,-2.851021290E-2,-1.176738739E-2,7.965087891E-3
8.186178984E0,3.155308962E-2,7.608413696E-3,-5.790233612E-3
8.191183867E0,1.084256172E-2,-1.482009888E-3,6.085777283E-2
8.196127715E0,-1.443231106E-2,4.379081726E-2,-4.065656662E-2
8.201102080E0,-7.728099823E-2,-1.755619049E-2,4.513740540E-2
8.206106963E0,-1.453700662E-2,1.601219177E-2,3.341245651E-2
8.211081328E0,-1.897037029E-3,2.337169647E-2,-5.606698990E-2
8.216055693E0,-3.648391366E-2,4.705429077E-3,-6.926536560E-2
8.221030058E0,-6.367051601E-2,-1.620388031E-2,-3.519248962E-2
8.226004424E0,-9.063932300E-2,2.207660675E-2,-1.400470734E-3
8.230978789E0,-4.887658358E-2,3.881549835E-2,-7.172918320E-2
8.235953154E0,-6.164500117E-2,1.143455505E-3,-2.106094360E-2
8.240927519E0,-1.992425323E-2,5.818939209E-2,-1.097106934E-2
8.245901884E0,-3.988617659E-2,2.029895782E-2,2.730989456E-2
8.250876250E0,-5.494135618E-2,4.171848297E-2,-2.209520340E-2
8.255850615E0,-6.752470136E-2,2.279186249E-2,-1.212406158E-2
8.260824980E0,-1.862275600E-2,2.050876617E-2,-6.838130951E-2
8.265799345E0,-4.323515296E-2,2.532863617E-2,-5.571508408E-2
8.270773711E0,-4.631355405E-2,2.536869049E-2,-7.386970520E-2
8.275748076E0,-8.714121580E-2,2.300739288E-2,-9.428501129E-2
8.280722441E0,-4.741466045E-2,1.780509949E-3,-6.259727478E-2
8.285696806E0,-2.451723814E-2,6.571197510E-2,-3.353357315E-2
8.290671172E0,-8.886247873E-3,8.684158325E-3,-8.738136292E-2
8.295676054E0,-3.357222676E-2,-1.718139648E-2,-6.051921844E-2
8.300650420E0,-4.864895344E-2,-1.680946350E-2,-5.741214752E-2
8.305624785E0,-4.945382476E-2,2.606678009E-2,-4.486608505E-2
8.310599150E0,-2.434751391E-2,5.440044403E-2,-7.966279984E-2
8.315542998E0,-4.228055477E-3,1.638031006E-2,-1.165575981E-1
8.320547881E0,-5.278480053E-2,2.590847015E-2,-1.129860878E-1
8.325522246E0,-1.133167744E-2,2.359104156E-2,-7.398462296E-2
8.330496611E0,-5.059799552E-2,7.107734680E-3,-1.085085869E-1
8.335470976E0,-8.725306392E-2,3.793048859E-2,-1.239118576E-1
8.340445341E0,-3.392669559E-2,4.485130310E-2,-9.202575684E-2
8.345419707E0,-8.957967162E-2,2.571105957E-2,-8.170080185E-2
8.350394072E0,-3.851863742E-2,4.208087921E-2,-8.097982407E-2
8.355368437E0,-9.652489424E-2,2.282428741E-2,-1.110544205E-1
8.360342802E0,-7.150444388E-2,1.788806915E-2,-7.006168365E-2
8.365317168E0,-7.508358359E-2,-2.475738525E-2,-1.096420288E-1
8.370291533E0,-9.982755780E-2,1.351356506E-3,-1.442480087E-1
8.375265898E0,-1.101320684E-1,-2.712631226E-2,-1.385383606E-1
8.380240263E0,-1.557257771E-1,1.302909851E-2,-6.449842453E-2
8.385245146E0,-6.874939799E-2,3.866577148E-2,-8.316469193E-2
8.390219511E0,-1.194195747E-1,-3.503513336E-2,-8.276510239E-2
8.395254912E0,-1.507809758E-1,1.938438416E-2,-1.106491089E-1
8.400168242E0,-8.982479572E-2,5.211257935E-2,-1.335721016E-1
8.405142607E0,-2.323708534E-1,1.843166351E-2,-2.416515350E-2
8.410116972E0,-1.188089550E-1,4.166507721E-2,-1.328654289E-1
8.415091338E0,-1.831839979E-1,9.918212891E-4,-1.013622284E-1
8.420065703E0,-1.053806841E-1,3.621292114E-2,-1.102285385E-1
8.425040068E0,-1.297852993E-1,4.283142090E-2,-9.303045273E-2
8.430014433E0,-1.398684382E-1,1.400470734E-2,-1.656513214E-1
8.434988799E0,-1.758987010E-1,9.002685547E-3,-6.064844131E-2
8.439963164E0,-1.857276559E-1,-1.012229919E-2,-1.288385391E-1
8.444937529E0,-1.742802858E-1,1.576137543E-2,-1.114811897E-1
8.449911894E0,-1.085954607E-1,2.726650238E-2,-5.886125565E-2
8.454886259E0,-1.024318635E-1,5.607604980E-3,-6.336021423E-2
8.459860625E0,-1.695620418E-1,-2.535343170E-2,-6.550979614E-2
8.464834990E0,-1.135387123E-1,2.654075623E-2,1.967859268E-2
8.469809355E0,-1.808464825E-1,9.484291077E-3,-1.630449295E-2
8.474814238E0,-1.271331608E-1,2.321815491E-2,-7.092761993E-2
8.479788603E0,-1.729476750E-1,1.557540894E-2,-5.194330215E-2
8.484762968E0,-1.617583036E-1,-1.089000702E-2,-6.380558014E-2
8.489737334E0,-1.035404503E-1,5.260372162E-2,-4.955005646E-2
8.494711699E0,-7.181805372E-2,-4.781723022E-3,-5.896711349E-2
8.499686064E0,-1.134923100E-1,1.857089996E-2,4.870891571E-3
8.504660429E0,-1.004423499E-1,2.520656586E-2,-2.388763428E-2
8.509634795E0,-1.322927773E-1,-1.538562775E-2,6.654739380E-3
8.514609160E0,-1.497345865E-1,1.989841461E-2,-5.546092987E-3
8.519583525E0,-1.599580646E-1,4.777050018E-2,3.423976898E-2
8.524557890E0,-1.393977702E-1,2.820110321E-2,-1.364469528E-2
8.529532256E0,-1.189803183E-1,1.355266571E-2,2.153587341E-2
8.534506621E0,-1.246315241E-1,3.679370880E-2,-9.678840637E-3
8.539480986E0,-8.302983642E-2,5.488395691E-3,-2.942085266E-3
8.544455351E0,-1.127517223E-1,-3.266239166E-2,5.092811584E-2
8.549429716E0,-1.069528162E-1,-3.977203369E-2,5.719280243E-2
8.554404082E0,-9.888657928E-2,-5.388641357E-2,7.759523392E-2
8.559378447E0,-8.849313855E-2,-4.191780090E-2,1.190700531E-1
8.564352812E0,-4.983121157E-2,-1.114654541E-2,7.287931442E-2
8.569357695E0,-2.096334100E-2,-6.581306458E-3,9.555196762E-2
8.574332060E0,-7.031965256E-2,-4.220294952E-2,8.260726929E-2
8.579306425E0,-9.816366434E-2,-5.866432190E-2,1.027994156E-1
8.584250273E0,-5.972409248E-2,-1.357460022E-2,1.535649300E-1
8.589255156E0,-6.640332937E-2,-6.593704224E-3,1.307730675E-1
8.594229521E0,-3.285169601E-2,1.689529419E-2,1.341881752E-1
8.599203886E0,-5.628621578E-2,4.800796509E-3,1.399650574E-1
8.604178252E0,-3.948035836E-2,-9.593963623E-3,1.220407486E-1
8.609152617E0,-2.992132306E-2,-5.004882812E-3,2.128267288E-1
8.614126982E0,-5.347022414E-2,4.437732697E-2,1.045427322E-1
8.619101347E0,-1.302316785E-2,-1.999664307E-2,1.316595078E-1
8.624075713E0,-2.956631780E-2,2.469158173E-2,1.726379395E-1
8.629050078E0,-2.953210473E-2,-8.891105652E-3,1.094136238E-1
8.634024443E0,-2.953740954E-2,-5.397796631E-2,1.411657333E-1
8.638998808E0,-3.188934922E-2,-2.789306641E-2,1.537418365E-1
8.643973174E0,-2.944746614E-2,2.159881592E-2,1.638736725E-1
8.648947539E0,-3.425866365E-3,-2.610588074E-2,1.196265221E-1
8.653952422E0,-2.493777871E-2,-2.384471893E-2,1.678118706E-1
8.658926787E0,-3.924608231E-2,-3.100299835E-2,1.471962929E-1
8.663901152E0,-2.981004119E-2,-9.696006775E-3,1.669821739E-1
8.668875517E0,-3.900736570E-3,1.148986816E-2,1.465454102E-1
8.673849882E0,1.469987631E-2,-5.232810974E-3,1.286873817E-1
8.678824248E0,-2.321600914E-3,-5.321502686E-4,1.700463295E-1
8.683798613E0,2.559638023E-2,-1.001262665E-2,8.834123611E-2
8.688772978E0,2.258089185E-2,-1.935482025E-2,1.631917953E-1
8.693747343E0,-8.697271347E-3,-4.935264587E-3,1.265716553E-1
8.698782744E0,1.698717475E-2,-4.778862000E-3,2.083082199E-1
8.703696074E0,2.825313807E-2,2.131843567E-2,1.689462662E-1
8.708670439E0,-7.737874985E-4,-3.070068359E-2,2.030935287E-1
8.713644804E0,2.230891585E-2,-4.369735718E-3,1.756095886E-1
8.718619170E0,1.918846369E-2,2.837181091E-3,1.742959023E-1
8.723593535E0,1.270743608E-1,2.412700653E-2,1.257534027E-1
8.728567900E0,5.126327276E-3,-5.390453339E-2,9.649705887E-2
8.733542265E0,3.517729044E-2,1.977157593E-2,9.579181671E-2
8.738516631E0,-4.615044594E-2,-1.588821411E-3,1.541152000E-1
8.743521513E0,2.432927489E-2,2.918052673E-2,1.269960403E-1
8.748495879E0,3.312376142E-2,2.908802032E-2,1.237978935E-1
8.753470244E0,7.263606787E-2,1.255130768E-2,1.702957153E-1
8.758444609E0,2.202019095E-2,7.993698120E-3,1.503663063E-1
8.763388457E0,2.131447196E-2,-1.227378845E-3,1.447963715E-1
8.768393340E0,1.353809237E-2,2.506256104E-2,1.275024414E-1
8.773367705E0,3.902593255E-2,-1.494216919E-2,1.646633148E-1
8.778342070E0,3.605306149E-2,3.272628784E-2,1.306934357E-1
8.783316435E0,6.848242879E-2,6.837844849E-3,8.286666870E-2
8.788290800E0,5.817708373E-2,2.127647400E-2,1.416382790E-1
8.793265166E0,4.314443469E-2,-3.055858612E-2,1.620821953E-1
8.798239531E0,5.882668495E-2,-8.784294128E-3,1.965250969E-1
8.803183379E0,3.903687000E-2,-2.252292633E-2,1.741237640E-1
8.808157744E0,1.044367850E-1,-5.401611328E-3,1.260161400E-1
8.813132109E0,1.338472962E-1,-7.270812988E-3,1.255683899E-1
8.818106474E0,8.270883560E-2,3.104305267E-2,9.684944153E-2
8.823080840E0,1.193232238E-1,1.006412506E-2,1.156334877E-1
8.828055205E0,1.273373663E-1,-1.543998718E-2,1.130423546E-1
8.833029570E0,1.022621393E-1,3.950881958E-2,1.293320656E-1
8.838034453E0,1.505707800E-1,-2.739906311E-3,7.708454132E-2
8.843008818E0,8.285683393E-2,2.591133118E-3,5.597877502E-2
8.847983183E0,1.479683816E-1,3.158569336E-3,5.157136917E-2
8.852927031E0,9.214517474E-2,-2.455234528E-2,1.346116066E-1
8.857931914E0,1.311801076E-1,-9.476661682E-3,1.131825447E-1
8.862906279E0,1.109539568E-1,-1.337242126E-2,1.108613014E-1
8.867880644E0,1.357021630E-1,1.667022705E-3,1.062250137E-1
8.872885527E0,1.790961027E-1,2.366638184E-2,9.219026566E-2
8.877859892E0,1.560994089E-1,2.661323547E-2,6.412553787E-2
8.882834257E0,1.615818441E-1,1.541137695E-2,2.218341827E-2
8.887808623E0,1.622194648E-1,2.318763733E-2,6.321382523E-2
8.892782988E0,1.486746073E-1,-1.402854919E-2,1.174163818E-2
8.897757353E0,1.541212201E-1,2.456283569E-2,7.867431641E-2
8.902731718E0,1.595167816E-1,3.220367432E-2,2.237558365E-2
8.907706084E0,1.295484900E-1,2.033233643E-3,3.266429901E-2
8.912680449E0,1.376572251E-1,1.222419739E-2,3.485679626E-4
8.917654814E0,1.905184686E-1,1.998806000E-2,2.498006821E-2
8.922629179E0,1.389851570E-1,2.532482147E-2,4.557609558E-3
8.927603545E0,1.350137889E-1,2.587699890E-2,7.889270782E-3
8.932577910E0,1.335061491E-1,-8.962631226E-3,-1.474905014E-2
8.937582793E0,1.439410746E-1,2.021026611E-2,1.235008240E-2
8.942526640E0,1.566529572E-1,6.563568115E-2,3.210449219E-2
8.947531523E0,1.667716503E-1,2.807140350E-2,-2.382707596E-2
8.952505888E0,8.229348063E-2,-6.842613220E-3,-3.780841827E-3
8.957480254E0,1.096189022E-1,1.522922516E-2,-7.355642319E-2
8.962454619E0,9.683340788E-2,4.428005219E-2,-1.282835007E-2
8.967428984E0,1.100953221E-1,6.602573395E-2,-6.352710724E-2
8.972403349E0,1.089212894E-1,6.864643097E-2,-7.138347626E-2
8.977377715E0,6.999918818E-2,1.219463348E-2,-9.574699402E-2
8.982352080E0,1.519833505E-1,2.474975586E-2,-1.457791328E-1
8.987326445E0,1.578452289E-1,3.487968445E-2,-1.103682518E-1
8.992300810E0,1.304732263E-1,4.486656189E-2,-1.012878418E-1
8.997275175E0,6.072661281E-2,5.475234985E-2,-6.161451340E-2
9.002310576E0,1.355922520E-1,7.931709290E-3,-1.119360924E-1
9.007223906E0,1.131331623E-1,2.053356171E-2,-1.264109612E-1
9.012198271E0,3.660574555E-2,6.138801575E-2,-1.100406647E-1
9.017203154E0,5.037117004E-2,5.469608307E-2,-1.150436401E-1
9.022177519E0,6.867936254E-2,6.221675873E-2,-1.200103760E-1
9.027151884E0,9.158170223E-2,5.313301086E-2,-9.191322327E-2
9.032095732E0,9.779542685E-2,5.350399017E-2,-1.160645485E-1
9.037100615E0,8.031654358E-2,8.683204651E-2,-9.763622284E-2
9.042074980E0,9.130233526E-2,3.950309753E-2,-1.054821014E-1
9.047049345E0,5.735141039E-2,7.278919220E-2,-1.487212181E-1
9.052023711E0,2.841794491E-2,3.263950348E-2,-1.160387993E-1
9.056998076E0,6.355887651E-2,8.730602264E-2,-1.000809669E-1
9.061972441E0,1.126355827E-1,4.241371155E-2,-1.644663811E-1
9.066946806E0,4.549828172E-2,4.032611847E-2,-1.292419434E-1
9.071921172E0,4.492822289E-2,1.459312439E-2,-1.817212105E-1
9.076895537E0,5.620503426E-2,3.390598297E-2,-1.983828545E-1
9.081869902E0,2.970603108E-2,1.163482666E-3,-1.723709106E-1
9.086844267E0,2.951735258E-2,3.012847900E-2,-1.228981018E-1
9.091818632E0,6.476965547E-2,9.282112122E-3,-1.706194878E-1
9.096792998E0,6.187218428E-2,4.522514343E-2,-1.991043091E-1
9.101767363E0,5.660983920E-2,6.660938263E-2,-1.802630424E-1
9.106741728E0,6.805869937E-2,2.166175842E-2,-8.612108231E-2
9.111716093E0,7.010245323E-2,1.489543915E-2,-1.296319962E-1
9.116690459E0,1.785567403E-2,6.481933594E-2,-1.444802284E-1
9.121664824E0,5.568295717E-2,6.706047058E-2,-1.498322487E-1
9.126639189E0,6.480085850E-2,4.800033569E-2,-1.315793991E-1
9.131644072E0,8.091992140E-2,4.090309143E-2,-1.300001144E-1
9.136618437E0,6.867033243E-2,3.150081635E-2,-1.614904404E-1
9.141592802E0,3.539583087E-2,1.739692688E-2,-1.597514153E-1
9.146567168E0,9.212517738E-2,9.517669678E-4,-1.581530571E-1
9.151541533E0,2.317348123E-2,1.527118683E-2,-5.985593796E-2
9.156515898E0,3.020966053E-2,7.430267334E-2,-1.111135483E-1
9.161490263E0,3.480696678E-2,6.670761108E-2,-1.997637749E-1
9.166464629E0,3.236332536E-2,1.211166382E-4,-2.239952087E-1
9.171438994E0,3.707548976E-2,9.626388550E-3,-1.890139580E-1
9.176413359E0,-2.910834551E-2,9.590148926E-3,-2.157220840E-1
9.181387724E0,-2.634438872E-2,2.365875244E-2,-1.997909546E-1
9.186362090E0,4.672974348E-3,6.351566315E-2,-2.100343704E-1
9.191336455E0,5.907222629E-2,1.006402969E-1,-1.470680237E-1
9.196310820E0,1.865541935E-2,4.543304443E-2,-1.837215424E-1
9.201285185E0,6.887316704E-3,1.667213440E-2,-1.610288620E-1
9.206290068E0,2.351632714E-2,5.420780182E-2,-2.329955101E-1
9.211233916E0,-1.429700851E-2,5.834674835E-2,-1.769390106E-1
9.216208281E0,-4.453778267E-3,2.702331543E-2,-2.016377449E-1
9.221182646E0,1.722925901E-2,5.027389526E-2,-2.190294266E-1
9.226157011E0,3.409552574E-2,5.682754517E-2,-1.017007828E-1
9.231161894E0,4.373386502E-2,4.676437378E-2,-1.388344765E-1
9.236136259E0,-5.917876959E-3,3.668689728E-2,-1.993808746E-1
9.241080107E0,-1.743751764E-2,1.955604553E-2,-1.697907448E-1
9.246084990E0,-1.212415099E-2,2.383041382E-2,-1.451544762E-1
9.251059355E0,1.460549235E-2,4.463481903E-2,-1.395640373E-1
9.256033720E0,5.718648434E-3,5.346298218E-2,-7.264709473E-2
9.261008086E0,6.240010262E-3,5.747795105E-2,-1.266942024E-1
9.265982451E0,-1.461595297E-2,4.965877533E-2,-1.071062088E-1
9.270956816E0,-1.403343678E-2,3.952407837E-2,-1.160345078E-1
9.275931181E0,-1.800936460E-2,-3.596305847E-3,-9.187507629E-2
9.280905547E0,2.300679684E-2,2.917861938E-2,-7.736587524E-2
9.285879912E0,-1.076757908E-4,4.277801514E-2,-1.645040512E-1
9.290854277E0,2.870449424E-2,4.436206818E-2,-7.399177551E-2
9.295828642E0,5.043447018E-4,3.877162933E-2,-7.166957855E-2
9.300803007E0,2.215594053E-2,4.975318909E-2,-5.284357071E-2
9.305838408E0,8.318781853E-3,7.481956482E-2,-3.416204453E-2
9.310751738E0,1.758635044E-3,1.236629486E-2,-2.032184601E-2
9.315726103E0,5.185475945E-2,5.419349670E-2,1.923847198E-2
9.320700468E0,-4.731521010E-2,1.763629913E-2,-2.195978165E-2
9.325705351E0,1.954251528E-2,9.665489197E-3,-5.814886093E-2
9.330649199E0,3.318160772E-3,3.249740601E-2,-7.509517670E-2
9.335623564E0,3.894388676E-3,1.266479492E-2,-3.523302078E-2
9.340628447E0,2.123415470E-3,1.187610626E-2,-9.249353409E-2
9.345602812E0,-3.044843674E-2,1.583862305E-2,6.555080414E-3
9.350577177E0,-3.216642141E-2,1.030540466E-2,-3.687620163E-2
9.355551543E0,-3.150400519E-2,-2.302169800E-3,2.622985840E-2
9.360525908E0,4.646331072E-3,4.186916351E-2,1.801633835E-2
9.365500273E0,-3.254309297E-2,4.558372498E-2,2.171850204E-2
9.370474638E0,-9.015798569E-4,1.381969452E-2,5.130338669E-2
9.375449004E0,-7.346272469E-3,1.770973206E-2,7.353878021E-2
9.380423369E0,-4.449295998E-2,-4.357337952E-3,-2.238321304E-2
9.385397734E0,-3.496587276E-3,-3.096199036E-2,-2.544355392E-2
9.390372099E0,-5.248910189E-2,1.347064972E-2,3.761386871E-2
9.395376982E0,1.706314087E-2,1.744079590E-2,-1.783990860E-2
9.400320830E0,-4.855448008E-2,1.902294159E-2,8.061408997E-2
9.405295195E0,-3.812924027E-2,4.177379608E-2,9.554910660E-2
9.410269560E0,-1.136550307E-2,9.983062744E-3,8.432197571E-2
9.415243925E0,-5.096858740E-2,9.126663208E-3,2.831649780E-2
9.420218291E0,-1.220241189E-2,-1.532459259E-2,2.470731735E-2
9.425192656E0,7.450133562E-3,2.877235413E-3,7.064437866E-2
9.430167021E0,1.280423999E-2,2.562713623E-2,1.067276001E-1
9.435171904E0,-5.481988192E-3,3.333091736E-3,9.057235718E-2
9.440146269E0,2.587825060E-2,-2.587032318E-2,1.005039215E-1
9.445120634E0,-2.803686261E-2,-5.168914795E-4,1.505107880E-1
9.450064482E0,-1.303640008E-2,-6.057739258E-3,1.505341530E-1
9.455069365E0,-4.306071997E-2,-4.225254059E-2,1.434612274E-1
9.460043730E0,2.674400806E-3,1.632118225E-2,1.483073235E-1
9.465018095E0,-2.981057763E-2,1.309394836E-3,1.343269348E-1
9.469992461E0,1.826238632E-2,1.008510590E-2,1.488618851E-1
9.474966826E0,1.874378324E-2,1.880836487E-2,1.019253731E-1
9.479941191E0,1.203528047E-2,-5.986404419E-2,2.064852715E-1
9.484915556E0,-3.248512745E-2,-2.927589417E-2,1.638498306E-1
9.489889922E0,-3.413358331E-2,1.099586487E-3,1.617512703E-1
9.494864287E0,1.622346044E-2,-3.249263763E-2,1.880197525E-1
9.499838652E0,-4.235732555E-2,-1.623535156E-2,2.164244652E-1
9.504813017E0,-2.249857783E-2,-4.855155945E-3,1.501407623E-1
9.509787382E0,-1.931765676E-2,-1.953315735E-2,1.623091698E-1
9.514761748E0,2.648442984E-3,-2.468490601E-2,1.790513992E-1
9.519736113E0,-3.934296966E-2,-3.886222839E-3,1.318449974E-1
9.524710478E0,-1.957085729E-2,-1.154804230E-2,9.452199936E-2
9.529715361E0,9.606987238E-3,-3.561401367E-2,1.803259850E-1
9.534689726E0,-3.219500184E-2,-2.406597137E-2,2.064037323E-1
9.539633574E0,-4.308941960E-2,-1.969337463E-2,1.425719261E-1
9.544638457E0,-3.509947658E-2,-2.246570587E-2,1.996307373E-1
9.549612822E0,-2.239352465E-2,1.253986359E-2,2.207837105E-1
9.554587187E0,9.195268154E-3,9.525299072E-3,2.158412933E-1
9.559561552E0,-4.245340824E-3,1.837921143E-2,1.944637299E-1
9.564535918E0,-2.942779660E-2,-3.185653687E-2,2.133936882E-1
9.569510283E0,-2.148771286E-2,1.272583008E-2,2.486677170E-1
9.574484648E0,-5.850955844E-2,-2.800464630E-2,1.137385368E-1
9.579459013E0,-6.921800971E-2,-3.761100769E-2,1.452965736E-1
9.584433379E0,-3.966268897E-2,-2.107143402E-2,2.428140640E-1
9.589407744E0,-3.873881698E-2,-3.767871857E-2,1.790552139E-1
9.594382109E0,-1.427561045E-2,-2.816104889E-2,1.937541962E-1
9.599356474E0,-5.604743958E-2,-2.104282379E-2,2.083797455E-1
9.604330840E0,-4.320985079E-2,-4.225444794E-2,2.512855530E-1
9.609366240E0,-2.811151743E-2,-1.601982117E-2,1.569957733E-1
9.614279570E0,-2.021509409E-2,5.750656128E-4,1.461377144E-1
9.619284453E0,-3.128367662E-2,-3.254222870E-2,1.282858849E-1
9.624228300E0,-1.389557123E-2,-6.348609924E-3,1.672620773E-1
9.629202666E0,-2.967104316E-2,-1.103973389E-2,1.351218224E-1
9.634177031E0,-4.771500826E-2,8.325576782E-4,1.811494827E-1
9.639181914E0,-3.496885300E-2,-2.984714508E-2,1.985182762E-1
9.644156279E0,-6.246769428E-2,-2.246475220E-2,2.228741646E-1
9.649130644E0,-3.543880582E-2,-4.813194275E-2,1.951718330E-1
9.654105009E0,-3.700652719E-2,4.390716553E-3,1.441969872E-1
9.659079375E0,-4.796448350E-2,-4.918098450E-3,1.290268898E-1
9.664053740E0,-1.618677378E-2,-3.543090820E-2,2.083511353E-1
9.669028105E0,-6.486269832E-2,-5.150508881E-2,1.760931015E-1
9.674002470E0,-2.351006866E-2,-3.195858002E-2,1.961417198E-1
9.678976836E0,-2.508148551E-2,1.582813263E-2,1.405887604E-1
9.683951201E0,-1.956984401E-2,-5.481338501E-2,1.940817833E-1
9.688925566E0,-2.591285110E-2,-1.394081116E-2,2.353010178E-1
9.693930449E0,-4.636305571E-2,-3.944396973E-2,2.243232727E-1
9.698874297E0,-4.546910524E-2,1.433372498E-3,1.379961967E-1
9.703848662E0,-2.580994368E-2,6.581306458E-3,1.468405724E-1
9.708823027E0,-4.884949327E-2,-1.428127289E-2,1.414489746E-1
9.713827910E0,-7.940143347E-3,-3.260707855E-2,1.148591042E-1
9.718771757E0,-3.907382488E-4,-4.840660095E-2,2.183375359E-1
9.723776640E0,-2.341508865E-3,-3.336238861E-2,1.274209023E-1
9.728751006E0,-1.612040401E-2,-4.302024841E-3,2.567667961E-1
9.733725371E0,-3.447467089E-2,7.975578308E-3,1.371521950E-1
9.738699736E0,-7.864326239E-3,2.251148224E-2,1.318421364E-1
9.743674101E0,-3.581923246E-2,-4.803752899E-2,1.029958725E-1
9.748648466E0,-6.348913908E-2,-4.948520660E-2,1.216726303E-1
9.753622832E0,-2.250349522E-2,-2.727794647E-2,7.650804520E-2
9.758597197E0,-1.728093624E-2,-5.008602142E-2,1.072850227E-1
9.763571562E0,-6.640282273E-2,-4.226684570E-3,1.307525635E-1
9.768545927E0,-5.378609896E-2,-2.012443542E-2,1.375021935E-1
9.773520293E0,-8.143529296E-2,-5.185127258E-3,1.442198753E-1
9.778494658E0,-4.744651914E-2,2.605438232E-3,8.013677597E-2
9.783469023E0,2.797245979E-3,-3.684234619E-2,1.275825500E-1
9.788473906E0,-3.946310282E-2,-7.502555847E-3,1.392302513E-1
9.793448271E0,-2.955582738E-2,-2.090454102E-2,4.691219330E-2
9.798422636E0,-3.166237473E-2,8.274078369E-3,1.435518265E-2
9.803397002E0,-6.679362059E-2,-4.304790497E-2,5.675792694E-3
9.808371367E0,-6.382453442E-2,7.580757141E-3,2.069759369E-2
9.813345732E0,-3.019851446E-2,-2.953433990E-2,1.437330246E-2
9.818320097E0,-1.101013124E-1,-1.674938202E-2,4.589271545E-2
9.823294463E0,-4.993975163E-4,-1.823520660E-2,5.118274689E-2
9.828299345E0,-6.663990021E-2,-7.884025574E-3,3.522014618E-2
9.833243193E0,-8.034163713E-2,2.125549316E-2,7.576465607E-3
9.838217558E0,-1.056549251E-1,-1.755714417E-3,-1.981067657E-2
9.843222441E0,-1.000055969E-1,1.799964905E-2,3.103494644E-2
9.848196806E0,-6.139448285E-2,6.937026978E-3,-8.198261261E-3
9.853171172E0,-7.512089610E-2,-1.583766937E-2,-8.723211288E-2
9.858145537E0,-6.989336014E-2,-6.542205811E-4,-2.397298813E-2
9.863119902E0,-7.647314668E-2,4.747009277E-2,-6.272172928E-2
9.868094267E0,-5.705717206E-2,2.911663055E-2,-2.794504166E-2
9.873068632E0,-1.157406867E-1,1.089668274E-2,3.012514114E-2
9.878042998E0,-6.295007467E-2,-2.607536316E-2,-7.283449173E-2
9.883017363E0,-6.009247899E-2,-8.446693420E-3,-1.914453506E-2
9.887991728E0,-6.193494797E-2,-1.458835602E-2,-3.202342987E-2
9.892966093E0,-4.022064805E-2,2.179050446E-2,-8.258771896E-2
9.897940459E0,-7.536828518E-2,-3.563880920E-3,-4.310131073E-2
9.902914824E0,-7.244291902E-2,4.441356659E-2,-9.371900558E-2
9.907889189E0,-9.787455201E-2,-2.450942993E-3,-7.312488556E-2
9.912955107E0,-5.930650234E-2,3.130626678E-2,-6.454372406E-2
9.917868437E0,-4.224598408E-2,2.461242676E-2,-8.913707733E-2
9.922842802E0,-8.802741766E-3,1.090145111E-2,-1.229577065E-1
9.927817168E0,-3.233051300E-2,-3.547668457E-4,-1.447176933E-1
9.932791533E0,-2.734383941E-2,2.151393890E-2,-2.111697197E-1
9.937765898E0,-1.526638865E-2,-1.667976379E-3,-1.165752411E-1
9.942740263E0,-4.335471988E-2,2.729701996E-2,-1.785421371E-1
9.947714629E0,1.943111420E-3,7.022285461E-2,-1.266355515E-1
9.952688994E0,6.714880466E-3,4.197406769E-2,-1.365346909E-1
9.957663359E0,6.745427847E-3,1.397991180E-2,-1.982598305E-1
9.962637724E0,4.451403022E-2,2.638626099E-2,-1.768021584E-1
9.967612090E0,2.290362120E-2,4.340839386E-2,-1.531624794E-1
9.972586455E0,2.504780889E-2,5.973815918E-3,-1.439094543E-1
9.977560820E0,-1.059502363E-2,6.799507141E-2,-1.654205322E-1
9.982535185E0,6.737187505E-2,4.391670227E-3,-1.442613602E-1
9.987479033E0,3.846463561E-2,4.045677185E-2,-1.964616776E-1
9.992483916E0,3.812447190E-2,2.667808533E-2,-1.136388779E-1
9.997458281E0,3.066065907E-2,4.605674744E-2,-1.400957108E-1
1.000243265E1,6.094396114E-2,6.525421143E-2,-2.064843178E-1
1.000740701E1,6.736406684E-2,2.289676666E-2,-1.283521652E-1
1.001238138E1,8.792796731E-2,-2.623081207E-2,-1.925582886E-1
1.001735574E1,8.954018354E-2,5.482387543E-2,-1.028728485E-1
1.002233011E1,5.347931385E-2,5.316734314E-3,-1.225991249E-1
1.002730447E1,1.002598703E-1,2.465820312E-2,-1.539850235E-1
1.003227884E1,8.509379625E-2,6.744384766E-2,-1.709375381E-1
1.003725320E1,2.040857077E-2,1.543235779E-2,-1.523604393E-1
1.004222757E1,6.018564105E-2,6.531906128E-2,-1.434340477E-1
1.004720193E1,7.376402617E-2,4.629421234E-2,-1.039500237E-1
1.005220682E1,3.773617744E-2,-1.033878326E-2,-1.308917999E-1
1.005721170E1,1.601213217E-1,7.515239716E-2,-4.899644852E-2
1.006218606E1,7.136946917E-2,6.310939789E-2,-1.873650551E-1
1.006716043E1,6.598690152E-2,6.291294098E-2,-1.428923607E-1
1.007213480E1,3.937312961E-2,1.312446594E-2,-1.436667442E-1
1.007710916E1,5.314990878E-2,4.162883759E-2,-1.255774498E-1
1.008208352E1,6.688785553E-2,5.101490021E-2,-1.123600006E-1
1.008705789E1,7.581567764E-2,1.785373688E-2,-1.369962692E-1
1.009203226E1,4.928034544E-2,8.514404297E-3,-1.750946045E-2
1.009700662E1,1.362733245E-1,5.110645294E-2,-1.162900925E-1
1.010198099E1,1.186577976E-1,6.971931458E-2,-1.505379677E-1
1.010695535E1,7.522794604E-2,2.678394318E-2,-1.160683632E-1
1.011192972E1,6.280729175E-2,-1.343441010E-2,-8.188343048E-2
1.011690408E1,1.283494234E-1,2.930259705E-2,-7.630777359E-2
1.012187845E1,7.299661636E-2,5.043888092E-2,-9.405612946E-3
1.012688333E1,1.054343879E-1,4.543113708E-2,-9.177684784E-2
1.013185770E1,8.798536658E-2,1.443767548E-2,-9.091901779E-2
1.013680154E1,1.013692319E-1,6.390285492E-2,9.000301361E-3
1.014180642E1,1.170017719E-1,2.087402344E-2,-3.593158722E-2
1.014678079E1,1.277439594E-1,2.305412292E-2,-1.111755371E-1
1.015175516E1,6.047806144E-2,-7.505416870E-4,-6.068181992E-2
1.015672952E1,8.583399653E-2,1.809406281E-2,-9.563922882E-2
1.016170389E1,1.275228262E-1,1.549720764E-2,-1.256365776E-1
1.016667825E1,1.075745225E-1,4.601097107E-2,-1.647791862E-1
1.017165262E1,6.892725825E-2,6.212711334E-2,-8.554363251E-2
1.017662698E1,1.438640356E-1,4.502010345E-2,-1.179633141E-1
1.018160135E1,7.648378611E-2,2.563571930E-2,1.269388199E-2
1.018657571E1,6.619912386E-2,3.469944000E-2,-1.056404114E-1
1.019155008E1,8.729159832E-3,1.064014435E-2,-6.482887268E-2
1.019652444E1,1.429777741E-1,5.523681641E-2,-7.157135010E-2
1.020149881E1,2.835384011E-2,2.659797668E-3,1.972198486E-3
1.020647317E1,8.230924606E-2,4.256439209E-2,-8.091926575E-2
1.021147806E1,5.787655711E-2,1.838016510E-2,-4.747819901E-2
1.021651346E1,3.607791662E-2,3.686809540E-2,-2.142524719E-2
1.022142679E1,7.405549288E-3,2.216148376E-2,4.690885544E-2
1.022637063E1,4.265344143E-2,7.575988770E-3,-1.308226585E-1
1.023137552E1,2.089902759E-2,2.379798889E-2,-5.213356018E-2
1.023634988E1,2.288717031E-2,4.456520081E-3,-7.326555252E-2
1.024132425E1,1.247525215E-3,1.122188568E-2,-4.939746857E-2
1.024629861E1,5.788177252E-3,-5.695343018E-3,-6.824636459E-2
1.025127298E1,1.032510400E-2,1.112937927E-3,-2.795267105E-2
1.025624734E1,-2.530547976E-2,2.198791504E-2,2.139759064E-2
