"Time (s)","Acceleration x (m/s^2)","Acceleration y (m/s^2)","Acceleration z (m/s^2)"
4.065464900E-2,-3.309173584E-1,9.595565796E0,-7.116928101E0
4.569004900E-2,-3.155364990E-1,9.629089355E0,-7.089141846E0
5.072545000E-2,-3.390808105E-1,9.595092773E0,-7.092147827E0
5.576085000E-2,-3.513031006E-1,9.603683472E0,-7.107055664E0
6.079625000E-2,-3.264160156E-1,9.596145630E0,-7.087310791E0
6.583165100E-2,-3.261108398E-1,9.616882324E0,-7.060165405E0
7.086705100E-2,-3.499145508E-1,9.595062256E0,-7.057617188E0
7.590245200E-2,-3.205108643E-1,9.598220825E0,-7.078308105E0
8.093785200E-2,-3.530883789E-1,9.586563110E0,-7.065261841E0
8.597325200E-2,-3.125305176E-1,9.602157593E0,-7.066986084E0
9.100865300E-2,-3.133392334E-1,9.624313354E0,-7.081649780E0
9.604405300E-2,-3.033447266E-1,9.613739014E0,-7.076919556E0
1.010794540E-1,-3.142242432E-1,9.609771729E0,-7.065124512E0
1.061148540E-1,-3.553924561E-1,9.586639404E0,-7.111892700E0
1.111502540E-1,-3.258666992E-1,9.603683472E0,-7.107116699E0
1.161856550E-1,-3.210754395E-1,9.569503784E0,-7.106170654E0
1.212210550E-1,-3.268432617E-1,9.621978760E0,-7.064041138E0
1.262564560E-1,-3.601684570E-1,9.568771362E0,-7.104507446E0
1.312918560E-1,-2.808380127E-1,9.488662720E0,-7.084457397E0
1.363272560E-1,-3.365478516E-1,9.597503662E0,-7.072631836E0
1.413626570E-1,-3.148956299E-1,9.597305298E0,-7.054306030E0
1.463980570E-1,-3.056182861E-1,9.588500977E0,-7.016708374E0
1.514334570E-1,-3.149719238E-1,9.591308594E0,-7.031341553E0
1.564688580E-1,-3.317260742E-1,9.591201782E0,-7.065261841E0
1.615042580E-1,-3.027496338E-1,9.600433350E0,-7.050659180E0
1.665396590E-1,-3.386993408E-1,9.601135254E0,-7.014572144E0
1.715750590E-1,-3.253479004E-1,9.629577637E0,-7.043594360E0
1.766104590E-1,-3.345336914E-1,9.598953247E0,-7.020355225E0
1.816458600E-1,-3.372497559E-1,9.631561279E0,-7.052032471E0
1.866812600E-1,-3.067779541E-1,9.601089478E0,-6.986557007E0
1.917166610E-1,-3.171539307E-1,9.600112915E0,-6.996810913E0
1.967520610E-1,-3.418426514E-1,9.603195190E0,-7.011871338E0
2.017874610E-1,-3.293609619E-1,9.605895996E0,-7.022979736E0
2.068228620E-1,-3.353576660E-1,9.599853516E0,-7.037094116E0
2.118582620E-1,-3.277435303E-1,9.594390869E0,-7.048019409E0
2.168936630E-1,-3.169708252E-1,9.608825684E0,-7.083816528E0
2.219290630E-1,-3.147430420E-1,9.616928101E0,-7.056610107E0
2.269644630E-1,-3.260803223E-1,9.599273682E0,-7.034194946E0
2.319998640E-1,-3.615722656E-1,9.577545166E0,-7.040237427E0
2.370352640E-1,-3.302764893E-1,9.593353271E0,-7.058425903E0
2.420706650E-1,-3.162994385E-1,9.609970093E0,-6.988845825E0
2.471060650E-1,-3.036499023E-1,9.635208130E0,-6.982757568E0
2.521414650E-1,-3.179321289E-1,9.631515503E0,-7.035400391E0
2.571768660E-1,-3.291778564E-1,9.612167358E0,-7.049514771E0
2.622122660E-1,-3.165588379E-1,9.619918823E0,-7.030090332E0
2.672476660E-1,-3.194122314E-1,9.603912354E0,-7.037506104E0
2.722830670E-1,-3.214111328E-1,9.584777832E0,-7.052108765E0
2.773184670E-1,-3.008117676E-1,9.582473755E0,-7.011108398E0
2.823538680E-1,-2.848968506E-1,9.582855225E0,-7.031219482E0
2.873892680E-1,-3.230133057E-1,9.581787109E0,-7.039779663E0
2.924246680E-1,-3.273468018E-1,9.585693359E0,-7.065399170E0
2.974600690E-1,-3.258209229E-1,9.605499268E0,-7.071716309E0
3.024954690E-1,-3.349151611E-1,9.609725952E0,-7.026641846E0
3.075308700E-1,-3.203887939E-1,9.602706909E0,-7.009887695E0
3.125662700E-1,-3.275756836E-1,9.594345093E0,-7.027862549E0
3.176016700E-1,-3.417053223E-1,9.599517822E0,-7.015197754E0
3.226370710E-1,-3.539276123E-1,9.610000610E0,-7.035278320E0
3.276724710E-1,-3.491668701E-1,9.620880127E0,-7.052169800E0
3.327078720E-1,-3.238372803E-1,9.591827393E0,-7.027938843E0
3.377432720E-1,-3.298187256E-1,9.563659668E0,-7.016845703E0
3.427786720E-1,-3.377685547E-1,9.557617188E0,-7.048385620E0
3.478140730E-1,-3.140716553E-1,9.571899414E0,-7.042373657E0
3.528494730E-1,-2.948608398E-1,9.600402832E0,-7.032882690E0
3.578848740E-1,-2.756500244E-1,9.608734131E0,-7.015090942E0
3.629202740E-1,-3.069152832E-1,9.594635010E0,-7.010070801E0
3.679556740E-1,-3.168640137E-1,9.579772949E0,-7.040985107E0
3.729910750E-1,-3.044738770E-1,9.594741821E0,-7.036987305E0
3.780264750E-1,-3.366546631E-1,9.611740112E0,-7.023406982E0
3.830618750E-1,-3.223114014E-1,9.626403809E0,-7.044937134E0
3.880972760E-1,-3.221740723E-1,9.622360229E0,-7.060501099E0
3.931326760E-1,-3.297882080E-1,9.615173340E0,-7.034469604E0
3.981680770E-1,-3.373718262E-1,9.610244751E0,-7.032302856E0
4.032034770E-1,-3.219146729E-1,9.600662231E0,-7.050338745E0
4.082388770E-1,-2.924804688E-1,9.588043213E0,-7.042190552E0
4.132742780E-1,-2.913360596E-1,9.608688354E0,-7.034317017E0
4.183096780E-1,-3.217773438E-1,9.604797363E0,-7.029693604E0
4.233450790E-1,-3.251495361E-1,9.605621338E0,-7.038101196E0
4.283804790E-1,-3.130950928E-1,9.601852417E0,-7.054901123E0
4.334158790E-1,-3.051147461E-1,9.581100464E0,-7.058898926E0
4.384512800E-1,-3.157196045E-1,9.553817749E0,-7.079193115E0
4.434866800E-1,-3.347625732E-1,9.603027344E0,-7.046936035E0
4.485220810E-1,-2.980499268E-1,9.638626099E0,-7.030456543E0
4.535574810E-1,-3.175811768E-1,9.615432739E0,-7.057113647E0
4.585928810E-1,-3.286132812E-1,9.588928223E0,-7.047256470E0
4.636282820E-1,-3.386230469E-1,9.575897217E0,-7.025283813E0
4.686636820E-1,-3.258056641E-1,9.594161987E0,-7.063568115E0
4.736990820E-1,-3.211822510E-1,9.598312378E0,-7.065490723E0
4.787344830E-1,-3.501281738E-1,9.600616455E0,-7.074661255E0
4.837698830E-1,-3.365325928E-1,9.601837158E0,-7.018463135E0
4.888052840E-1,-3.416442871E-1,9.609085083E0,-7.042144775E0
4.938406840E-1,-3.106384277E-1,9.609512329E0,-7.004211426E0
4.988760840E-1,-2.817993164E-1,9.610824585E0,-7.028091431E0
5.039114850E-1,-3.027801514E-1,9.616973877E0,-7.035324097E0
5.089468850E-1,-3.345794678E-1,9.603302002E0,-7.058990479E0
5.139822860E-1,-3.331756592E-1,9.607116699E0,-7.032684326E0
5.190176860E-1,-3.293914795E-1,9.610900879E0,-6.997756958E0
5.240530860E-1,-3.171997070E-1,9.593734741E0,-7.030593872E0
5.290884870E-1,-3.462371826E-1,9.613616943E0,-7.100265503E0
5.341238870E-1,-3.487701416E-1,9.590652466E0,-7.061157227E0
5.391592880E-1,-3.319549561E-1,9.567138672E0,-7.026931763E0
5.441946880E-1,-3.451843262E-1,9.596221924E0,-7.048797607E0
5.492300880E-1,-3.172912598E-1,9.622299194E0,-7.032882690E0
5.542654890E-1,-3.413085938E-1,9.633926392E0,-7.025405884E0
5.593008890E-1,-3.414306641E-1,9.637237549E0,-7.068679810E0
5.643362900E-1,-3.429412842E-1,9.593338013E0,-7.030578613E0
5.693716900E-1,-3.305053711E-1,9.623565674E0,-7.067169189E0
5.744070900E-1,-3.160552979E-1,9.589370728E0,-7.040191650E0
5.794424910E-1,-2.973632812E-1,9.611114502E0,-7.023712158E0
5.844778910E-1,-3.304443359E-1,9.600662231E0,-7.050704956E0
5.895132910E-1,-2.962188721E-1,9.645751953E0,-7.068786621E0
5.945486920E-1,-3.176574707E-1,9.631668091E0,-7.056686401E0
5.995840920E-1,-2.926025391E-1,9.610275269E0,-7.022201538E0
6.046194930E-1,-3.180236816E-1,9.622558594E0,-7.006439209E0
6.096548930E-1,-3.536071777E-1,9.600463867E0,-7.069549561E0
6.146902930E-1,-3.207244873E-1,9.576522827E0,-6.985244751E0
6.197256940E-1,-3.588867188E-1,9.631378174E0,-7.056243896E0
6.247610940E-1,-3.388519287E-1,9.602401733E0,-7.069793701E0
6.297964950E-1,-3.125915527E-1,9.622985840E0,-7.046508789E0
6.348318950E-1,-3.075103760E-1,9.594696045E0,-7.067642212E0
6.398672950E-1,-2.934722900E-1,9.585205078E0,-7.034271240E0
6.449026960E-1,-3.311767578E-1,9.593063354E0,-7.026824951E0
6.499380960E-1,-3.184356689E-1,9.653671265E0,-7.000289917E0
6.549734970E-1,-2.801818848E-1,9.631027222E0,-7.065460205E0
6.600088970E-1,-3.180999756E-1,9.577926636E0,-6.999557495E0
6.650442970E-1,-2.849884033E-1,9.634277344E0,-7.085861206E0
6.700796980E-1,-3.096313477E-1,9.574676514E0,-7.070404053E0
6.751150980E-1,-3.063049316E-1,9.638015747E0,-7.072189331E0
6.801504990E-1,-3.260955811E-1,9.605484009E0,-6.997619629E0
6.851858990E-1,-3.475341797E-1,9.568527222E0,-7.016021729E0
6.902212990E-1,-3.183441162E-1,9.643234253E0,-7.026824951E0
6.952567000E-1,-3.537902832E-1,9.555328369E0,-7.045333862E0
7.002921000E-1,-3.204193115E-1,9.589538574E0,-7.019989014E0
7.053275000E-1,-3.250579834E-1,9.603530884E0,-7.060501099E0
7.103629010E-1,-3.062896729E-1,9.582229614E0,-7.055313110E0
7.153983010E-1,-3.715820312E-1,9.599151611E0,-7.028335571E0
7.204337020E-1,-3.238372803E-1,9.626663208E0,-7.075195312E0
7.254691020E-1,-3.236083984E-1,9.614135742E0,-7.039031982E0
7.305045020E-1,-3.280792236E-1,9.592559814E0,-7.062255859E0
7.355399030E-1,-3.055877686E-1,9.606216431E0,-7.057601929E0
7.405753030E-1,-3.399200439E-1,9.604614258E0,-7.109085083E0
7.456107040E-1,-3.114471436E-1,9.602844238E0,-7.068878174E0
7.506461040E-1,-3.108367920E-1,9.593444824E0,-7.071044922E0
7.556815040E-1,-3.251647949E-1,9.627670288E0,-7.057525635E0
7.607169050E-1,-3.184661865E-1,9.599884033E0,-7.067596436E0
7.657523050E-1,-3.181304932E-1,9.586181641E0,-7.059921265E0
7.707877060E-1,-3.287048340E-1,9.635681152E0,-7.123886108E0
7.758231060E-1,-3.151245117E-1,9.630020142E0,-7.069473267E0
7.808585060E-1,-3.037109375E-1,9.609207153E0,-7.049316406E0
7.858939070E-1,-3.158264160E-1,9.618087769E0,-6.996047974E0
7.909293070E-1,-3.253631592E-1,9.595291138E0,-7.020629883E0
7.959647070E-1,-3.334045410E-1,9.604431152E0,-7.020965576E0
8.010001080E-1,-3.159942627E-1,9.631378174E0,-7.007080078E0
8.060355080E-1,-3.371124268E-1,9.643142700E0,-7.053665161E0
8.110709090E-1,-3.166809082E-1,9.632781982E0,-7.081787109E0
8.161063090E-1,-3.259735107E-1,9.621627808E0,-7.039077759E0
8.211417090E-1,-3.303985596E-1,9.601089478E0,-7.037643433E0
8.261771100E-1,-3.184967041E-1,9.606613159E0,-7.037963867E0
8.312125100E-1,-3.248138428E-1,9.590454102E0,-7.029602051E0
8.362479110E-1,-3.251647949E-1,9.598754883E0,-7.008453369E0
8.412833110E-1,-3.036041260E-1,9.597824097E0,-7.017776489E0
8.463187110E-1,-2.958526611E-1,9.608154297E0,-7.010559082E0
8.513541120E-1,-3.396301270E-1,9.598266602E0,-7.052062988E0
8.563895120E-1,-3.569488525E-1,9.587921143E0,-7.016403198E0
8.614249130E-1,-3.199462891E-1,9.591842651E0,-7.038604736E0
8.664603130E-1,-3.224487305E-1,9.582794189E0,-7.045578003E0
8.714957130E-1,-2.956085205E-1,9.588272095E0,-7.060501099E0
8.765311140E-1,-3.165130615E-1,9.598922729E0,-7.057235718E0
8.815665140E-1,-3.289184570E-1,9.599929810E0,-7.060089111E0
8.866019150E-1,-3.587799072E-1,9.601928711E0,-7.030090332E0
8.916373150E-1,-3.465576172E-1,9.626846313E0,-7.036300659E0
8.966727150E-1,-3.061218262E-1,9.635559082E0,-7.043136597E0
9.017081160E-1,-3.242492676E-1,9.603424072E0,-7.038284302E0
9.067435160E-1,-3.263397217E-1,9.587829590E0,-7.051071167E0
9.117789160E-1,-3.105926514E-1,9.604507446E0,-7.050994873E0
9.168143170E-1,-3.092956543E-1,9.611679077E0,-7.014862061E0
9.218497170E-1,-3.192596436E-1,9.597854614E0,-7.044448853E0
9.268851180E-1,-3.353881836E-1,9.595153809E0,-7.046356201E0
9.319205180E-1,-3.274383545E-1,9.595489502E0,-7.023376465E0
9.369559180E-1,-3.097686768E-1,9.597244263E0,-7.036560059E0
9.419913190E-1,-3.122711182E-1,9.611358643E0,-7.041458130E0
9.470267190E-1,-3.183593750E-1,9.611068726E0,-7.027023315E0
9.520621200E-1,-3.228149414E-1,9.589996338E0,-7.025085449E0
9.570975200E-1,-3.033142090E-1,9.584823608E0,-7.034317017E0
9.621329200E-1,-2.996978760E-1,9.593185425E0,-7.044418335E0
9.671683210E-1,-2.985229492E-1,9.582168579E0,-7.031509399E0
9.722037210E-1,-3.222045898E-1,9.595321655E0,-7.003738403E0
9.772391220E-1,-3.321380615E-1,9.648345947E0,-7.041137695E0
9.822812770E-1,-3.274841309E-1,9.640274048E0,-7.070434570E0
9.873166770E-1,-3.377990723E-1,9.622589111E0,-7.017501831E0
9.923520780E-1,-3.160247803E-1,9.602188110E0,-7.012283325E0
9.973874780E-1,-3.176269531E-1,9.601989746E0,-7.028701782E0
1.002422879E0,-3.412780762E-1,9.585281372E0,-7.040435791E0
1.007458279E0,-3.422393799E-1,9.597732544E0,-7.046661377E0
1.012493679E0,-3.267822266E-1,9.595123291E0,-7.040908813E0
1.017529080E0,-3.031311035E-1,9.590774536E0,-7.044998169E0
1.022564480E0,-3.052673340E-1,9.595565796E0,-7.036560059E0
1.027599880E0,-3.412322998E-1,9.574874878E0,-7.043258667E0
1.032635281E0,-3.451995850E-1,9.596054077E0,-7.043273926E0
1.037670681E0,-3.165893555E-1,9.605911255E0,-7.032821655E0
1.042706082E0,-3.193817139E-1,9.595504761E0,-7.027969360E0
1.047741482E0,-3.329467773E-1,9.601882935E0,-7.067077637E0
1.052776882E0,-3.184661865E-1,9.609786987E0,-7.072265625E0
1.057812283E0,-3.180541992E-1,9.598297119E0,-7.039154053E0
1.062847683E0,-3.499298096E-1,9.597274780E0,-7.025512695E0
1.067883084E0,-3.236389160E-1,9.599456787E0,-7.038223267E0
1.072918484E0,-3.126068115E-1,9.613037109E0,-7.060806274E0
1.077953884E0,-3.180847168E-1,9.606506348E0,-7.031661987E0
1.082989285E0,-3.125152588E-1,9.619094849E0,-7.041824341E0
1.088024685E0,-3.326721191E-1,9.606353760E0,-7.033447266E0
1.093060086E0,-3.390655518E-1,9.601226807E0,-7.041336060E0
1.098095486E0,-3.081054688E-1,9.592910767E0,-7.010513306E0
1.103130886E0,-3.161010742E-1,9.615280151E0,-7.045684814E0
1.108166287E0,-3.199768066E-1,9.612274170E0,-7.049514771E0
1.113201687E0,-3.286895752E-1,9.612686157E0,-7.040649414E0
1.118237087E0,-2.845153809E-1,9.606246948E0,-7.061538696E0
1.123272488E0,-2.963409424E-1,9.585342407E0,-7.046875000E0
1.128307888E0,-2.932434082E-1,9.586105347E0,-7.045257568E0
1.133343289E0,-3.255462646E-1,9.606826782E0,-7.028869629E0
1.138378689E0,-3.492584229E-1,9.621078491E0,-7.036453247E0
1.143414089E0,-3.054351807E-1,9.607482910E0,-6.993728638E0
1.148449490E0,-3.353881836E-1,9.602218628E0,-7.059890747E0
1.153484890E0,-3.532409668E-1,9.583801270E0,-7.062759399E0
1.158520291E0,-3.248596191E-1,9.608657837E0,-7.006027222E0
1.163555691E0,-2.948913574E-1,9.593292236E0,-7.022796631E0
1.168591091E0,-3.032226562E-1,9.608474731E0,-7.043655396E0
1.173626492E0,-3.155822754E-1,9.577941895E0,-7.031600952E0
1.178661892E0,-3.106842041E-1,9.588088989E0,-7.059188843E0
1.183697293E0,-3.333740234E-1,9.574996948E0,-7.056472778E0
1.188732693E0,-3.274841309E-1,9.590454102E0,-7.025665283E0
1.193768093E0,-3.200378418E-1,9.601013184E0,-7.002822876E0
1.198803494E0,-3.150329590E-1,9.623748779E0,-7.047012329E0
1.203838894E0,-3.455505371E-1,9.599151611E0,-7.002441406E0
1.208874295E0,-3.124542236E-1,9.610397339E0,-7.067443848E0
1.213909695E0,-3.188323975E-1,9.589004517E0,-7.054519653E0
1.218945095E0,-3.284149170E-1,9.643783569E0,-7.060104370E0
1.223980496E0,-3.016052246E-1,9.635665894E0,-7.055938721E0
1.229015896E0,-3.691711426E-1,9.619094849E0,-7.076370239E0
1.234051296E0,-3.625030518E-1,9.553482056E0,-7.063217163E0
1.239086697E0,-3.155364990E-1,9.575210571E0,-7.062881470E0
1.244122097E0,-3.264160156E-1,9.587402344E0,-7.074630737E0
1.249157498E0,-3.431243896E-1,9.578079224E0,-7.070037842E0
1.254192898E0,-3.385009766E-1,9.578109741E0,-7.026947021E0
1.259228298E0,-3.446044922E-1,9.592483521E0,-6.993209839E0
1.264263699E0,-2.916717529E-1,9.601593018E0,-7.085632324E0
1.269299099E0,-3.250579834E-1,9.592575073E0,-7.044433594E0
1.274334500E0,-3.468627930E-1,9.599044800E0,-7.063339233E0
1.279369900E0,-3.216857910E-1,9.590972900E0,-7.122817993E0
1.284405300E0,-3.198547363E-1,9.612945557E0,-7.043426514E0
1.289440701E0,-3.259277344E-1,9.637695312E0,-7.103027344E0
1.294476101E0,-3.162384033E-1,9.636535645E0,-6.997802734E0
1.299511502E0,-3.062744141E-1,9.587280273E0,-6.996139526E0
1.304546902E0,-3.173828125E-1,9.559646606E0,-7.100433350E0
1.309582302E0,-2.997741699E-1,9.592742920E0,-7.040542603E0
1.314617703E0,-3.371429443E-1,9.595581055E0,-7.016265869E0
1.319653103E0,-3.090515137E-1,9.581481934E0,-7.086685181E0
1.324688504E0,-3.361206055E-1,9.574768066E0,-7.082794189E0
1.329723904E0,-3.031158447E-1,9.604812622E0,-7.052139282E0
1.334759304E0,-3.192443848E-1,9.603546143E0,-7.049255371E0
1.339794705E0,-3.097686768E-1,9.573852539E0,-7.080291748E0
1.344830105E0,-3.467559814E-1,9.606231689E0,-7.052917480E0
1.349865505E0,-3.150177002E-1,9.607742310E0,-7.027679443E0
1.354900906E0,-3.253326416E-1,9.619613647E0,-6.988769531E0
1.359936306E0,-3.146514893E-1,9.594284058E0,-7.023986816E0
1.364971707E0,-3.473052979E-1,9.611724854E0,-7.043319702E0
1.370007107E0,-3.309173584E-1,9.589981079E0,-7.082672119E0
1.375042507E0,-3.175048828E-1,9.589035034E0,-7.030944824E0
1.380077908E0,-3.089141846E-1,9.620788574E0,-7.017990112E0
1.385113308E0,-3.117370605E-1,9.609313965E0,-7.062332153E0
1.390148709E0,-3.371276855E-1,9.603912354E0,-7.077270508E0
1.395184109E0,-3.348999023E-1,9.617294312E0,-7.041671753E0
1.400219509E0,-3.191833496E-1,9.631301880E0,-7.029220581E0
1.405254910E0,-3.331146240E-1,9.603805542E0,-7.027984619E0
1.410290310E0,-3.361053467E-1,9.581604004E0,-7.070587158E0
1.415325711E0,-3.328857422E-1,9.592025757E0,-7.046875000E0
1.420361111E0,-2.926483154E-1,9.604965210E0,-7.017822266E0
1.425396511E0,-3.242645264E-1,9.587554932E0,-7.027420044E0
1.430431912E0,-3.336791992E-1,9.579360962E0,-7.028167725E0
1.435467312E0,-3.266143799E-1,9.567337036E0,-7.020553589E0
1.440502712E0,-3.605804443E-1,9.586120605E0,-7.046936035E0
1.445538113E0,-3.367156982E-1,9.585754395E0,-7.064514160E0
1.450573513E0,-3.193054199E-1,9.590805054E0,-7.044754028E0
1.455608914E0,-3.303680420E-1,9.595291138E0,-7.035156250E0
1.460644314E0,-3.352355957E-1,9.605758667E0,-7.075439453E0
1.465679714E0,-3.104858398E-1,9.606887817E0,-7.036743164E0
1.470715115E0,-2.965698242E-1,9.632888794E0,-7.051437378E0
1.475750515E0,-3.130340576E-1,9.620407104E0,-7.040893555E0
1.480785916E0,-3.417663574E-1,9.598632812E0,-6.998657227E0
1.485821316E0,-3.368682861E-1,9.608413696E0,-7.039169312E0
1.490856716E0,-3.043365479E-1,9.589492798E0,-7.058715820E0
1.495892117E0,-3.109436035E-1,9.577911377E0,-7.013641357E0
1.500927517E0,-3.032379150E-1,9.600357056E0,-7.010467529E0
1.505962918E0,-3.178863525E-1,9.617416382E0,-7.053329468E0
1.510998318E0,-3.392791748E-1,9.607986450E0,-7.052719116E0
1.516033718E0,-3.327026367E-1,9.614608765E0,-7.035171509E0
1.521069119E0,-3.180389404E-1,9.634826660E0,-7.080566406E0
1.526104519E0,-3.024597168E-1,9.631378174E0,-7.053817749E0
1.531139920E0,-3.178558350E-1,9.623001099E0,-7.031173706E0
1.536175320E0,-3.380279541E-1,9.637542725E0,-7.057464600E0
1.541210720E0,-3.465270996E-1,9.597824097E0,-7.061996460E0
1.546246121E0,-3.302459717E-1,9.569717407E0,-7.071426392E0
1.551281521E0,-3.223266602E-1,9.604736328E0,-7.053970337E0
1.556316921E0,-3.465881348E-1,9.612747192E0,-7.048355103E0
1.561352322E0,-3.574829102E-1,9.606567383E0,-7.044006348E0
1.566387722E0,-3.491668701E-1,9.604217529E0,-7.047409058E0
1.571423123E0,-3.214874268E-1,9.603088379E0,-7.041015625E0
1.576458523E0,-3.150024414E-1,9.633728027E0,-7.050949097E0
1.581493923E0,-3.004608154E-1,9.625259399E0,-7.066940308E0
1.586529324E0,-2.738647461E-1,9.617553711E0,-7.026672363E0
1.591564724E0,-3.017272949E-1,9.610412598E0,-7.036956787E0
1.596600125E0,-3.080444336E-1,9.611053467E0,-7.084854126E0
1.601635525E0,-3.067016602E-1,9.614547729E0,-7.042846680E0
1.606670925E0,-3.086700439E-1,9.597793579E0,-6.992187500E0
1.611706326E0,-3.222045898E-1,9.591964722E0,-7.013641357E0
1.616741726E0,-3.190460205E-1,9.599639893E0,-7.020828247E0
1.621777127E0,-3.051300049E-1,9.591110229E0,-7.041046143E0
1.626812527E0,-3.165130615E-1,9.603164673E0,-7.023513794E0
1.631847927E0,-3.574371338E-1,9.611267090E0,-7.005828857E0
1.636883328E0,-3.481445312E-1,9.615386963E0,-7.020767212E0
1.641918728E0,-3.096923828E-1,9.609024048E0,-7.019760132E0
1.646954129E0,-2.979888916E-1,9.607803345E0,-7.016754150E0
1.651989529E0,-3.163299561E-1,9.600646973E0,-7.026809692E0
1.657024929E0,-3.327789307E-1,9.576049805E0,-7.041244507E0
1.662060330E0,-3.329925537E-1,9.580062866E0,-7.009048462E0
1.667095730E0,-3.313140869E-1,9.612854004E0,-7.006484985E0
1.672131130E0,-3.345489502E-1,9.607910156E0,-7.042648315E0
1.677166531E0,-3.344726562E-1,9.591369629E0,-7.046035767E0
1.682201931E0,-3.696899414E-1,9.602264404E0,-7.025100708E0
1.687237332E0,-3.331146240E-1,9.618896484E0,-7.050735474E0
1.692272732E0,-3.048858643E-1,9.579849243E0,-7.051895142E0
1.697308132E0,-3.010559082E-1,9.580001831E0,-7.037734985E0
1.702343533E0,-3.312072754E-1,9.609817505E0,-7.025741577E0
1.707378933E0,-3.276824951E-1,9.604675293E0,-7.024139404E0
1.712414334E0,-3.025207520E-1,9.599456787E0,-7.040557861E0
1.717449734E0,-3.274841309E-1,9.599456787E0,-7.028503418E0
1.722485134E0,-3.206024170E-1,9.620880127E0,-7.008132935E0
1.727520535E0,-3.218994141E-1,9.602661133E0,-7.106582642E0
1.732555935E0,-3.314971924E-1,9.603836060E0,-7.087844849E0
1.737591336E0,-3.263244629E-1,9.595535278E0,-7.039215088E0
1.742626736E0,-3.354034424E-1,9.581085205E0,-7.070678711E0
1.747662136E0,-3.535614014E-1,9.628967285E0,-7.066818237E0
1.752697537E0,-3.384857178E-1,9.613769531E0,-7.059066772E0
1.757732937E0,-3.221435547E-1,9.589248657E0,-7.040771484E0
1.762768337E0,-3.388671875E-1,9.583221436E0,-7.040573120E0
1.767803738E0,-3.549804688E-1,9.578872681E0,-7.029693604E0
1.772839138E0,-3.714141846E-1,9.589935303E0,-7.035110474E0
1.777874539E0,-3.220977783E-1,9.568267822E0,-7.050704956E0
1.782909939E0,-3.284149170E-1,9.614181519E0,-7.093704224E0
1.787945339E0,-3.353881836E-1,9.588714600E0,-7.025772095E0
1.792980740E0,-3.401947021E-1,9.623962402E0,-7.056121826E0
1.798016140E0,-2.951812744E-1,9.613784790E0,-7.067031860E0
1.803051541E0,-3.219146729E-1,9.598815918E0,-7.050918579E0
1.808086941E0,-3.223266602E-1,9.630950928E0,-7.054946899E0
1.813122341E0,-3.345947266E-1,9.643692017E0,-7.017333984E0
1.818157742E0,-3.339385986E-1,9.606002808E0,-7.010742188E0
1.823193142E0,-3.077545166E-1,9.597503662E0,-6.997528076E0
1.828228543E0,-2.876129150E-1,9.614593506E0,-7.068511963E0
1.833263943E0,-3.434600830E-1,9.594055176E0,-7.026245117E0
1.838299343E0,-3.213348389E-1,9.590087891E0,-7.042388916E0
1.843334744E0,-3.149261475E-1,9.625915527E0,-7.032592773E0
1.848370144E0,-3.395690918E-1,9.582733154E0,-7.036453247E0
1.853405545E0,-3.362884521E-1,9.607757568E0,-7.018463135E0
1.858440945E0,-3.014678955E-1,9.608978271E0,-7.045333862E0
1.863476345E0,-3.305664062E-1,9.627548218E0,-7.057815552E0
1.868511746E0,-3.383331299E-1,9.621002197E0,-7.046432495E0
1.873547146E0,-3.314056396E-1,9.613815308E0,-7.043853760E0
1.878582546E0,-3.241729736E-1,9.620880127E0,-7.029556274E0
1.883617947E0,-3.359222412E-1,9.604187012E0,-7.102767944E0
1.888653347E0,-3.107299805E-1,9.598968506E0,-7.010543823E0
1.893688748E0,-3.544921875E-1,9.573318481E0,-7.013702393E0
1.898724148E0,-3.291625977E-1,9.576156616E0,-7.046142578E0
1.903759548E0,-3.361663818E-1,9.594406128E0,-7.044876099E0
1.908794949E0,-3.369598389E-1,9.646774292E0,-7.071807861E0
1.913830349E0,-3.072509766E-1,9.594955444E0,-7.062194824E0
1.918865750E0,-3.052368164E-1,9.601638794E0,-7.087646484E0
1.923901150E0,-3.406066895E-1,9.632888794E0,-7.031112671E0
1.928936550E0,-3.060150146E-1,9.608169556E0,-7.049468994E0
1.933971951E0,-2.911376953E-1,9.650512695E0,-7.032546997E0
1.939007351E0,-3.191833496E-1,9.611587524E0,-7.046264648E0
1.944042752E0,-3.150634766E-1,9.615707397E0,-7.104965210E0
1.949078152E0,-2.993164062E-1,9.628829956E0,-7.038528442E0
1.954113552E0,-3.087310791E-1,9.597946167E0,-7.054519653E0
1.959148953E0,-2.988586426E-1,9.604812622E0,-7.054946899E0
1.964184353E0,-2.910156250E-1,9.606109619E0,-7.017166138E0
1.969219754E0,-3.075103760E-1,9.595626831E0,-7.116882324E0
1.974255154E0,-3.129577637E-1,9.636535645E0,-7.076477051E0
1.979290554E0,-3.439788818E-1,9.584106445E0,-7.051528931E0
1.984325955E0,-3.423004150E-1,9.608383179E0,-7.071807861E0
1.989361355E0,-3.138122559E-1,9.575088501E0,-7.035568237E0
1.994396755E0,-3.081512451E-1,9.599945068E0,-7.039260864E0
1.999432156E0,-3.027038574E-1,9.620468140E0,-7.034194946E0
2.004467556E0,-3.127593994E-1,9.614715576E0,-7.052871704E0
2.009502957E0,-3.052215576E-1,9.629592896E0,-7.044021606E0
2.014538357E0,-2.767486572E-1,9.602066040E0,-7.031753540E0
2.019573757E0,-3.102722168E-1,9.615646362E0,-7.082458496E0
2.024609158E0,-3.344116211E-1,9.624847412E0,-7.074859619E0
2.029644558E0,-3.208160400E-1,9.601943970E0,-7.038604736E0
2.034679959E0,-3.009643555E-1,9.588745117E0,-7.030746460E0
2.039715359E0,-3.152008057E-1,9.595367432E0,-7.052047729E0
2.044750759E0,-3.220367432E-1,9.606765747E0,-7.042083740E0
2.049786160E0,-3.440246582E-1,9.607849121E0,-7.044479370E0
2.054821560E0,-3.173522949E-1,9.595672607E0,-7.053604126E0
2.059856961E0,-3.241729736E-1,9.609085083E0,-7.062637329E0
2.064892361E0,-3.241729736E-1,9.610916138E0,-7.030532837E0
2.069927761E0,-3.263702393E-1,9.591201782E0,-7.031677246E0
2.074963162E0,-3.290557861E-1,9.597183228E0,-7.060668945E0
2.079998562E0,-3.180236816E-1,9.587692261E0,-7.021560669E0
2.085033962E0,-2.996215820E-1,9.588272095E0,-7.027160645E0
2.090069363E0,-3.096008301E-1,9.600845337E0,-7.045745850E0
2.095104763E0,-3.363037109E-1,9.588470459E0,-7.069915771E0
2.100140164E0,-3.098907471E-1,9.608245850E0,-7.036453247E0
2.105175564E0,-3.151245117E-1,9.623199463E0,-6.993026733E0
2.110210964E0,-3.303833008E-1,9.603042603E0,-7.023178101E0
2.115246365E0,-3.326873779E-1,9.576248169E0,-7.035919189E0
2.120281765E0,-3.409118652E-1,9.568481445E0,-7.048904419E0
2.125317166E0,-3.415985107E-1,9.616638184E0,-7.066467285E0
2.130352566E0,-3.186798096E-1,9.622146606E0,-7.018203735E0
2.135387966E0,-3.370971680E-1,9.610733032E0,-7.029418945E0
2.140423367E0,-3.132934570E-1,9.618789673E0,-7.020782471E0
2.145458767E0,-3.136291504E-1,9.611450195E0,-7.014770508E0
2.150494168E0,-3.081054688E-1,9.605484009E0,-7.027572632E0
2.155529568E0,-3.281860352E-1,9.608932495E0,-7.030899048E0
2.160564968E0,-3.609619141E-1,9.568939209E0,-7.067398071E0
2.165600369E0,-3.379974365E-1,9.562637329E0,-7.031341553E0
2.170635769E0,-3.020782471E-1,9.582595825E0,-7.024795532E0
2.175671170E0,-3.000640869E-1,9.605453491E0,-7.052505493E0
2.180706570E0,-3.226165771E-1,9.592605591E0,-7.030364990E0
2.185741970E0,-3.114166260E-1,9.589813232E0,-7.029754639E0
2.190777371E0,-2.813262939E-1,9.597076416E0,-7.025985718E0
2.195812771E0,-2.947082520E-1,9.586196899E0,-7.035430908E0
2.200848171E0,-3.222351074E-1,9.580490112E0,-7.061538696E0
2.205883572E0,-3.161163330E-1,9.580276489E0,-7.056411743E0
2.210918972E0,-3.105926514E-1,9.593353271E0,-7.036102295E0
2.215954373E0,-3.155517578E-1,9.622085571E0,-7.027038574E0
2.220989773E0,-3.280487061E-1,9.636474609E0,-7.064147949E0
2.226025173E0,-3.328247070E-1,9.648223877E0,-7.070999146E0
2.231060574E0,-3.265533447E-1,9.609329224E0,-7.034378052E0
2.236095974E0,-3.361663818E-1,9.589736938E0,-7.023056030E0
2.241131375E0,-3.488006592E-1,9.593475342E0,-7.039535522E0
2.246166775E0,-3.386688232E-1,9.591766357E0,-7.054763794E0
2.251202175E0,-3.217926025E-1,9.594696045E0,-7.052871704E0
2.256237576E0,-3.199462891E-1,9.574371338E0,-7.088714600E0
2.261272976E0,-3.408508301E-1,9.562835693E0,-7.065948486E0
2.266308377E0,-3.393402100E-1,9.600982666E0,-7.070953369E0
2.271343777E0,-3.104400635E-1,9.600891113E0,-7.058624268E0
2.276379177E0,-3.388519287E-1,9.573928833E0,-7.048156738E0
2.281414578E0,-3.328552246E-1,9.578506470E0,-7.031677246E0
2.286449978E0,-3.045043945E-1,9.582031250E0,-7.070190430E0
2.291485379E0,-2.869262695E-1,9.580413818E0,-7.020263672E0
2.296520779E0,-2.925720215E-1,9.598083496E0,-7.036560059E0
2.301556179E0,-3.288879395E-1,9.608215332E0,-7.051498413E0
2.306591580E0,-3.399505615E-1,9.592575073E0,-7.105255127E0
2.311626980E0,-3.318023682E-1,9.585174561E0,-7.061981201E0
2.316662380E0,-3.306274414E-1,9.610427856E0,-7.026870728E0
2.321697781E0,-3.586578369E-1,9.617462158E0,-7.043579102E0
2.326733181E0,-3.314056396E-1,9.612655640E0,-7.042343140E0
2.331768582E0,-3.170318604E-1,9.616577148E0,-7.033843994E0
2.336803982E0,-3.400115967E-1,9.609649658E0,-7.024856567E0
2.341839382E0,-3.336944580E-1,9.606597900E0,-7.054550171E0
2.346874783E0,-3.307342529E-1,9.575988770E0,-6.982467651E0
2.351910183E0,-3.440246582E-1,9.606033325E0,-7.030136108E0
2.356945584E0,-3.498229980E-1,9.605606079E0,-7.079116821E0
2.361980984E0,-3.447875977E-1,9.635269165E0,-7.029083252E0
2.367016384E0,-3.582000732E-1,9.622207642E0,-7.035354614E0
2.372051785E0,-3.375854492E-1,9.587631226E0,-7.016769409E0
2.377087185E0,-3.236541748E-1,9.586151123E0,-7.048828125E0
2.382122586E0,-3.391723633E-1,9.612640381E0,-7.060043335E0
2.387157986E0,-3.158264160E-1,9.577392578E0,-7.117248535E0
2.392193386E0,-3.355560303E-1,9.613906860E0,-7.068328857E0
2.397228787E0,-3.189697266E-1,9.657058716E0,-7.035842896E0
2.402264187E0,-3.287658691E-1,9.611328125E0,-7.048049927E0
2.407299587E0,-3.028717041E-1,9.595733643E0,-7.073318481E0
2.412334988E0,-3.348388672E-1,9.609008789E0,-7.079208374E0
2.417370388E0,-3.449859619E-1,9.648681641E0,-7.054656982E0
2.422405789E0,-3.393402100E-1,9.618667603E0,-7.038436890E0
2.427441189E0,-3.237304688E-1,9.598999023E0,-7.042999268E0
2.432476589E0,-3.665771484E-1,9.620529175E0,-7.033172607E0
2.437511990E0,-3.309783936E-1,9.573852539E0,-6.993255615E0
2.442547390E0,-3.179168701E-1,9.603103638E0,-6.969619751E0
2.447582791E0,-3.323669434E-1,9.630691528E0,-7.000518799E0
2.452618191E0,-3.403167725E-1,9.617324829E0,-7.047485352E0
2.457653591E0,-3.430633545E-1,9.638320923E0,-7.013214111E0
2.462688992E0,-3.094940186E-1,9.617431641E0,-7.028503418E0
2.467724392E0,-3.550720215E-1,9.588943481E0,-7.058990479E0
2.472759793E0,-3.028106689E-1,9.612609863E0,-7.110626221E0
2.477795193E0,-3.416595459E-1,9.547225952E0,-7.073883057E0
2.482830593E0,-3.385772705E-1,9.619003296E0,-7.000411987E0
2.487865994E0,-2.987365723E-1,9.597503662E0,-7.024307251E0
2.492901394E0,-3.003692627E-1,9.585235596E0,-7.083938599E0
2.497936795E0,-3.313140869E-1,9.594696045E0,-7.024795532E0
2.502972195E0,-2.932586670E-1,9.620635986E0,-7.024780273E0
2.508007595E0,-2.985229492E-1,9.583129883E0,-7.023086548E0
2.513042996E0,-3.404998779E-1,9.610427856E0,-7.075698853E0
2.518078396E0,-3.274383545E-1,9.573562622E0,-7.018005371E0
2.523113796E0,-3.524169922E-1,9.583404541E0,-7.029632568E0
2.528149197E0,-2.834167480E-1,9.599792480E0,-7.031112671E0
2.533184597E0,-3.248291016E-1,9.607116699E0,-7.016830444E0
2.538219998E0,-3.365173340E-1,9.615524292E0,-7.040466309E0
2.543255398E0,-3.456573486E-1,9.606063843E0,-6.993957520E0
2.548290798E0,-3.757934570E-1,9.600585938E0,-7.052719116E0
2.553326199E0,-3.631439209E-1,9.611892700E0,-7.019485474E0
2.558361599E0,-3.227233887E-1,9.591613770E0,-7.045578003E0
2.563397000E0,-3.276214600E-1,9.585662842E0,-7.093872070E0
2.568432400E0,-2.969360352E-1,9.591766357E0,-7.002502441E0
2.573467800E0,-3.080902100E-1,9.602005005E0,-7.081405640E0
2.578503201E0,-3.125610352E-1,9.574371338E0,-7.015380859E0
2.583538601E0,-3.197937012E-1,9.615600586E0,-7.067123413E0
2.588574002E0,-3.415374756E-1,9.598114014E0,-7.046142578E0
2.593609402E0,-2.848815918E-1,9.595535278E0,-7.028533936E0
2.598644802E0,-3.281555176E-1,9.557342529E0,-7.016021729E0
2.603680203E0,-3.241729736E-1,9.596649170E0,-7.058135986E0
2.608715603E0,-3.198242188E-1,9.602523804E0,-7.105163574E0
2.613751004E0,-2.985839844E-1,9.633941650E0,-7.023040771E0
2.618786404E0,-2.950286865E-1,9.615234375E0,-7.046218872E0
2.623821804E0,-3.103637695E-1,9.598953247E0,-7.030410767E0
2.628857205E0,-3.077239990E-1,9.596984863E0,-6.989501953E0
2.633892605E0,-3.338775635E-1,9.622329712E0,-7.065597534E0
2.638928005E0,-3.555908203E-1,9.591079712E0,-7.045211792E0
2.643963406E0,-3.391876221E-1,9.609695435E0,-7.052047729E0
2.648998806E0,-3.280029297E-1,9.604217529E0,-7.029647827E0
2.654034207E0,-3.134613037E-1,9.594100952E0,-7.033126831E0
2.659069607E0,-3.253936768E-1,9.566177368E0,-7.072570801E0
2.664105007E0,-3.201446533E-1,9.593994141E0,-7.078125000E0
2.669140408E0,-3.060607910E-1,9.632217407E0,-7.036270142E0
2.674175808E0,-3.357086182E-1,9.589752197E0,-7.037445068E0
2.679211209E0,-3.360443115E-1,9.606185913E0,-7.043640137E0
2.684246609E0,-3.234710693E-1,9.586837769E0,-7.082870483E0
2.689282009E0,-3.276062012E-1,9.595321655E0,-7.075912476E0
2.694317410E0,-3.371124268E-1,9.611785889E0,-7.076568604E0
2.699352810E0,-3.074035645E-1,9.596298218E0,-7.072357178E0
2.704388211E0,-2.795410156E-1,9.600173950E0,-7.020843506E0
2.709423611E0,-3.066253662E-1,9.596084595E0,-7.041748047E0
2.714459011E0,-2.933349609E-1,9.582672119E0,-7.073333740E0
2.719494412E0,-3.097839355E-1,9.605316162E0,-7.052246094E0
2.724529812E0,-3.408050537E-1,9.601989746E0,-7.081420898E0
2.729565212E0,-3.362579346E-1,9.610855103E0,-7.068527222E0
2.734600613E0,-3.048706055E-1,9.593521118E0,-7.007537842E0
2.739636013E0,-3.205566406E-1,9.602203369E0,-7.034423828E0
2.744671414E0,-3.289794922E-1,9.600936890E0,-7.054473877E0
2.749706814E0,-3.189086914E-1,9.595199585E0,-7.034881592E0
2.754742214E0,-3.215637207E-1,9.614257812E0,-7.019561768E0
2.759777615E0,-3.323211670E-1,9.606109619E0,-7.012985229E0
2.764813015E0,-3.286285400E-1,9.582382202E0,-7.052688599E0
2.769848416E0,-3.352813721E-1,9.603179932E0,-7.057922363E0
2.774883816E0,-3.368530273E-1,9.593353271E0,-7.073196411E0
2.779919216E0,-3.213653564E-1,9.600082397E0,-7.090118408E0
2.784954617E0,-3.111114502E-1,9.610946655E0,-7.074829102E0
2.789990017E0,-3.099975586E-1,9.597213745E0,-7.051361084E0
2.795025418E0,-3.164825439E-1,9.578842163E0,-7.047134399E0
2.800060818E0,-3.016052246E-1,9.579711914E0,-7.045516968E0
2.805096218E0,-3.155670166E-1,9.586593628E0,-7.026702881E0
2.810131619E0,-3.301239014E-1,9.568511963E0,-7.041458130E0
2.815167019E0,-3.131866455E-1,9.601318359E0,-7.062255859E0
2.820202420E0,-3.202056885E-1,9.620269775E0,-7.030776978E0
2.825237820E0,-3.370971680E-1,9.595474243E0,-7.043167114E0
2.830273220E0,-3.209991455E-1,9.588821411E0,-7.049545288E0
2.835308621E0,-3.241119385E-1,9.604141235E0,-7.046218872E0
2.840344021E0,-3.282012939E-1,9.608230591E0,-7.034378052E0
2.845379421E0,-3.324890137E-1,9.627197266E0,-7.060836792E0
2.850414822E0,-3.394927979E-1,9.616012573E0,-7.066116333E0
2.855450222E0,-3.274841309E-1,9.621139526E0,-7.034866333E0
2.860485623E0,-3.319549561E-1,9.617218018E0,-7.030364990E0
2.865521023E0,-3.394317627E-1,9.593811035E0,-7.039947510E0
2.870556423E0,-3.212890625E-1,9.605667114E0,-7.019500732E0
2.875591824E0,-3.200531006E-1,9.582733154E0,-7.006271362E0
2.880627224E0,-3.338012695E-1,9.565704346E0,-7.050125122E0
2.885662625E0,-3.458557129E-1,9.595123291E0,-7.078628540E0
2.890698025E0,-3.548889160E-1,9.609848022E0,-7.062927246E0
2.895733425E0,-3.651275635E-1,9.602874756E0,-7.024398804E0
2.900768826E0,-3.554687500E-1,9.582427979E0,-7.026702881E0
2.905804226E0,-3.338775635E-1,9.574829102E0,-6.991226196E0
2.910839627E0,-3.360595703E-1,9.564575195E0,-6.948669434E0
2.915875027E0,-3.456573486E-1,9.562194824E0,-6.974441528E0
2.920910427E0,-3.431091309E-1,9.573501587E0,-6.952453613E0
2.925945828E0,-3.473968506E-1,9.576385498E0,-6.926132202E0
2.930981228E0,-3.470306396E-1,9.587295532E0,-6.974044800E0
2.936016629E0,-3.860168457E-1,9.592315674E0,-6.940658569E0
2.941052029E0,-3.687744141E-1,9.583816528E0,-6.922760010E0
2.946087429E0,-4.051055908E-1,9.585571289E0,-6.880004883E0
2.951122830E0,-3.945465088E-1,9.610183716E0,-6.864669800E0
2.956158230E0,-3.801727295E-1,9.622009277E0,-6.900421143E0
2.961193630E0,-3.522033691E-1,9.623260498E0,-6.898651123E0
2.966229031E0,-3.756256104E-1,9.581863403E0,-6.919067383E0
2.971264431E0,-3.987731934E-1,9.610229492E0,-6.909042358E0
2.976299832E0,-3.696136475E-1,9.610366821E0,-6.850021362E0
2.981335232E0,-3.970489502E-1,9.578720093E0,-6.888229370E0
2.986370632E0,-3.906402588E-1,9.595230103E0,-6.847213745E0
2.991406033E0,-4.012603760E-1,9.573348999E0,-6.898422241E0
2.996441433E0,-4.070281982E-1,9.604446411E0,-6.905715942E0
3.001476834E0,-4.094238281E-1,9.619522095E0,-6.820373535E0
3.006512234E0,-4.273834229E-1,9.587814331E0,-6.793258667E0
3.011547634E0,-4.470672607E-1,9.566604614E0,-6.826995850E0
3.016583035E0,-4.662475586E-1,9.595565796E0,-6.824417114E0
3.021618435E0,-4.331054688E-1,9.543380737E0,-6.751922607E0
3.026653836E0,-4.285736084E-1,9.599853516E0,-6.789947510E0
3.031689236E0,-4.780273438E-1,9.574508667E0,-6.782287598E0
3.036724636E0,-4.736785889E-1,9.568511963E0,-6.810531616E0
3.041760037E0,-4.592285156E-1,9.604003906E0,-6.735961914E0
3.046795437E0,-4.490661621E-1,9.558456421E0,-6.737487793E0
3.051830837E0,-4.458465576E-1,9.568801880E0,-6.775161743E0
3.056866238E0,-4.369964600E-1,9.575180054E0,-6.768875122E0
3.061901638E0,-4.447631836E-1,9.551712036E0,-6.739425659E0
3.066937039E0,-4.610137939E-1,9.542846680E0,-6.783065796E0
3.071972439E0,-4.733428955E-1,9.573410034E0,-6.737899780E0
3.077007839E0,-5.032043457E-1,9.544357300E0,-6.758972168E0
3.082043240E0,-4.892425537E-1,9.540054321E0,-6.645126343E0
3.087078640E0,-4.610748291E-1,9.562728882E0,-6.702972412E0
3.092114041E0,-4.690399170E-1,9.593551636E0,-6.735626221E0
3.097149441E0,-4.416961670E-1,9.564682007E0,-6.699844360E0
3.102184841E0,-4.548339844E-1,9.587112427E0,-6.754760742E0
3.107220242E0,-4.598083496E-1,9.578140259E0,-6.697021484E0
3.112255642E0,-4.574890137E-1,9.552001953E0,-6.750717163E0
3.117291043E0,-4.503326416E-1,9.587554932E0,-6.741531372E0
3.122326443E0,-3.912963867E-1,9.603713989E0,-6.718612671E0
3.127361843E0,-4.283447266E-1,9.564437866E0,-6.791427612E0
3.132397244E0,-3.985595703E-1,9.601654053E0,-6.787918091E0
3.137432644E0,-4.208374023E-1,9.595046997E0,-6.835083008E0
3.142468045E0,-3.918762207E-1,9.604843140E0,-6.857376099E0
3.147503445E0,-4.182281494E-1,9.560485840E0,-6.838241577E0
3.152538845E0,-3.963775635E-1,9.589401245E0,-6.865188599E0
3.157574246E0,-4.079589844E-1,9.580566406E0,-6.827880859E0
3.162609646E0,-3.820037842E-1,9.585754395E0,-6.907226562E0
3.167645046E0,-3.894958496E-1,9.623443604E0,-6.954055786E0
3.172680447E0,-3.746032715E-1,9.623245239E0,-6.938476562E0
3.177715847E0,-3.773040771E-1,9.598052979E0,-6.984664917E0
3.182751248E0,-3.639678955E-1,9.594436646E0,-7.008041382E0
3.187786648E0,-3.718261719E-1,9.664505005E0,-6.839813232E0
3.192822048E0,-2.996826172E-1,9.577682495E0,-7.235473633E0
3.197857449E0,-2.545928955E-1,9.669723511E0,-7.361099243E0
3.202892849E0,-3.313140869E-1,9.616729736E0,-7.108108521E0
3.207928250E0,-3.382873535E-1,9.630279541E0,-7.108444214E0
3.212963650E0,-3.625030518E-1,9.600006104E0,-7.128005981E0
3.217999050E0,-2.772979736E-1,9.595809937E0,-7.223953247E0
3.223034451E0,-3.043212891E-1,9.626449585E0,-7.229385376E0
3.228069851E0,-3.003692627E-1,9.615158081E0,-7.288665771E0
3.233105252E0,-2.868804932E-1,9.555175781E0,-7.358551025E0
3.238140652E0,-2.294311523E-1,9.594131470E0,-7.390426636E0
3.243176052E0,-2.328338623E-1,9.613815308E0,-7.408309937E0
3.248211453E0,-2.313690186E-1,9.623764038E0,-7.487777710E0
3.253246853E0,-1.920928955E-1,9.625640869E0,-7.485122681E0
3.258282254E0,-1.564636230E-1,9.627258301E0,-7.522827148E0
3.263317654E0,-1.887359619E-1,9.624282837E0,-7.543350220E0
3.268353054E0,-1.759643555E-1,9.601150513E0,-7.609054565E0
3.273388455E0,-1.868438721E-1,9.520462036E0,-7.639205933E0
3.278423855E0,-1.990356445E-1,9.172149658E0,-7.671508789E0
3.283459255E0,-1.699829102E-1,9.253234863E0,-7.626327515E0
3.288494656E0,-1.477203369E-1,1.018864441E1,-7.621673584E0
3.293530056E0,-1.945343018E-1,1.038665771E1,-7.779769897E0
3.298565457E0,-1.468200684E-1,9.894622803E0,-7.550033569E0
3.303600857E0,-1.942138672E-1,9.419982910E0,-7.531555176E0
3.308636257E0,-2.212219238E-1,9.568023682E0,-7.566543579E0
3.313671658E0,-2.545166016E-1,9.801208496E0,-7.683456421E0
3.318707058E0,-1.836853027E-1,9.668289185E0,-7.722000122E0
3.323742459E0,-1.972808838E-1,9.630462646E0,-7.693389893E0
3.328777859E0,-2.024841309E-1,9.661514282E0,-7.587890625E0
3.333813259E0,-1.997833252E-1,9.653976440E0,-7.555862427E0
3.338848660E0,-2.299194336E-1,9.625717163E0,-7.583847046E0
3.343884060E0,-2.233886719E-1,9.653152466E0,-7.671371460E0
3.348919461E0,-2.224578857E-1,9.648574829E0,-7.644042969E0
3.353954861E0,-1.901550293E-1,9.612274170E0,-7.564254761E0
3.358990261E0,-1.795043945E-1,9.629058838E0,-7.540924072E0
3.364025662E0,-1.974792480E-1,9.674224854E0,-7.637847900E0
3.369061062E0,-2.104949951E-1,9.641891479E0,-7.687194824E0
3.374096462E0,-1.788024902E-1,9.641372681E0,-7.663543701E0
3.379131863E0,-1.929931641E-1,9.660232544E0,-7.635803223E0
3.384167263E0,-2.042999268E-1,9.623504639E0,-7.588073730E0
3.389202664E0,-1.771850586E-1,9.640609741E0,-7.583938599E0
3.394238064E0,-1.739654541E-1,9.667343140E0,-7.585586548E0
3.399273464E0,-1.929321289E-1,9.641128540E0,-7.598266602E0
3.404308865E0,-2.310485840E-1,9.622329712E0,-7.638336182E0
3.409344265E0,-2.167816162E-1,9.620742798E0,-7.638397217E0
3.414379666E0,-1.834716797E-1,9.642745972E0,-7.600280762E0
3.419415066E0,-1.990051270E-1,9.656753540E0,-7.562408447E0
3.424450466E0,-2.051696777E-1,9.651809692E0,-7.571121216E0
3.429485867E0,-2.112121582E-1,9.651794434E0,-7.575973511E0
3.434521267E0,-2.157897949E-1,9.638458252E0,-7.598754883E0
3.439556668E0,-2.023773193E-1,9.626770020E0,-7.580566406E0
3.444592068E0,-1.831512451E-1,9.640792847E0,-7.577224731E0
3.449627468E0,-1.806030273E-1,9.649093628E0,-7.542251587E0
3.454662869E0,-1.770782471E-1,9.643386841E0,-7.513092041E0
3.459698269E0,-1.707611084E-1,9.633148193E0,-7.504608154E0
3.464733670E0,-1.585540771E-1,9.629623413E0,-7.533370972E0
3.469769070E0,-1.615295410E-1,9.646270752E0,-7.553375244E0
3.474804470E0,-1.704711914E-1,9.626373291E0,-7.523849487E0
3.479839871E0,-1.792144775E-1,9.627899170E0,-7.522521973E0
3.484875271E0,-1.875305176E-1,9.654525757E0,-7.499862671E0
3.489910671E0,-1.927185059E-1,9.651504517E0,-7.448516846E0
3.494946072E0,-1.540527344E-1,9.637512207E0,-7.470092773E0
3.499981472E0,-1.295623779E-1,9.638671875E0,-7.482254028E0
3.505016873E0,-1.343536377E-1,9.642303467E0,-7.481262207E0
3.510052273E0,-1.180114746E-1,9.637771606E0,-7.500167847E0
3.515087673E0,-1.136627197E-1,9.642776489E0,-7.483612061E0
3.520123074E0,-1.155395508E-1,9.620742798E0,-7.443603516E0
3.525158474E0,-1.493988037E-1,9.603439331E0,-7.435760498E0
3.530193875E0,-1.431274414E-1,9.609817505E0,-7.418212891E0
3.535229275E0,-1.313629150E-1,9.584548950E0,-7.386947632E0
3.540264675E0,-1.002044678E-1,9.616806030E0,-7.398406982E0
3.545300076E0,-1.175842285E-1,9.622650146E0,-7.365005493E0
3.550335476E0,-1.347351074E-1,9.639617920E0,-7.384765625E0
3.555370877E0,-1.191558838E-1,9.640945435E0,-7.356735229E0
3.560406277E0,-1.123199463E-1,9.610137939E0,-7.285903931E0
3.565441677E0,-1.001586914E-1,9.608139038E0,-7.266937256E0
3.570477078E0,-6.756591797E-2,9.637695312E0,-7.323791504E0
3.575512478E0,-9.298706055E-2,9.652374268E0,-7.269378662E0
3.580547879E0,-1.105804443E-1,9.627258301E0,-7.294082642E0
3.585583279E0,-1.268463135E-1,9.605789185E0,-7.216094971E0
3.590618679E0,-1.203918457E-1,9.581710815E0,-7.193969727E0
3.595654080E0,-1.152496338E-1,9.618041992E0,-7.139038086E0
3.600689480E0,-1.165618896E-1,9.604385376E0,-7.146530151E0
3.605724880E0,-1.245727539E-1,9.606430054E0,-7.115875244E0
3.610760281E0,-1.228332520E-1,9.627838135E0,-7.081192017E0
3.615795681E0,-1.218414307E-1,9.605987549E0,-7.091995239E0
3.620831082E0,-1.430816650E-1,9.609100342E0,-7.059524536E0
3.625866482E0,-1.246948242E-1,9.588012695E0,-7.074310303E0
3.630901882E0,-1.174926758E-1,9.610382080E0,-7.028274536E0
3.635937283E0,-1.568603516E-1,9.594238281E0,-7.043502808E0
3.640972683E0,-1.586914062E-1,9.579910278E0,-6.994506836E0
3.646008084E0,-1.494903564E-1,9.590133667E0,-6.907653809E0
3.651043484E0,-1.296386719E-1,9.590270996E0,-6.908172607E0
3.656078884E0,-1.513366699E-1,9.587860107E0,-6.908462524E0
3.661114285E0,-1.468658447E-1,9.606231689E0,-6.874938965E0
3.666149685E0,-1.624755859E-1,9.558502197E0,-6.832214355E0
3.671185086E0,-1.519775391E-1,9.581512451E0,-6.795425415E0
3.676220486E0,-1.845550537E-1,9.576629639E0,-6.776580811E0
3.681255886E0,-1.842041016E-1,9.549865723E0,-6.738327026E0
3.686291287E0,-1.619720459E-1,9.560134888E0,-6.708267212E0
3.691326687E0,-1.643218994E-1,9.565750122E0,-6.773757935E0
3.696362087E0,-1.823425293E-1,9.563919067E0,-6.667098999E0
3.701397488E0,-2.392578125E-1,9.561523438E0,-6.687072754E0
3.706432888E0,-2.005157471E-1,9.570358276E0,-6.583450317E0
3.711468289E0,-1.233062744E-1,9.541442871E0,-6.713134766E0
3.716503689E0,-2.020111084E-1,9.590377808E0,-6.655899048E0
3.721539089E0,-2.028503418E-1,9.599227905E0,-6.568069458E0
3.726574490E0,-2.538757324E-1,9.583190918E0,-6.546798706E0
3.731609890E0,-2.341156006E-1,9.529037476E0,-6.574371338E0
3.736645291E0,-2.431945801E-1,9.563522339E0,-6.520492554E0
3.741680691E0,-2.099151611E-1,9.516143799E0,-6.579666138E0
3.746716091E0,-2.146301270E-1,9.542434692E0,-6.503494263E0
3.751751492E0,-2.053833008E-1,9.561141968E0,-6.505828857E0
3.756786892E0,-2.172393799E-1,9.549163818E0,-6.503021240E0
3.761822293E0,-2.239379883E-1,9.538604736E0,-6.484359741E0
3.766857693E0,-2.174682617E-1,9.567657471E0,-6.483078003E0
3.771893093E0,-2.271118164E-1,9.600646973E0,-6.505218506E0
3.776928494E0,-2.379913330E-1,9.580703735E0,-6.490631104E0
3.781963894E0,-2.657623291E-1,9.581787109E0,-6.442916870E0
3.786999295E0,-2.461242676E-1,9.538757324E0,-6.491317749E0
3.792034695E0,-2.250061035E-1,9.581008911E0,-6.462249756E0
3.797070095E0,-2.339172363E-1,9.587356567E0,-6.476989746E0
3.802105496E0,-2.316589355E-1,9.580474854E0,-6.446853638E0
3.807140896E0,-1.953430176E-1,9.546737671E0,-6.451126099E0
3.812176296E0,-2.147979736E-1,9.599060059E0,-6.457229614E0
3.817211697E0,-2.300720215E-1,9.574371338E0,-6.500747681E0
3.822247097E0,-2.089996338E-1,9.546905518E0,-6.483978271E0
3.827282498E0,-2.323760986E-1,9.538146973E0,-6.492645264E0
3.832317898E0,-2.238464355E-1,9.581542969E0,-6.467987061E0
3.837353298E0,-2.225799561E-1,9.558715820E0,-6.460784912E0
3.842388699E0,-2.265777588E-1,9.549819946E0,-6.476974487E0
3.847424099E0,-2.270050049E-1,9.574386597E0,-6.434051514E0
3.852459500E0,-2.298431396E-1,9.561965942E0,-6.472366333E0
3.857494900E0,-2.310180664E-1,9.541854858E0,-6.488998413E0
3.862530300E0,-2.266235352E-1,9.574661255E0,-6.441207886E0
3.867565701E0,-2.472534180E-1,9.558258057E0,-6.490417480E0
3.872601101E0,-2.185821533E-1,9.580749512E0,-6.487091064E0
3.877636502E0,-2.289428711E-1,9.565902710E0,-6.547714233E0
3.882671902E0,-2.439727783E-1,9.544357300E0,-6.514495850E0
3.887707302E0,-2.436065674E-1,9.566955566E0,-6.544372559E0
3.892742703E0,-2.515716553E-1,9.587554932E0,-6.579666138E0
3.897778103E0,-2.229309082E-1,9.563507080E0,-6.518264771E0
3.902813504E0,-2.311401367E-1,9.543975830E0,-6.522186279E0
3.907848904E0,-2.634735107E-1,9.576339722E0,-6.576248169E0
3.912884304E0,-2.192687988E-1,9.590393066E0,-6.588012695E0
3.917919705E0,-2.439270020E-1,9.570526123E0,-6.572280884E0
3.922955105E0,-2.392272949E-1,9.572280884E0,-6.588287354E0
3.927990505E0,-2.234802246E-1,9.582870483E0,-6.577102661E0
3.933025906E0,-2.411956787E-1,9.561370850E0,-6.616394043E0
3.938061306E0,-2.798614502E-1,9.560592651E0,-6.632064819E0
3.943096707E0,-2.608337402E-1,9.573089600E0,-6.682022095E0
3.948132107E0,-2.537536621E-1,9.588180542E0,-6.675582886E0
3.953167507E0,-2.713012695E-1,9.572952271E0,-6.672897339E0
3.958202908E0,-2.480010986E-1,9.590484619E0,-6.700790405E0
3.963238308E0,-2.368011475E-1,9.581069946E0,-6.706512451E0
3.968273709E0,-2.232666016E-1,9.582458496E0,-6.686782837E0
3.973309109E0,-2.364196777E-1,9.582733154E0,-6.725463867E0
3.978344509E0,-2.620239258E-1,9.580078125E0,-6.788208008E0
3.983379910E0,-3.003387451E-1,9.595626831E0,-6.819763184E0
3.988415310E0,-2.960205078E-1,9.580780029E0,-6.825042725E0
3.993450711E0,-2.779693604E-1,9.562469482E0,-6.766998291E0
3.998486111E0,-2.634735107E-1,9.575927734E0,-6.805801392E0
4.003521511E0,-2.435607910E-1,9.586914062E0,-6.850769043E0
4.008556912E0,-2.565460205E-1,9.584991455E0,-6.874420166E0
4.013592312E0,-2.861022949E-1,9.580947876E0,-6.901824951E0
4.018627712E0,-2.871856689E-1,9.576736450E0,-6.915512085E0
4.023663113E0,-2.631683350E-1,9.580291748E0,-6.906295776E0
4.028698513E0,-2.841186523E-1,9.578079224E0,-6.946975708E0
4.033733914E0,-3.011627197E-1,9.545043945E0,-6.979202271E0
4.038769314E0,-2.696685791E-1,9.571166992E0,-6.966201782E0
4.043804714E0,-2.681884766E-1,9.600692749E0,-6.960617065E0
4.048840115E0,-2.645263672E-1,9.591110229E0,-6.952285767E0
4.053875515E0,-2.808074951E-1,9.602127075E0,-6.959304810E0
4.058910916E0,-3.248901367E-1,9.606277466E0,-6.991653442E0
4.063946316E0,-3.294830322E-1,9.603240967E0,-7.018615723E0
4.068981716E0,-3.079986572E-1,9.612930298E0,-7.021606445E0
4.074017117E0,-3.057098389E-1,9.605636597E0,-7.058013916E0
4.079052517E0,-3.044433594E-1,9.605133057E0,-7.101272583E0
4.084087918E0,-3.059234619E-1,9.609771729E0,-7.148254395E0
4.089123318E0,-3.001861572E-1,9.593154907E0,-7.139816284E0
4.094158718E0,-2.881317139E-1,9.588241577E0,-7.112869263E0
4.099194119E0,-2.888336182E-1,9.601898193E0,-7.133422852E0
4.104229519E0,-2.964324951E-1,9.600601196E0,-7.148574829E0
4.109264920E0,-3.074951172E-1,9.596115112E0,-7.184127808E0
4.114300320E0,-3.151702881E-1,9.608627319E0,-7.248550415E0
4.119335720E0,-3.023834229E-1,9.617584229E0,-7.235153198E0
4.124371121E0,-2.947235107E-1,9.633300781E0,-7.182327271E0
4.129406521E0,-2.805786133E-1,9.633270264E0,-7.273529053E0
4.134441921E0,-2.962036133E-1,9.620391846E0,-7.298522949E0
4.139477322E0,-3.006744385E-1,9.611495972E0,-7.290954590E0
4.144512722E0,-2.940521240E-1,9.619903564E0,-7.311035156E0
4.149548123E0,-2.932281494E-1,9.635131836E0,-7.309661865E0
4.154583523E0,-2.868499756E-1,9.643112183E0,-7.375915527E0
4.159618923E0,-2.901916504E-1,9.638198853E0,-7.377990723E0
4.164654324E0,-2.850341797E-1,9.607269287E0,-7.354598999E0
4.169689724E0,-2.896575928E-1,9.609664917E0,-7.377532959E0
4.174725125E0,-3.083953857E-1,9.607696533E0,-7.390670776E0
4.179760525E0,-2.925872803E-1,9.624588013E0,-7.387969971E0
4.184795925E0,-2.906036377E-1,9.615539551E0,-7.433135986E0
4.189831326E0,-3.054351807E-1,9.612457275E0,-7.449127197E0
4.194866726E0,-3.011169434E-1,9.590896606E0,-7.459030151E0
4.199902127E0,-2.962188721E-1,9.600601196E0,-7.460998535E0
4.204937527E0,-2.776184082E-1,9.611984253E0,-7.445999146E0
4.209972927E0,-2.953948975E-1,9.628250122E0,-7.508483887E0
4.215008328E0,-2.806701660E-1,9.623580933E0,-7.498153687E0
4.220043728E0,-2.593231201E-1,9.648742676E0,-7.490814209E0
4.225079129E0,-2.851104736E-1,9.662200928E0,-7.526916504E0
4.230114529E0,-2.837371826E-1,9.633346558E0,-7.534667969E0
4.235149929E0,-2.736663818E-1,9.621795654E0,-7.493957520E0
4.240185330E0,-2.930450439E-1,9.624740601E0,-7.524734497E0
4.245220730E0,-2.216796875E-1,9.635421753E0,-7.563537598E0
4.250256130E0,-2.959594727E-1,9.588180542E0,-7.554107666E0
4.255291531E0,-2.689208984E-1,9.617797852E0,-7.546875000E0
4.260326931E0,-2.578887939E-1,9.609512329E0,-7.552139282E0
4.265362332E0,-2.433013916E-1,9.641128540E0,-7.524780273E0
4.270397732E0,-2.347259521E-1,9.622497559E0,-7.575164795E0
4.275433132E0,-2.710571289E-1,9.624710083E0,-7.592468262E0
4.280468533E0,-2.368621826E-1,9.619369507E0,-7.585342407E0
4.285503933E0,-2.588806152E-1,9.599441528E0,-7.571472168E0
4.290539334E0,-3.199005127E-1,9.633346558E0,-7.546417236E0
4.295574734E0,-2.384948730E-1,9.611755371E0,-7.565185547E0
4.300610134E0,-2.808685303E-1,9.624114990E0,-7.489654541E0
4.305645535E0,-3.058166504E-1,9.623443604E0,-7.562866211E0
4.310680935E0,-2.413330078E-1,9.645309448E0,-7.503707886E0
4.315716336E0,-3.076019287E-1,9.629180908E0,-7.596786499E0
4.320751736E0,-2.717895508E-1,9.646011353E0,-7.515472412E0
4.325787136E0,-2.694244385E-1,9.590454102E0,-7.533020020E0
4.330822537E0,-2.375335693E-1,9.601226807E0,-7.481781006E0
4.335857937E0,-2.568664551E-1,9.627212524E0,-7.553268433E0
4.340893337E0,-2.668762207E-1,9.625671387E0,-7.522903442E0
4.345928738E0,-2.717590332E-1,9.613876343E0,-7.501129150E0
4.350964138E0,-2.718048096E-1,9.597167969E0,-7.526885986E0
4.355999539E0,-2.791900635E-1,9.649383545E0,-7.505447388E0
4.361034939E0,-3.169250488E-1,9.639678955E0,-7.477066040E0
4.366070339E0,-3.074340820E-1,9.620437622E0,-7.476882935E0
4.371105740E0,-3.021697998E-1,9.597946167E0,-7.465209961E0
4.376141140E0,-2.835388184E-1,9.625976562E0,-7.394592285E0
4.381176541E0,-2.793579102E-1,9.633819580E0,-7.477798462E0
4.386211941E0,-2.893829346E-1,9.604080200E0,-7.442260742E0
4.391247341E0,-3.047027588E-1,9.601104736E0,-7.453948975E0
4.396282742E0,-3.021545410E-1,9.592483521E0,-7.390243530E0
4.401318142E0,-3.562469482E-1,9.626449585E0,-7.373489380E0
4.406353543E0,-3.107757568E-1,9.608352661E0,-7.361206055E0
4.411388943E0,-3.226776123E-1,9.628875732E0,-7.398925781E0
4.416424343E0,-3.303833008E-1,9.610687256E0,-7.372222900E0
4.421459744E0,-3.249359131E-1,9.584869385E0,-7.310897827E0
4.426495144E0,-3.492584229E-1,9.599899292E0,-7.351898193E0
4.431530545E0,-3.399658203E-1,9.588378906E0,-7.341384888E0
4.436565945E0,-3.292388916E-1,9.610397339E0,-7.339782715E0
4.441601345E0,-3.053894043E-1,9.602203369E0,-7.321792603E0
4.446636746E0,-3.402862549E-1,9.591323853E0,-7.275421143E0
4.451672146E0,-3.646392822E-1,9.599822998E0,-7.273071289E0
4.456707546E0,-3.619079590E-1,9.602615356E0,-7.247650146E0
4.461742947E0,-3.586120605E-1,9.607406616E0,-7.286071777E0
4.466778347E0,-4.050903320E-1,9.611358643E0,-7.253036499E0
4.471813748E0,-3.737335205E-1,9.609085083E0,-7.214096069E0
4.476849148E0,-3.461761475E-1,9.597061157E0,-7.200042725E0
4.481884548E0,-3.991546631E-1,9.593505859E0,-7.231872559E0
4.486919949E0,-3.718414307E-1,9.607223511E0,-7.183517456E0
4.491955349E0,-3.529815674E-1,9.582092285E0,-7.171295166E0
4.496990750E0,-3.455963135E-1,9.597549438E0,-7.178146362E0
4.502026150E0,-3.531494141E-1,9.580871582E0,-7.194259644E0
4.507061550E0,-3.723754883E-1,9.592910767E0,-7.128341675E0
4.512096951E0,-3.513031006E-1,9.591445923E0,-7.104568481E0
4.517132351E0,-3.316650391E-1,9.626449585E0,-7.106826782E0
4.522167752E0,-3.554534912E-1,9.622009277E0,-7.104660034E0
4.527203152E0,-3.778991699E-1,9.594375610E0,-7.082183838E0
4.532238552E0,-3.680114746E-1,9.609268188E0,-7.023910522E0
4.537273953E0,-3.667755127E-1,9.597091675E0,-7.038360596E0
4.542309353E0,-3.688812256E-1,9.588394165E0,-7.035964966E0
4.547344754E0,-3.682250977E-1,9.610321045E0,-7.045486450E0
4.552380154E0,-3.874664307E-1,9.596176147E0,-7.042327881E0
4.557415554E0,-3.854675293E-1,9.576110840E0,-6.978836060E0
4.562450955E0,-3.623504639E-1,9.612716675E0,-6.970062256E0
4.567486355E0,-3.682708740E-1,9.591262817E0,-6.972320557E0
4.572521755E0,-3.552703857E-1,9.608535767E0,-6.964294434E0
4.577557156E0,-3.590240479E-1,9.593826294E0,-6.943496704E0
4.582592556E0,-3.566131592E-1,9.593200684E0,-6.918563843E0
4.587627957E0,-3.696136475E-1,9.597412109E0,-6.924575806E0
4.592663357E0,-3.755645752E-1,9.586044312E0,-6.918014526E0
4.597698757E0,-3.423309326E-1,9.579284668E0,-6.900970459E0
4.602734158E0,-3.481597900E-1,9.599838257E0,-6.897552490E0
4.607769558E0,-3.506622314E-1,9.590911865E0,-6.876037598E0
4.612804959E0,-3.522186279E-1,9.581298828E0,-6.863677979E0
4.617840359E0,-3.877716064E-1,9.571228027E0,-6.828521729E0
4.622875759E0,-3.721923828E-1,9.579071045E0,-6.819442749E0
4.627911160E0,-3.543090820E-1,9.583602905E0,-6.832580566E0
4.632946560E0,-3.569030762E-1,9.585372925E0,-6.801040649E0
4.637981961E0,-3.370666504E-1,9.589401245E0,-6.781173706E0
4.643017361E0,-3.208770752E-1,9.583572388E0,-6.760437012E0
4.648052761E0,-3.384552002E-1,9.563919067E0,-6.779006958E0
4.653088162E0,-3.396301270E-1,9.563629150E0,-6.796279907E0
4.658123562E0,-3.692321777E-1,9.588607788E0,-6.765518188E0
4.663158962E0,-3.678588867E-1,9.582473755E0,-6.728363037E0
4.668194363E0,-3.544158936E-1,9.559051514E0,-6.720031738E0
4.673229763E0,-3.706512451E-1,9.572601318E0,-6.720214844E0
4.678265164E0,-3.667297363E-1,9.585311890E0,-6.707321167E0
4.683300564E0,-3.609771729E-1,9.583694458E0,-6.690063477E0
4.688335964E0,-3.572692871E-1,9.580413818E0,-6.681549072E0
4.693371365E0,-3.630523682E-1,9.561920166E0,-6.656127930E0
4.698406765E0,-3.519439697E-1,9.577987671E0,-6.664688110E0
4.703442166E0,-3.602905273E-1,9.592285156E0,-6.663925171E0
4.708477566E0,-3.710937500E-1,9.590621948E0,-6.639160156E0
4.713512966E0,-3.656311035E-1,9.596084595E0,-6.643142700E0
4.718548367E0,-3.731842041E-1,9.584274292E0,-6.636840820E0
4.723583767E0,-3.774871826E-1,9.587142944E0,-6.621520996E0
4.728619168E0,-3.926086426E-1,9.607833862E0,-6.638183594E0
4.733654568E0,-3.805236816E-1,9.585021973E0,-6.639221191E0
4.738689968E0,-3.610076904E-1,9.582672119E0,-6.613983154E0
4.743725369E0,-3.483581543E-1,9.569442749E0,-6.606506348E0
4.748760769E0,-3.309173584E-1,9.559677124E0,-6.609756470E0
4.753796170E0,-3.319396973E-1,9.581558228E0,-6.652542114E0
4.758831570E0,-3.266143799E-1,9.581268311E0,-6.649642944E0
4.763866970E0,-3.106231689E-1,9.564468384E0,-6.628799438E0
4.768902371E0,-3.440399170E-1,9.555740356E0,-6.594085693E0
4.773937771E0,-3.589935303E-1,9.570617676E0,-6.622299194E0
4.778973171E0,-3.574981689E-1,9.559829712E0,-6.625000000E0
4.784008572E0,-3.339996338E-1,9.571990967E0,-6.627822876E0
4.789043972E0,-3.530426025E-1,9.600784302E0,-6.615051270E0
4.794079373E0,-3.441009521E-1,9.579849243E0,-6.633911133E0
4.799114773E0,-3.499908447E-1,9.591094971E0,-6.621337891E0
4.804150173E0,-3.498535156E-1,9.592422485E0,-6.646347046E0
4.809185574E0,-3.161163330E-1,9.611175537E0,-6.668838501E0
4.814220974E0,-3.266906738E-1,9.571792603E0,-6.659912109E0
4.819256375E0,-3.355102539E-1,9.594696045E0,-6.712066650E0
4.824291775E0,-3.525390625E-1,9.562698364E0,-6.733276367E0
4.829327175E0,-3.574981689E-1,9.575424194E0,-6.693588257E0
4.834362576E0,-3.369140625E-1,9.579040527E0,-6.706359863E0
4.839397976E0,-3.465118408E-1,9.549545288E0,-6.692077637E0
4.844433377E0,-3.465270996E-1,9.572967529E0,-6.707855225E0
4.849468777E0,-3.533325195E-1,9.609359741E0,-6.714889526E0
4.854504177E0,-3.238220215E-1,9.561325073E0,-6.723159790E0
4.859539578E0,-3.466491699E-1,9.579071045E0,-6.776184082E0
4.864574978E0,-3.227386475E-1,9.577163696E0,-6.796752930E0
4.869610379E0,-2.928314209E-1,9.561523438E0,-6.784530640E0
4.874645779E0,-3.169250488E-1,9.542724609E0,-6.814498901E0
4.879681179E0,-2.970886230E-1,9.564651489E0,-6.803604126E0
4.884716580E0,-3.160705566E-1,9.597564697E0,-6.798950195E0
4.889751980E0,-3.068847656E-1,9.595565796E0,-6.811187744E0
4.894787380E0,-2.945556641E-1,9.598922729E0,-6.867996216E0
4.899822781E0,-2.889709473E-1,9.584518433E0,-6.851348877E0
4.904858181E0,-2.863311768E-1,9.606414795E0,-6.880859375E0
4.909893582E0,-2.621612549E-1,9.622024536E0,-6.836471558E0
4.914928982E0,-2.664794922E-1,9.605712891E0,-6.895538330E0
4.919964382E0,-2.604370117E-1,9.571121216E0,-6.923065186E0
4.924999783E0,-2.576751709E-1,9.579681396E0,-6.911407471E0
4.930035183E0,-2.125396729E-1,9.578155518E0,-6.919525146E0
4.935070584E0,-2.552032471E-1,9.614257812E0,-6.969863892E0
4.940105984E0,-2.460632324E-1,9.618408203E0,-6.986175537E0
4.945141384E0,-2.920684814E-1,9.569732666E0,-6.979736328E0
4.950176785E0,-2.394866943E-1,9.596542358E0,-6.981903076E0
4.955212185E0,-2.361145020E-1,9.620727539E0,-6.974838257E0
4.960247586E0,-2.265777588E-1,9.594696045E0,-6.989089966E0
4.965282986E0,-2.097930908E-1,9.561538696E0,-7.001327515E0
4.970318386E0,-1.892395020E-1,9.590362549E0,-7.057983398E0
4.975353787E0,-2.288513184E-1,9.613388062E0,-7.051559448E0
4.980389187E0,-2.228851318E-1,9.599014282E0,-7.076751709E0
4.985424587E0,-1.817626953E-1,9.586593628E0,-7.139053345E0
4.990459988E0,-1.950531006E-1,9.617675781E0,-7.137649536E0
4.995495388E0,-2.742004395E-1,9.601440430E0,-7.110748291E0
5.000530789E0,-2.295684814E-1,9.595642090E0,-7.113967896E0
5.005566189E0,-1.758728027E-1,9.609848022E0,-7.101623535E0
5.010601589E0,-2.257843018E-1,9.620269775E0,-7.167800903E0
5.015636990E0,-2.186431885E-1,9.612670898E0,-7.139404297E0
5.020672390E0,-2.347564697E-1,9.600769043E0,-7.093063354E0
5.025707791E0,-1.972808838E-1,9.613983154E0,-7.181488037E0
5.030743191E0,-1.963653564E-1,9.616897583E0,-7.198028564E0
5.035778591E0,-2.322692871E-1,9.621032715E0,-7.195465088E0
5.040813992E0,-1.753082275E-1,9.607864380E0,-7.217224121E0
5.045849392E0,-2.268524170E-1,9.630844116E0,-7.271133423E0
5.050884793E0,-1.976776123E-1,9.612915039E0,-7.220382690E0
5.055920193E0,-1.974487305E-1,9.584030151E0,-7.232650757E0
5.060955593E0,-2.117156982E-1,9.611419678E0,-7.221466064E0
5.065990994E0,-2.280426025E-1,9.642532349E0,-7.280700684E0
5.071026394E0,-2.067108154E-1,9.610229492E0,-7.285369873E0
5.076061795E0,-2.295379639E-1,9.610855103E0,-7.284301758E0
5.081097195E0,-2.073669434E-1,9.594512939E0,-7.296844482E0
5.086132595E0,-2.360992432E-1,9.616546631E0,-7.255172729E0
5.091167996E0,-2.341156006E-1,9.597869873E0,-7.255111694E0
5.096203396E0,-2.197875977E-1,9.625930786E0,-7.342590332E0
5.101238796E0,-2.036895752E-1,9.623855591E0,-7.359970093E0
5.106274197E0,-2.274627686E-1,9.633972168E0,-7.315902710E0
5.111309597E0,-2.175903320E-1,9.613555908E0,-7.306945801E0
5.116344998E0,-2.229919434E-1,9.637542725E0,-7.306930542E0
5.121380398E0,-2.285308838E-1,9.642807007E0,-7.345855713E0
5.126415798E0,-2.671661377E-1,9.634979248E0,-7.364547729E0
5.131451199E0,-2.499847412E-1,9.621444702E0,-7.357543945E0
5.136486599E0,-2.435607910E-1,9.608306885E0,-7.353302002E0
5.141522000E0,-2.146759033E-1,9.626846313E0,-7.377777100E0
5.146557400E0,-2.211303711E-1,9.645629883E0,-7.386611938E0
5.151592800E0,-2.309265137E-1,9.623794556E0,-7.390686035E0
5.156628201E0,-2.156677246E-1,9.588821411E0,-7.362808228E0
5.161663601E0,-2.114105225E-1,9.595642090E0,-7.364349365E0
5.166699002E0,-2.130584717E-1,9.585174561E0,-7.375549316E0
5.171734402E0,-2.044677734E-1,9.591552734E0,-7.398681641E0
5.176769802E0,-2.048187256E-1,9.602172852E0,-7.408630371E0
5.181805203E0,-1.908721924E-1,9.604125977E0,-7.401748657E0
5.186840603E0,-2.030792236E-1,9.589752197E0,-7.405014038E0
5.191876004E0,-2.081756592E-1,9.603607178E0,-7.418716431E0
5.196911404E0,-1.868438721E-1,9.619384766E0,-7.416473389E0
5.201946804E0,-2.021484375E-1,9.634338379E0,-7.387939453E0
5.206982205E0,-2.160949707E-1,9.630386353E0,-7.411773682E0
5.212017605E0,-2.237701416E-1,9.637542725E0,-7.456481934E0
5.217053005E0,-2.245941162E-1,9.648452759E0,-7.463943481E0
5.222088406E0,-2.279205322E-1,9.662704468E0,-7.427795410E0
5.227123806E0,-2.309570312E-1,9.659271240E0,-7.423095703E0
5.232159207E0,-2.189788818E-1,9.652404785E0,-7.414642334E0
5.237194607E0,-2.016448975E-1,9.640655518E0,-7.401535034E0
5.242230007E0,-2.070007324E-1,9.625152588E0,-7.393798828E0
5.247265408E0,-2.123107910E-1,9.621658325E0,-7.393875122E0
5.252300808E0,-1.774139404E-1,9.629150391E0,-7.415863037E0
5.257336209E0,-1.794281006E-1,9.614334106E0,-7.414642334E0
5.262371609E0,-2.190856934E-1,9.621597290E0,-7.404922485E0
5.267407009E0,-2.230072021E-1,9.612548828E0,-7.361618042E0
5.272442410E0,-2.063446045E-1,9.587661743E0,-7.358215332E0
5.277477810E0,-2.100677490E-1,9.594619751E0,-7.388275146E0
5.282513211E0,-2.071990967E-1,9.608535767E0,-7.388290405E0
5.287548611E0,-1.915588379E-1,9.620727539E0,-7.364593506E0
5.292584011E0,-1.888732910E-1,9.626205444E0,-7.372360229E0
5.297619412E0,-2.102355957E-1,9.621017456E0,-7.370925903E0
5.302654812E0,-2.135772705E-1,9.604705811E0,-7.343429565E0
5.307690212E0,-2.038116455E-1,9.614303589E0,-7.315658569E0
5.312725613E0,-2.027740479E-1,9.613357544E0,-7.295104980E0
5.317761013E0,-2.177734375E-1,9.591949463E0,-7.301269531E0
5.322796414E0,-2.247924805E-1,9.599456787E0,-7.281250000E0
5.327831814E0,-2.060852051E-1,9.628524780E0,-7.283340454E0
5.332867214E0,-1.782226562E-1,9.621047974E0,-7.263702393E0
5.337902615E0,-2.081298828E-1,9.598709106E0,-7.257522583E0
5.342938015E0,-2.337188721E-1,9.614654541E0,-7.239288330E0
5.347973416E0,-2.201385498E-1,9.644622803E0,-7.220855713E0
5.353008816E0,-2.138214111E-1,9.605422974E0,-7.192550659E0
5.358044216E0,-2.332611084E-1,9.613632202E0,-7.235946655E0
5.363079617E0,-2.275695801E-1,9.612396240E0,-7.234664917E0
5.368115017E0,-2.415924072E-1,9.606582642E0,-7.182785034E0
5.373150418E0,-2.190399170E-1,9.605758667E0,-7.139526367E0
5.378185818E0,-2.645568848E-1,9.596084595E0,-7.156402588E0
5.383221218E0,-2.440338135E-1,9.602142334E0,-7.124069214E0
5.388256619E0,-2.484588623E-1,9.611587524E0,-7.093353271E0
5.393292019E0,-2.245483398E-1,9.598571777E0,-7.136199951E0
5.398327420E0,-2.423858643E-1,9.588897705E0,-7.114700317E0
5.403362820E0,-2.257843018E-1,9.580642700E0,-7.083038330E0
5.408398220E0,-2.425537109E-1,9.626800537E0,-7.118957520E0
5.413433621E0,-2.615509033E-1,9.611312866E0,-7.081604004E0
5.418469021E0,-2.485351562E-1,9.626342773E0,-7.044952393E0
5.423504421E0,-2.704620361E-1,9.595245361E0,-7.059020996E0
5.428539822E0,-2.771148682E-1,9.626953125E0,-7.085494995E0
5.433575222E0,-2.709960938E-1,9.600906372E0,-7.005981445E0
5.438610623E0,-2.544555664E-1,9.603027344E0,-7.013763428E0
5.443646023E0,-2.845611572E-1,9.623672485E0,-7.014816284E0
5.448681423E0,-2.894287109E-1,9.597549438E0,-7.030029297E0
5.453716824E0,-2.903900146E-1,9.570770264E0,-7.013229370E0
5.458752224E0,-3.063964844E-1,9.585540771E0,-6.903244019E0
5.463787625E0,-2.746276855E-1,9.609527588E0,-6.930526733E0
5.468823025E0,-2.611236572E-1,9.597946167E0,-6.933578491E0
5.473858425E0,-2.839202881E-1,9.564682007E0,-6.899948120E0
5.478893826E0,-2.723388672E-1,9.583190918E0,-6.899917603E0
5.483929226E0,-2.571716309E-1,9.563018799E0,-6.925537109E0
5.488964627E0,-2.654571533E-1,9.536315918E0,-6.880111694E0
5.494000027E0,-2.983703613E-1,9.589187622E0,-6.893325806E0
5.499035427E0,-3.006591797E-1,9.594970703E0,-6.879409790E0
5.504070828E0,-2.961120605E-1,9.616012573E0,-6.896392822E0
5.509106228E0,-3.020629883E-1,9.588424683E0,-6.875000000E0
5.514141629E0,-3.049316406E-1,9.554702759E0,-6.878967285E0
5.519177029E0,-3.117065430E-1,9.595672607E0,-6.837936401E0
5.524212429E0,-2.924194336E-1,9.590621948E0,-6.836563110E0
5.529247830E0,-3.175048828E-1,9.614349365E0,-6.834518433E0
5.534283230E0,-2.858886719E-1,9.609405518E0,-6.794128418E0
5.539318630E0,-3.176727295E-1,9.618026733E0,-6.859420776E0
5.544354031E0,-2.738494873E-1,9.604812622E0,-6.783172607E0
5.549389431E0,-3.245544434E-1,9.585861206E0,-6.809417725E0
5.554424832E0,-3.219146729E-1,9.619995117E0,-6.733932495E0
5.559460232E0,-3.054351807E-1,9.567123413E0,-6.764724731E0
5.564495632E0,-3.027801514E-1,9.617858887E0,-6.845275879E0
5.569531033E0,-3.551177979E-1,9.585174561E0,-6.836746216E0
5.574566433E0,-2.887115479E-1,9.568435669E0,-6.819824219E0
5.579601834E0,-3.268585205E-1,9.556945801E0,-6.780044556E0
5.584637234E0,-3.491973877E-1,9.584472656E0,-6.813812256E0
5.589672634E0,-3.036346436E-1,9.557983398E0,-6.752914429E0
5.594708035E0,-3.296508789E-1,9.602172852E0,-6.738159180E0
5.599743435E0,-2.891082764E-1,9.611236572E0,-6.777862549E0
5.604778836E0,-3.445739746E-1,9.607925415E0,-6.833328247E0
5.609814236E0,-2.864074707E-1,9.588165283E0,-6.775482178E0
5.614849636E0,-2.899780273E-1,9.566879272E0,-6.779144287E0
5.619885037E0,-2.826995850E-1,9.605270386E0,-6.715209961E0
5.624920437E0,-3.256072998E-1,9.589935303E0,-6.741531372E0
5.629955837E0,-3.162841797E-1,9.588531494E0,-6.742218018E0
5.634991238E0,-3.323211670E-1,9.577880859E0,-6.747924805E0
5.640026638E0,-3.405609131E-1,9.598999023E0,-6.732971191E0
5.645062039E0,-3.390502930E-1,9.607604980E0,-6.674453735E0
5.650097439E0,-3.390655518E-1,9.572052002E0,-6.723754883E0
5.655132839E0,-3.176574707E-1,9.620590210E0,-6.735702515E0
5.660168240E0,-3.503570557E-1,9.587387085E0,-6.752380371E0
5.665203640E0,-3.443298340E-1,9.572509766E0,-6.733306885E0
5.670239041E0,-3.134613037E-1,9.566528320E0,-6.798675537E0
5.675274441E0,-3.219451904E-1,9.565017700E0,-6.776535034E0
5.680309841E0,-3.254241943E-1,9.594635010E0,-6.778274536E0
5.685345242E0,-2.929992676E-1,9.561340332E0,-6.757827759E0
5.690380642E0,-3.117980957E-1,9.598953247E0,-6.778610229E0
5.695416043E0,-3.177947998E-1,9.586563110E0,-6.739379883E0
5.700451443E0,-3.408355713E-1,9.588409424E0,-6.727264404E0
5.705486843E0,-3.076782227E-1,9.600921631E0,-6.777999878E0
5.710522244E0,-2.936401367E-1,9.568847656E0,-6.772476196E0
5.715557644E0,-3.322601318E-1,9.563339233E0,-6.766769409E0
5.720593045E0,-3.450012207E-1,9.589340210E0,-6.740936279E0
5.725628445E0,-3.326263428E-1,9.578567505E0,-6.716491699E0
5.730663845E0,-3.330078125E-1,9.582199097E0,-6.745529175E0
5.735699246E0,-3.090515137E-1,9.603973389E0,-6.835662842E0
5.740734646E0,-3.247985840E-1,9.590347290E0,-6.839797974E0
5.745770046E0,-3.342895508E-1,9.589981079E0,-6.831054688E0
5.750805447E0,-3.369750977E-1,9.630401611E0,-6.805084229E0
5.755840847E0,-3.531494141E-1,9.614334106E0,-6.805603027E0
5.760876248E0,-3.165130615E-1,9.581802368E0,-6.801498413E0
5.765911648E0,-3.197479248E-1,9.589157104E0,-6.818145752E0
5.770947048E0,-3.519439697E-1,9.589920044E0,-6.872573853E0
5.775982449E0,-3.470001221E-1,9.591430664E0,-6.822280884E0
5.781017849E0,-3.346252441E-1,9.590133667E0,-6.853668213E0
5.786053250E0,-3.433837891E-1,9.597747803E0,-6.906906128E0
5.791088650E0,-3.488616943E-1,9.598175049E0,-6.863449097E0
5.796124050E0,-3.317718506E-1,9.599777222E0,-6.911239624E0
5.801159451E0,-3.211975098E-1,9.566055298E0,-6.943176270E0
5.806194851E0,-3.365478516E-1,9.552078247E0,-6.932479858E0
5.811230252E0,-3.084564209E-1,9.593292236E0,-6.932403564E0
5.816265652E0,-3.233947754E-1,9.587554932E0,-6.954055786E0
5.821301052E0,-3.521118164E-1,9.592483521E0,-6.968704224E0
5.826336453E0,-3.506317139E-1,9.595443726E0,-6.941360474E0
5.831371853E0,-3.211059570E-1,9.597076416E0,-6.944229126E0
5.836407254E0,-3.158721924E-1,9.597183228E0,-7.005569458E0
5.841442654E0,-3.255004883E-1,9.591522217E0,-7.041442871E0
5.846478054E0,-3.155364990E-1,9.598373413E0,-7.019821167E0
5.851513455E0,-3.073425293E-1,9.612518311E0,-7.052246094E0
5.856548855E0,-2.964935303E-1,9.634857178E0,-7.082107544E0
5.861584255E0,-2.972869873E-1,9.627380371E0,-7.078613281E0
5.866619656E0,-3.169860840E-1,9.604446411E0,-7.081222534E0
5.871655056E0,-3.053131104E-1,9.611145020E0,-7.068725586E0
5.876690457E0,-2.800750732E-1,9.611251831E0,-7.107086182E0
5.881725857E0,-3.011322021E-1,9.586151123E0,-7.101303101E0
5.886761257E0,-3.176727295E-1,9.589202881E0,-7.108596802E0
5.891796658E0,-3.000793457E-1,9.610809326E0,-7.151245117E0
5.896832058E0,-3.058929443E-1,9.601593018E0,-7.151855469E0
5.901867459E0,-3.042144775E-1,9.611297607E0,-7.165542603E0
5.906902859E0,-2.876434326E-1,9.608856201E0,-7.155593872E0
5.911938259E0,-2.826690674E-1,9.596633911E0,-7.151428223E0
5.916973660E0,-3.039550781E-1,9.620727539E0,-7.154754639E0
5.922009060E0,-2.905883789E-1,9.617309570E0,-7.174652100E0
5.927044461E0,-2.914581299E-1,9.597320557E0,-7.203430176E0
5.932079861E0,-2.893676758E-1,9.586730957E0,-7.206268311E0
5.937115261E0,-2.765655518E-1,9.601394653E0,-7.229080200E0
5.942150662E0,-2.736663818E-1,9.606475830E0,-7.236007690E0
5.947186062E0,-2.836151123E-1,9.626907349E0,-7.238342285E0
5.952221462E0,-2.684326172E-1,9.610900879E0,-7.207901001E0
5.957256863E0,-2.718505859E-1,9.593826294E0,-7.198806763E0
5.962292263E0,-2.628784180E-1,9.625457764E0,-7.236465454E0
5.967327664E0,-2.838287354E-1,9.634536743E0,-7.226898193E0
5.972363064E0,-2.877655029E-1,9.602005005E0,-7.247528076E0
5.977398464E0,-2.701568604E-1,9.595535278E0,-7.244445801E0
5.982433865E0,-2.856140137E-1,9.617172241E0,-7.253601074E0
5.987469265E0,-2.547302246E-1,9.640350342E0,-7.290634155E0
5.992504666E0,-2.691955566E-1,9.615615845E0,-7.243728638E0
5.997540066E0,-2.553405762E-1,9.626861572E0,-7.257659912E0
6.002575466E0,-2.669677734E-1,9.595184326E0,-7.298446655E0
6.007610867E0,-2.662963867E-1,9.629409790E0,-7.338882446E0
6.012646267E0,-2.830200195E-1,9.604522705E0,-7.326721191E0
6.017681668E0,-3.047943115E-1,9.615417480E0,-7.322799683E0
6.022717068E0,-2.886962891E-1,9.613265991E0,-7.301742554E0
6.027752468E0,-2.884674072E-1,9.641113281E0,-7.286636353E0
6.032787869E0,-2.728576660E-1,9.648223877E0,-7.298645020E0
6.037823269E0,-2.597503662E-1,9.612380981E0,-7.275909424E0
6.042858670E0,-2.851867676E-1,9.616577148E0,-7.291549683E0
6.047894070E0,-2.727966309E-1,9.615295410E0,-7.302246094E0
6.052929470E0,-2.500915527E-1,9.647644043E0,-7.339080811E0
6.057964871E0,-2.513275146E-1,9.626159668E0,-7.325698853E0
6.063000271E0,-2.451019287E-1,9.612747192E0,-7.298873901E0
6.068035671E0,-2.432403564E-1,9.619125366E0,-7.322906494E0
6.073071072E0,-2.570495605E-1,9.593276978E0,-7.353134155E0
6.078106472E0,-2.638854980E-1,9.633285522E0,-7.304351807E0
6.083141873E0,-2.626647949E-1,9.622268677E0,-7.307785034E0
6.088177273E0,-2.785339355E-1,9.622558594E0,-7.320587158E0
6.093212673E0,-2.386169434E-1,9.604949951E0,-7.346740723E0
6.098248074E0,-2.661437988E-1,9.562942505E0,-7.340667725E0
6.103283474E0,-2.759552002E-1,9.598083496E0,-7.345214844E0
6.108318875E0,-2.368621826E-1,9.581222534E0,-7.316879272E0
6.113354275E0,-2.839660645E-1,9.611694336E0,-7.367538452E0
6.118389675E0,-2.439422607E-1,9.611846924E0,-7.381103516E0
6.123425076E0,-2.427825928E-1,9.619949341E0,-7.274444580E0
6.128460476E0,-2.800140381E-1,9.653305054E0,-7.297424316E0
6.133495877E0,-2.661895752E-1,9.586486816E0,-7.331573486E0
6.138531277E0,-2.779083252E-1,9.580413818E0,-7.312179565E0
6.143566677E0,-3.078155518E-1,9.600387573E0,-7.279342651E0
6.148602078E0,-2.379302979E-1,9.610824585E0,-7.322082520E0
6.153637478E0,-2.722167969E-1,9.620407104E0,-7.277160645E0
6.158672879E0,-2.696380615E-1,9.627716064E0,-7.313461304E0
6.163708279E0,-2.578887939E-1,9.625701904E0,-7.294433594E0
6.168743679E0,-2.714691162E-1,9.644210815E0,-7.328598022E0
6.173779080E0,-2.928466797E-1,9.602615356E0,-7.266387939E0
6.178814480E0,-2.861328125E-1,9.616027832E0,-7.293594360E0
6.183849880E0,-2.313385010E-1,9.620880127E0,-7.308059692E0
6.188885281E0,-2.649383545E-1,9.618377686E0,-7.274429321E0
6.193920681E0,-3.066864014E-1,9.599365234E0,-7.227905273E0
6.198956082E0,-2.625885010E-1,9.596145630E0,-7.269378662E0
6.203991482E0,-2.738342285E-1,9.652969360E0,-7.244567871E0
6.209026882E0,-2.634277344E-1,9.613204956E0,-7.192657471E0
6.214062283E0,-2.919616699E-1,9.601074219E0,-7.164474487E0
6.219097683E0,-2.670440674E-1,9.630691528E0,-7.201660156E0
6.224133084E0,-2.660369873E-1,9.596298218E0,-7.290161133E0
6.229168484E0,-2.502136230E-1,9.617431641E0,-7.199066162E0
6.234203884E0,-2.489776611E-1,9.576660156E0,-7.205703735E0
6.239239285E0,-2.584075928E-1,9.622436523E0,-7.207946777E0
6.244274685E0,-2.233276367E-1,9.616287231E0,-7.227462769E0
6.249310086E0,-2.813262939E-1,9.633987427E0,-7.182952881E0
6.254345486E0,-2.816009521E-1,9.586471558E0,-7.151473999E0
6.259380886E0,-2.816772461E-1,9.614654541E0,-7.153961182E0
6.264416287E0,-2.658386230E-1,9.610000610E0,-7.148132324E0
6.269451687E0,-2.575225830E-1,9.645263672E0,-7.183837891E0
6.274487087E0,-2.582244873E-1,9.622329712E0,-7.116165161E0
6.279522488E0,-2.670135498E-1,9.635971069E0,-7.098175049E0
6.284557888E0,-2.890625000E-1,9.589828491E0,-7.123138428E0
6.289593289E0,-2.711181641E-1,9.597366333E0,-7.116989136E0
6.294628689E0,-2.874908447E-1,9.576904297E0,-7.066375732E0
6.299664089E0,-2.709350586E-1,9.582794189E0,-7.064437866E0
6.304699490E0,-2.624053955E-1,9.586502075E0,-7.066131592E0
6.309734890E0,-2.494812012E-1,9.592254639E0,-7.007217407E0
6.314770291E0,-2.766723633E-1,9.564147949E0,-7.023986816E0
6.319805691E0,-2.782592773E-1,9.596084595E0,-7.007949829E0
6.324841091E0,-2.536163330E-1,9.593902588E0,-7.041458130E0
6.329876492E0,-2.680053711E-1,9.636596680E0,-6.984329224E0
6.334911892E0,-2.725677490E-1,9.581909180E0,-6.988388062E0
6.339947293E0,-2.581176758E-1,9.613143921E0,-6.984924316E0
6.344982693E0,-2.772369385E-1,9.606643677E0,-6.948303223E0
6.350018093E0,-2.798156738E-1,9.607452393E0,-6.971267700E0
6.355053494E0,-2.668914795E-1,9.585983276E0,-6.948043823E0
6.360088894E0,-2.884979248E-1,9.582473755E0,-6.957778931E0
6.365124295E0,-3.032226562E-1,9.603622437E0,-6.926559448E0
6.370159695E0,-2.856292725E-1,9.613021851E0,-6.899108887E0
6.375195095E0,-2.911682129E-1,9.612091064E0,-6.930191040E0
6.380230496E0,-2.843322754E-1,9.610733032E0,-6.955062866E0
6.385265896E0,-2.809906006E-1,9.601165771E0,-6.908950806E0
6.390301296E0,-2.716674805E-1,9.593124390E0,-6.934478760E0
6.395336697E0,-2.876281738E-1,9.589935303E0,-6.912124634E0
6.400372097E0,-2.816314697E-1,9.589935303E0,-6.910385132E0
6.405407498E0,-2.995300293E-1,9.581512451E0,-6.892593384E0
6.410442898E0,-2.979888916E-1,9.577255249E0,-6.879776001E0
6.415478298E0,-2.875518799E-1,9.590972900E0,-6.869537354E0
6.420513699E0,-2.774505615E-1,9.594665527E0,-6.849227905E0
6.425549099E0,-2.899475098E-1,9.601119995E0,-6.830734253E0
6.430584500E0,-2.791900635E-1,9.577911377E0,-6.817398071E0
6.435619900E0,-2.864990234E-1,9.575668335E0,-6.852020264E0
6.440655300E0,-3.184509277E-1,9.575942993E0,-6.827117920E0
6.445690701E0,-2.973022461E-1,9.584243774E0,-6.839813232E0
6.450726101E0,-2.774963379E-1,9.568145752E0,-6.835433960E0
6.455761502E0,-2.915649414E-1,9.569854736E0,-6.781204224E0
6.460796902E0,-3.206939697E-1,9.581039429E0,-6.765625000E0
6.465832302E0,-3.218231201E-1,9.588546753E0,-6.771469116E0
6.470867703E0,-2.935180664E-1,9.593261719E0,-6.793960571E0
6.475903103E0,-2.919006348E-1,9.592605591E0,-6.808181763E0
6.480938504E0,-2.776947021E-1,9.592254639E0,-6.826171875E0
6.485973904E0,-2.766571045E-1,9.611526489E0,-6.833648682E0
6.491009304E0,-3.043823242E-1,9.600784302E0,-6.828201294E0
6.496044705E0,-3.372650146E-1,9.573394775E0,-6.847381592E0
6.501080105E0,-3.215942383E-1,9.544616699E0,-6.813583374E0
6.506115505E0,-3.002624512E-1,9.571701050E0,-6.807876587E0
6.511150906E0,-2.943878174E-1,9.601745605E0,-6.835250854E0
6.516186306E0,-2.995147705E-1,9.573074341E0,-6.803359985E0
6.521221707E0,-3.013000488E-1,9.569900513E0,-6.819030762E0
6.526257107E0,-2.837829590E-1,9.591415405E0,-6.825180054E0
6.531292507E0,-2.862701416E-1,9.582855225E0,-6.819183350E0
6.536327908E0,-2.887573242E-1,9.581176758E0,-6.835937500E0
6.541363308E0,-2.893524170E-1,9.594238281E0,-6.829757690E0
6.546398709E0,-3.038482666E-1,9.604934692E0,-6.793624878E0
6.551434109E0,-3.112945557E-1,9.603393555E0,-6.798950195E0
6.556469509E0,-3.193206787E-1,9.602264404E0,-6.838821411E0
6.561504910E0,-3.241729736E-1,9.615661621E0,-6.861984253E0
6.566540310E0,-3.125762939E-1,9.639221191E0,-6.854614258E0
6.571575711E0,-3.124694824E-1,9.614257812E0,-6.856521606E0
6.576611111E0,-3.036346436E-1,9.578903198E0,-6.879302979E0
6.581646511E0,-3.212738037E-1,9.567871094E0,-6.843826294E0
6.586681912E0,-3.193206787E-1,9.590515137E0,-6.803985596E0
6.591717312E0,-3.160858154E-1,9.608856201E0,-6.838073730E0
6.596752712E0,-3.068847656E-1,9.565887451E0,-6.838592529E0
6.601788113E0,-2.987976074E-1,9.559722900E0,-6.863601685E0
6.606823513E0,-2.706909180E-1,9.570114136E0,-6.883575439E0
6.611858914E0,-2.786560059E-1,9.593643188E0,-6.892471313E0
6.616894314E0,-2.999572754E-1,9.594375610E0,-6.848678589E0
6.621929714E0,-2.768402100E-1,9.599914551E0,-6.867172241E0
6.626965115E0,-2.781372070E-1,9.600845337E0,-6.870880127E0
6.632000515E0,-2.752227783E-1,9.572280884E0,-6.890777588E0
6.637035916E0,-2.769775391E-1,9.569976807E0,-6.864822388E0
6.642071316E0,-2.893981934E-1,9.580230713E0,-6.871917725E0
6.647106716E0,-2.809448242E-1,9.596832275E0,-6.939300537E0
6.652142117E0,-2.801361084E-1,9.600051880E0,-6.903503418E0
6.657177517E0,-3.065338135E-1,9.594055176E0,-6.893341064E0
6.662212918E0,-3.074035645E-1,9.599563599E0,-6.947052002E0
6.667248318E0,-3.014831543E-1,9.589035034E0,-6.988494873E0
6.672283718E0,-3.133544922E-1,9.575897217E0,-6.946151733E0
6.677319119E0,-3.226623535E-1,9.601348877E0,-6.952545166E0
6.682354519E0,-3.032989502E-1,9.631744385E0,-6.969528198E0
6.687389920E0,-2.864990234E-1,9.593475342E0,-6.972427368E0
6.692425320E0,-2.528228760E-1,9.590515137E0,-6.929946899E0
6.697460720E0,-2.749786377E-1,9.609924316E0,-6.986587524E0
6.702496121E0,-3.069915771E-1,9.599914551E0,-6.993087769E0
6.707531521E0,-2.822723389E-1,9.621078491E0,-6.999465942E0
6.712566921E0,-3.007812500E-1,9.629669189E0,-7.003005981E0
6.717602322E0,-2.807464600E-1,9.579589844E0,-6.983047485E0
6.722637722E0,-2.662811279E-1,9.581176758E0,-7.024856567E0
6.727673123E0,-2.916564941E-1,9.578628540E0,-7.046463013E0
6.732708523E0,-2.768096924E-1,9.596832275E0,-7.069488525E0
6.737743923E0,-3.228912354E-1,9.610031128E0,-7.034286499E0
6.742779324E0,-3.054656982E-1,9.602813721E0,-7.029556274E0
6.747814724E0,-2.963104248E-1,9.595382690E0,-7.128356934E0
6.752850125E0,-2.738494873E-1,9.625152588E0,-7.082473755E0
6.757885525E0,-2.411346436E-1,9.584182739E0,-7.046478271E0
6.762920925E0,-2.605438232E-1,9.602462769E0,-7.081329346E0
6.767956326E0,-3.002777100E-1,9.599746704E0,-7.158035278E0
6.772991726E0,-2.802581787E-1,9.619689941E0,-7.111099243E0
6.778027127E0,-2.630004883E-1,9.632263184E0,-7.171890259E0
6.783062527E0,-2.622833252E-1,9.616714478E0,-7.158691406E0
6.788097927E0,-2.622833252E-1,9.639190674E0,-7.088851929E0
6.793133328E0,-2.996826172E-1,9.604873657E0,-7.161453247E0
6.798168728E0,-3.003692627E-1,9.590103149E0,-7.169906616E0
6.803204129E0,-2.364959717E-1,9.613586426E0,-7.203109741E0
6.808239529E0,-2.860260010E-1,9.587600708E0,-7.200637817E0
6.813274929E0,-2.741088867E-1,9.596893311E0,-7.151870728E0
6.818310330E0,-2.673645020E-1,9.583007812E0,-7.226333618E0
6.823345730E0,-2.837829590E-1,9.595199585E0,-7.185226440E0
6.828381130E0,-2.848815918E-1,9.611053467E0,-7.216339111E0
6.833416531E0,-2.591705322E-1,9.603866577E0,-7.239410400E0
6.838451931E0,-2.888488770E-1,9.599502563E0,-7.204086304E0
6.843487332E0,-2.580566406E-1,9.638061523E0,-7.252502441E0
6.848522732E0,-2.634887695E-1,9.642929077E0,-7.237518311E0
6.853558132E0,-2.248687744E-1,9.596023560E0,-7.224716187E0
6.858593533E0,-2.633972168E-1,9.611358643E0,-7.276214600E0
6.863628933E0,-2.942810059E-1,9.611358643E0,-7.242156982E0
6.868664334E0,-2.604064941E-1,9.612091064E0,-7.234313965E0
6.873699734E0,-2.682495117E-1,9.616836548E0,-7.290359497E0
6.878735134E0,-2.895202637E-1,9.605957031E0,-7.247329712E0
6.883770535E0,-2.483825684E-1,9.617263794E0,-7.262130737E0
6.888805935E0,-2.677154541E-1,9.609298706E0,-7.294982910E0
6.893841336E0,-2.725067139E-1,9.610305786E0,-7.235107422E0
6.898876736E0,-2.746887207E-1,9.606094360E0,-7.275894165E0
6.903912136E0,-2.678070068E-1,9.616119385E0,-7.320343018E0
6.908947537E0,-2.792205811E-1,9.611618042E0,-7.318252563E0
6.913982937E0,-2.579650879E-1,9.594284058E0,-7.297653198E0
6.919018337E0,-2.608032227E-1,9.615524292E0,-7.300964355E0
6.924053738E0,-2.674713135E-1,9.622314453E0,-7.322982788E0
6.929089138E0,-2.804412842E-1,9.613555908E0,-7.277252197E0
6.934124539E0,-2.707672119E-1,9.604904175E0,-7.237319946E0
6.939159939E0,-2.254180908E-1,9.636932373E0,-7.234710693E0
6.944195339E0,-2.633972168E-1,9.620697021E0,-7.293655396E0
6.949230740E0,-2.545166016E-1,9.621185303E0,-7.333145142E0
6.954266140E0,-2.301483154E-1,9.597671509E0,-7.280090332E0
6.959301541E0,-2.735137939E-1,9.597213745E0,-7.275558472E0
6.964336941E0,-2.576446533E-1,9.614547729E0,-7.286392212E0
6.969372341E0,-2.384796143E-1,9.625213623E0,-7.265060425E0
6.974407742E0,-2.499084473E-1,9.625015259E0,-7.304885864E0
6.979443142E0,-2.761688232E-1,9.612045288E0,-7.317337036E0
6.984478543E0,-2.779693604E-1,9.609466553E0,-7.286651611E0
6.989513943E0,-2.731781006E-1,9.610397339E0,-7.263397217E0
6.994549343E0,-2.223510742E-1,9.629867554E0,-7.237976074E0
6.999584744E0,-2.391052246E-1,9.611572266E0,-7.233673096E0
7.004620144E0,-2.369842529E-1,9.613632202E0,-7.269973755E0
7.009655545E0,-2.318725586E-1,9.635681152E0,-7.227813721E0
7.014690945E0,-2.667083740E-1,9.601242065E0,-7.178176880E0
7.019726345E0,-2.510528564E-1,9.594299316E0,-7.243103027E0
7.024761746E0,-2.453918457E-1,9.623260498E0,-7.232864380E0
7.029797146E0,-2.426452637E-1,9.628601074E0,-7.166961670E0
7.034832546E0,-2.465362549E-1,9.627471924E0,-7.220321655E0
7.039867947E0,-2.498626709E-1,9.599273682E0,-7.240997314E0
7.044903347E0,-2.508697510E-1,9.586105347E0,-7.208160400E0
7.049938748E0,-2.596740723E-1,9.606353760E0,-7.164260864E0
7.054974148E0,-2.616729736E-1,9.605377197E0,-7.198593140E0
7.060009548E0,-2.469635010E-1,9.593612671E0,-7.234313965E0
7.065044949E0,-2.644805908E-1,9.608245850E0,-7.227661133E0
7.070080349E0,-2.755126953E-1,9.596786499E0,-7.221527100E0
7.075115750E0,-2.516326904E-1,9.602584839E0,-7.235687256E0
7.080151150E0,-2.559661865E-1,9.619781494E0,-7.206680298E0
7.085186550E0,-2.965850830E-1,9.612899780E0,-7.120681763E0
7.090221951E0,-3.037719727E-1,9.614517212E0,-7.141983032E0
7.095257351E0,-2.832946777E-1,9.618637085E0,-7.166091919E0
7.100292752E0,-2.669372559E-1,9.609024048E0,-7.157150269E0
7.105328152E0,-2.884674072E-1,9.600646973E0,-7.145004272E0
7.110363552E0,-2.918853760E-1,9.604339600E0,-7.135147095E0
7.115398953E0,-2.849426270E-1,9.608886719E0,-7.136123657E0
7.120434353E0,-2.636260986E-1,9.614074707E0,-7.147079468E0
7.125469754E0,-2.724761963E-1,9.610702515E0,-7.114746094E0
7.130505154E0,-2.812042236E-1,9.590209961E0,-7.109527588E0
7.135540554E0,-2.657318115E-1,9.606689453E0,-7.097167969E0
7.140575955E0,-2.686767578E-1,9.603973389E0,-7.097473145E0
7.145611355E0,-2.544708252E-1,9.602508545E0,-7.119247437E0
7.150646755E0,-2.680664062E-1,9.635147095E0,-7.107421875E0
7.155682156E0,-2.912597656E-1,9.611816406E0,-7.061370850E0
7.160717556E0,-3.059844971E-1,9.573837280E0,-7.062179565E0
7.165752957E0,-2.873535156E-1,9.583374023E0,-7.036422729E0
7.170788357E0,-2.737884521E-1,9.607757568E0,-7.050216675E0
7.175823757E0,-2.868957520E-1,9.608734131E0,-7.029953003E0
7.180859158E0,-2.932281494E-1,9.617660522E0,-7.009948730E0
7.185894558E0,-2.856445312E-1,9.596771240E0,-7.044128418E0
7.190929959E0,-2.813262939E-1,9.595794678E0,-7.043563843E0
7.195965359E0,-2.720184326E-1,9.596450806E0,-7.009460449E0
7.201000759E0,-2.859802246E-1,9.608078003E0,-7.027770996E0
7.206036160E0,-2.972106934E-1,9.584182739E0,-7.029464722E0
7.211071560E0,-2.931671143E-1,9.600723267E0,-7.046569824E0
7.216106961E0,-2.924957275E-1,9.601394653E0,-6.997604370E0
7.221142361E0,-3.097839355E-1,9.614547729E0,-7.004791260E0
7.226177761E0,-3.070220947E-1,9.613235474E0,-6.989974976E0
7.231213162E0,-3.146209717E-1,9.603881836E0,-6.973785400E0
7.236248562E0,-2.937316895E-1,9.594985962E0,-6.922744751E0
7.241283962E0,-3.044433594E-1,9.588851929E0,-6.943115234E0
7.246319363E0,-3.052673340E-1,9.603317261E0,-6.947616577E0
7.251354763E0,-2.744293213E-1,9.594802856E0,-6.947402954E0
7.256390164E0,-2.916107178E-1,9.595321655E0,-6.937835693E0
7.261425564E0,-3.058166504E-1,9.575302124E0,-6.925262451E0
7.266460964E0,-2.928924561E-1,9.592285156E0,-6.904144287E0
7.271496365E0,-2.810974121E-1,9.588394165E0,-6.941024780E0
7.276531765E0,-2.920379639E-1,9.600128174E0,-6.897293091E0
7.281567166E0,-3.125915527E-1,9.607986450E0,-6.932907104E0
7.286602566E0,-2.998199463E-1,9.595581055E0,-6.929016113E0
7.291637966E0,-2.936859131E-1,9.603897095E0,-6.876556396E0
7.296673367E0,-2.776794434E-1,9.600753784E0,-6.888641357E0
7.301708767E0,-3.039398193E-1,9.567718506E0,-6.923614502E0
7.306744168E0,-2.998809814E-1,9.573379517E0,-6.883499146E0
7.311779568E0,-2.939605713E-1,9.589767456E0,-6.834472656E0
7.316814968E0,-2.850646973E-1,9.604568481E0,-6.835388184E0
7.321850369E0,-2.713470459E-1,9.585983276E0,-6.954223633E0
7.326885769E0,-2.900543213E-1,9.591033936E0,-6.891967773E0
7.331921170E0,-2.911529541E-1,9.579772949E0,-6.887939453E0
7.336956570E0,-3.034820557E-1,9.605392456E0,-6.889114380E0
7.341991970E0,-2.945404053E-1,9.598373413E0,-6.891220093E0
7.347027371E0,-3.018188477E-1,9.599212646E0,-6.852844238E0
7.352062771E0,-3.027496338E-1,9.595123291E0,-6.837829590E0
7.357098171E0,-3.202819824E-1,9.588119507E0,-6.900268555E0
7.362133572E0,-3.350372314E-1,9.607406616E0,-6.813110352E0
7.367168972E0,-3.027648926E-1,9.595642090E0,-6.788024902E0
7.372204373E0,-3.296203613E-1,9.594696045E0,-6.890197754E0
7.377239773E0,-2.950897217E-1,9.642242432E0,-6.891723633E0
7.382275173E0,-3.319702148E-1,9.564926147E0,-6.864135742E0
7.387310574E0,-3.037109375E-1,9.586746216E0,-6.837539673E0
7.392345974E0,-3.213348389E-1,9.568969727E0,-6.820480347E0
7.397381375E0,-2.794799805E-1,9.620223999E0,-6.878860474E0
7.402416775E0,-2.955169678E-1,9.632705688E0,-6.818069458E0
7.407452175E0,-2.907409668E-1,9.606506348E0,-6.841171265E0
7.412487576E0,-2.722778320E-1,9.592712402E0,-6.787246704E0
7.417522976E0,-3.100280762E-1,9.625320435E0,-6.828262329E0
7.422558377E0,-3.161010742E-1,9.608093262E0,-6.882308960E0
7.427593777E0,-2.870483398E-1,9.581619263E0,-6.819351196E0
7.432629177E0,-3.111572266E-1,9.612503052E0,-6.864151001E0
7.437664578E0,-2.871398926E-1,9.586471558E0,-6.890182495E0
7.442699978E0,-3.025207520E-1,9.609405518E0,-6.866378784E0
7.447735379E0,-2.648315430E-1,9.613250732E0,-6.851013184E0
7.452770779E0,-2.997283936E-1,9.575363159E0,-6.918151855E0
7.457806179E0,-2.910614014E-1,9.602172852E0,-6.923995972E0
7.462841580E0,-2.950897217E-1,9.577392578E0,-6.916915894E0
7.467876980E0,-3.130187988E-1,9.554153442E0,-6.927261353E0
7.472912380E0,-3.178405762E-1,9.597320557E0,-6.888565063E0
7.477947781E0,-3.025207520E-1,9.612396240E0,-6.910644531E0
7.482983181E0,-2.840270996E-1,9.570037842E0,-6.951248169E0
7.488018582E0,-2.887725830E-1,9.578735352E0,-6.879791260E0
7.493053982E0,-3.002624512E-1,9.567810059E0,-6.922027588E0
7.498089382E0,-2.747344971E-1,9.569580078E0,-6.907226562E0
7.503124783E0,-2.932128906E-1,9.601440430E0,-6.920379639E0
7.508160183E0,-3.006744385E-1,9.594573975E0,-6.953140259E0
7.513195584E0,-2.810668945E-1,9.577239990E0,-6.985000610E0
7.518230984E0,-2.881622314E-1,9.610641479E0,-6.968627930E0
7.523266384E0,-2.835388184E-1,9.616867065E0,-6.935668945E0
7.528301785E0,-3.069763184E-1,9.578598022E0,-6.957748413E0
7.533337185E0,-2.830505371E-1,9.610488892E0,-6.996520996E0
7.538372586E0,-2.828521729E-1,9.616119385E0,-7.038299561E0
7.543407986E0,-3.146362305E-1,9.610046387E0,-7.016693115E0
7.548443386E0,-2.885894775E-1,9.592758179E0,-6.997222900E0
7.553478787E0,-2.860107422E-1,9.598907471E0,-7.039779663E0
7.558514187E0,-3.015899658E-1,9.593582153E0,-7.019424438E0
7.563549587E0,-3.038940430E-1,9.596099854E0,-7.020767212E0
7.568584988E0,-2.965240479E-1,9.588043213E0,-7.019271851E0
7.573620388E0,-2.887725830E-1,9.624679565E0,-7.014831543E0
7.578655789E0,-2.901611328E-1,9.616790771E0,-7.072723389E0
7.583691189E0,-2.800750732E-1,9.615692139E0,-7.063430786E0
7.588726589E0,-2.870178223E-1,9.603897095E0,-7.066421509E0
7.593761990E0,-2.888946533E-1,9.591567993E0,-7.086578369E0
7.598797390E0,-3.049316406E-1,9.599792480E0,-7.070571899E0
7.603832791E0,-2.950592041E-1,9.617736816E0,-7.086624146E0
7.608868191E0,-2.615814209E-1,9.612152100E0,-7.097000122E0
7.613903591E0,-2.551574707E-1,9.602981567E0,-7.092788696E0
7.618938992E0,-2.312316895E-1,9.581939697E0,-7.112228394E0
7.623974392E0,-2.613372803E-1,9.582977295E0,-7.165039062E0
7.629009793E0,-2.818298340E-1,9.589294434E0,-7.155212402E0
7.634045193E0,-2.737579346E-1,9.595901489E0,-7.152481079E0
7.639080593E0,-2.447204590E-1,9.613723755E0,-7.139984131E0
7.644115994E0,-2.451171875E-1,9.634643555E0,-7.105209351E0
7.649151394E0,-2.709960938E-1,9.629867554E0,-7.129180908E0
7.654186795E0,-2.855682373E-1,9.610671997E0,-7.157531738E0
7.659222195E0,-2.655487061E-1,9.605453491E0,-7.138305664E0
7.664257595E0,-2.653961182E-1,9.624908447E0,-7.131851196E0
7.669292996E0,-2.586364746E-1,9.622390747E0,-7.154037476E0
7.674328396E0,-2.799530029E-1,9.608917236E0,-7.167556763E0
7.679363796E0,-2.728271484E-1,9.621948242E0,-7.185958862E0
7.684399197E0,-2.633361816E-1,9.616683960E0,-7.214599609E0
7.689434597E0,-2.723999023E-1,9.617904663E0,-7.209960938E0
7.694469998E0,-2.656860352E-1,9.630279541E0,-7.134109497E0
7.699505398E0,-2.544403076E-1,9.606246948E0,-7.131668091E0
7.704540798E0,-2.537689209E-1,9.599182129E0,-7.181869507E0
7.709576199E0,-2.765655518E-1,9.612548828E0,-7.186660767E0
7.714611599E0,-2.837066650E-1,9.613906860E0,-7.151458740E0
7.719647000E0,-2.726135254E-1,9.634353638E0,-7.179397583E0
7.724682400E0,-2.585449219E-1,9.620956421E0,-7.234024048E0
7.729717800E0,-2.360992432E-1,9.613418579E0,-7.238388062E0
7.734753201E0,-2.310638428E-1,9.616592407E0,-7.221618652E0
7.739788601E0,-2.434997559E-1,9.607650757E0,-7.220657349E0
7.744824002E0,-2.589874268E-1,9.601242065E0,-7.216613770E0
7.749859402E0,-2.559356689E-1,9.583572388E0,-7.202285767E0
7.754894802E0,-2.456207275E-1,9.589447021E0,-7.241058350E0
7.759930203E0,-2.511291504E-1,9.614212036E0,-7.274093628E0
7.764965603E0,-2.706298828E-1,9.604949951E0,-7.240509033E0
7.770001004E0,-2.755737305E-1,9.582229614E0,-7.236816406E0
7.775036404E0,-2.688751221E-1,9.594696045E0,-7.240661621E0
7.780071804E0,-2.566833496E-1,9.594741821E0,-7.237228394E0
7.785107205E0,-2.609252930E-1,9.607101440E0,-7.226989746E0
7.790142605E0,-2.807617188E-1,9.616973877E0,-7.226074219E0
7.795178005E0,-3.023223877E-1,9.611495972E0,-7.247955322E0
7.800213406E0,-2.802124023E-1,9.598037720E0,-7.240875244E0
7.805248806E0,-2.488555908E-1,9.606552124E0,-7.247695923E0
7.810284207E0,-2.296905518E-1,9.618515015E0,-7.234924316E0
7.815319607E0,-2.436523438E-1,9.628982544E0,-7.292816162E0
7.820355007E0,-2.462158203E-1,9.613098145E0,-7.241073608E0
7.825390408E0,-2.498626709E-1,9.609176636E0,-7.195037842E0
7.830425808E0,-2.645263672E-1,9.628143311E0,-7.255233765E0
7.835461209E0,-2.744903564E-1,9.630096436E0,-7.263305664E0
7.840496609E0,-2.799835205E-1,9.602386475E0,-7.243728638E0
7.845532009E0,-2.727050781E-1,9.566406250E0,-7.213119507E0
7.850567410E0,-2.485351562E-1,9.582733154E0,-7.266021729E0
7.855602810E0,-2.656097412E-1,9.618820190E0,-7.250137329E0
7.860638211E0,-2.706146240E-1,9.633377075E0,-7.258071899E0
7.865673611E0,-3.000335693E-1,9.624359131E0,-7.276000977E0
7.870709011E0,-2.209930420E-1,9.611801147E0,-7.201477051E0
7.875744412E0,-2.411041260E-1,9.607131958E0,-7.212097168E0
7.880779812E0,-2.700195312E-1,9.612167358E0,-7.274383545E0
7.885815212E0,-2.591247559E-1,9.611846924E0,-7.232498169E0
7.890850613E0,-2.266235352E-1,9.588531494E0,-7.240417480E0
7.895886013E0,-2.502899170E-1,9.596282959E0,-7.226882935E0
7.900921414E0,-2.633666992E-1,9.613067627E0,-7.218475342E0
7.905956814E0,-2.529144287E-1,9.618072510E0,-7.196044922E0
7.910992214E0,-2.305297852E-1,9.630401611E0,-7.213256836E0
7.916027615E0,-2.546234131E-1,9.632781982E0,-7.203582764E0
7.921063015E0,-2.660064697E-1,9.618560791E0,-7.209060669E0
7.926098416E0,-2.506866455E-1,9.618164062E0,-7.142929077E0
7.931133816E0,-2.851104736E-1,9.624679565E0,-7.175186157E0
7.936169216E0,-2.783203125E-1,9.594314575E0,-7.165191650E0
7.941204617E0,-2.681579590E-1,9.615188599E0,-7.143905640E0
7.946240017E0,-2.286682129E-1,9.607833862E0,-7.141433716E0
7.951275418E0,-2.585754395E-1,9.606597900E0,-7.173645020E0
7.956310818E0,-2.839202881E-1,9.606597900E0,-7.131713867E0
7.961346218E0,-2.882843018E-1,9.597824097E0,-7.164382935E0
7.966381619E0,-2.686157227E-1,9.608093262E0,-7.110244751E0
7.971417019E0,-2.581634521E-1,9.622299194E0,-7.143478394E0
7.976452420E0,-2.238006592E-1,9.627746582E0,-7.175430298E0
7.981487820E0,-2.874908447E-1,9.598571777E0,-7.061660767E0
7.986523220E0,-2.541656494E-1,9.603942871E0,-7.051147461E0
7.991558621E0,-2.619934082E-1,9.590362549E0,-7.140975952E0
7.996594021E0,-2.924804688E-1,9.582962036E0,-7.127548218E0
8.001629421E0,-2.650146484E-1,9.596893311E0,-7.054260254E0
8.006664822E0,-2.575683594E-1,9.589965820E0,-7.024963379E0
8.011700222E0,-2.954406738E-1,9.592315674E0,-7.015411377E0
8.016735623E0,-2.669677734E-1,9.592544556E0,-7.039184570E0
8.021771023E0,-2.602233887E-1,9.611038208E0,-7.048065186E0
8.026806423E0,-2.762756348E-1,9.595123291E0,-7.019668579E0
8.031841824E0,-2.660064697E-1,9.608535767E0,-7.007949829E0
8.036877224E0,-2.398223877E-1,9.597579956E0,-7.005401611E0
8.041912625E0,-2.679901123E-1,9.608978271E0,-7.047714233E0
8.046948025E0,-2.464599609E-1,9.609848022E0,-6.995544434E0
8.051983425E0,-2.921295166E-1,9.620285034E0,-7.054275513E0
8.057018826E0,-2.509918213E-1,9.583724976E0,-7.003509521E0
8.062054226E0,-2.859191895E-1,9.596282959E0,-6.978240967E0
8.067089627E0,-2.813873291E-1,9.614715576E0,-6.990295410E0
8.072125027E0,-2.663269043E-1,9.602081299E0,-6.980056763E0
8.077160427E0,-3.168029785E-1,9.602111816E0,-6.984054565E0
8.082195828E0,-2.780303955E-1,9.584869385E0,-6.983398438E0
8.087231228E0,-2.850952148E-1,9.583099365E0,-6.991394043E0
8.092266629E0,-2.716369629E-1,9.585830688E0,-6.970794678E0
8.097302029E0,-3.201751709E-1,9.588180542E0,-6.943786621E0
8.102337429E0,-2.739562988E-1,9.578399658E0,-6.932586670E0
8.107372830E0,-2.960357666E-1,9.584716797E0,-6.944305420E0
8.112408230E0,-2.914123535E-1,9.607818604E0,-6.921615601E0
8.117443630E0,-3.152923584E-1,9.609375000E0,-6.932907104E0
8.122479031E0,-2.993774414E-1,9.592636108E0,-6.996917725E0
8.127514431E0,-2.651519775E-1,9.596069336E0,-6.962310791E0
8.132549832E0,-2.739562988E-1,9.567687988E0,-6.900772095E0
8.137585232E0,-3.044586182E-1,9.585342407E0,-6.921569824E0
8.142620632E0,-3.151245117E-1,9.592010498E0,-6.908523560E0
8.147656033E0,-2.987213135E-1,9.582229614E0,-6.934341431E0
8.152691433E0,-2.886810303E-1,9.583251953E0,-6.916107178E0
8.157726834E0,-2.908477783E-1,9.592315674E0,-6.865905762E0
8.162762234E0,-3.291931152E-1,9.589859009E0,-6.900756836E0
8.167797634E0,-2.943420410E-1,9.585342407E0,-6.925399780E0
8.172833035E0,-3.000030518E-1,9.591003418E0,-6.889907837E0
8.177868435E0,-3.214874268E-1,9.593597412E0,-6.859863281E0
8.182903836E0,-3.097839355E-1,9.612457275E0,-6.865127563E0
8.187939236E0,-2.937011719E-1,9.601547241E0,-6.890548706E0
8.192974636E0,-2.926025391E-1,9.570663452E0,-6.915710449E0
8.198010037E0,-3.122711182E-1,9.600326538E0,-6.926437378E0
8.203045437E0,-3.029937744E-1,9.600158691E0,-6.924041748E0
8.208080837E0,-2.845153809E-1,9.598602295E0,-6.900878906E0
8.213116238E0,-2.909698486E-1,9.594985962E0,-6.867095947E0
8.218151638E0,-2.912139893E-1,9.615997314E0,-6.885177612E0
8.223187039E0,-2.759094238E-1,9.599365234E0,-6.889297485E0
8.228222439E0,-2.850494385E-1,9.587600708E0,-6.887771606E0
8.233257839E0,-2.840423584E-1,9.584609985E0,-6.883438110E0
8.238293240E0,-2.738647461E-1,9.565643311E0,-6.899383545E0
8.243328640E0,-3.065032959E-1,9.588500977E0,-6.891067505E0
8.248364041E0,-3.171691895E-1,9.585067749E0,-6.869186401E0
8.253399441E0,-3.090209961E-1,9.570129395E0,-6.882720947E0
8.258434841E0,-3.252716064E-1,9.575103760E0,-6.902938843E0
8.263470242E0,-3.036499023E-1,9.607376099E0,-6.898803711E0
8.268505642E0,-2.798309326E-1,9.603103638E0,-6.887649536E0
8.273541043E0,-2.814025879E-1,9.585739136E0,-6.903137207E0
8.278576443E0,-3.171844482E-1,9.582504272E0,-6.888351440E0
8.283611843E0,-3.136138916E-1,9.581909180E0,-6.902984619E0
8.288647244E0,-2.923126221E-1,9.590194702E0,-6.943862915E0
8.293682644E0,-3.064422607E-1,9.599014282E0,-6.896560669E0
8.298718045E0,-3.039398193E-1,9.600799561E0,-6.870956421E0
8.303753445E0,-3.063201904E-1,9.578033447E0,-6.891494751E0
8.308788845E0,-3.075103760E-1,9.569702148E0,-6.921661377E0
8.313824246E0,-2.867889404E-1,9.576980591E0,-6.900894165E0
8.318859646E0,-2.756805420E-1,9.593887329E0,-6.907852173E0
8.323895046E0,-2.849731445E-1,9.589141846E0,-6.928985596E0
8.328930447E0,-2.950286865E-1,9.594802856E0,-6.913955688E0
8.333965847E0,-3.001556396E-1,9.598358154E0,-6.945388794E0
8.339001248E0,-2.966766357E-1,9.576980591E0,-6.936737061E0
8.344036648E0,-3.009643555E-1,9.601882935E0,-6.929687500E0
8.349072048E0,-3.037719727E-1,9.613067627E0,-6.937728882E0
8.354107449E0,-2.972412109E-1,9.593551636E0,-6.931198120E0
8.359142849E0,-3.198699951E-1,9.594558716E0,-6.928588867E0
8.364178250E0,-3.117675781E-1,9.605072021E0,-6.953460693E0
8.369213650E0,-3.047027588E-1,9.617568970E0,-6.949966431E0
8.374249050E0,-3.108062744E-1,9.611526489E0,-6.941116333E0
8.379284451E0,-2.950897217E-1,9.595321655E0,-6.954223633E0
8.384319851E0,-2.800750732E-1,9.601959229E0,-6.968032837E0
8.389355252E0,-2.902832031E-1,9.599822998E0,-6.969375610E0
8.394390652E0,-2.918090820E-1,9.591598511E0,-6.989334106E0
8.399426052E0,-2.869110107E-1,9.600906372E0,-7.038604736E0
8.404461453E0,-2.924194336E-1,9.595520020E0,-7.005905151E0
8.409496853E0,-2.779388428E-1,9.578689575E0,-7.000442505E0
8.414532254E0,-2.531738281E-1,9.605773926E0,-6.987747192E0
8.419567654E0,-2.718658447E-1,9.604476929E0,-7.024749756E0
8.424603054E0,-2.770538330E-1,9.618713379E0,-6.971298218E0
8.429638455E0,-3.213348389E-1,9.596023560E0,-7.041793823E0
8.434673855E0,-2.899017334E-1,9.616744995E0,-7.057128906E0
8.439709255E0,-2.935638428E-1,9.604553223E0,-7.034149170E0
8.444744656E0,-2.940521240E-1,9.605133057E0,-7.081802368E0
8.449780056E0,-2.820739746E-1,9.598434448E0,-7.104476929E0
8.454815457E0,-2.771759033E-1,9.624969482E0,-7.087905884E0
8.459850857E0,-2.837677002E-1,9.635162354E0,-7.071121216E0
8.464886257E0,-2.915649414E-1,9.644287109E0,-7.118743896E0
8.469921658E0,-2.913970947E-1,9.615722656E0,-7.115844727E0
8.474957058E0,-3.020019531E-1,9.625167847E0,-7.077041626E0
8.479992459E0,-2.900695801E-1,9.605911255E0,-7.101547241E0
8.485027859E0,-2.670745850E-1,9.605148315E0,-7.118087769E0
8.490063259E0,-2.777099609E-1,9.581527710E0,-7.135421753E0
8.495098660E0,-2.832794189E-1,9.583419800E0,-7.144882202E0
8.500134060E0,-2.798004150E-1,9.600845337E0,-7.171661377E0
8.505169461E0,-2.729949951E-1,9.622085571E0,-7.137405396E0
8.510204861E0,-2.758178711E-1,9.605606079E0,-7.139541626E0
8.515240261E0,-2.745513916E-1,9.611923218E0,-7.161605835E0
8.520275662E0,-2.864532471E-1,9.648483276E0,-7.171356201E0
8.525311062E0,-2.864074707E-1,9.608856201E0,-7.157943726E0
8.530346462E0,-2.881774902E-1,9.632965088E0,-7.105895996E0
8.535381863E0,-2.737579346E-1,9.601791382E0,-7.193206787E0
8.540417263E0,-2.866516113E-1,9.605545044E0,-7.148483276E0
8.545452664E0,-2.927703857E-1,9.593704224E0,-7.186508179E0
8.550488064E0,-2.672882080E-1,9.616104126E0,-7.223846436E0
8.555523464E0,-2.994995117E-1,9.583663940E0,-7.192291260E0
8.560558865E0,-2.873229980E-1,9.602462769E0,-7.147140503E0
8.565594265E0,-2.727661133E-1,9.564239502E0,-7.154907227E0
8.570629666E0,-2.740631104E-1,9.613082886E0,-7.191696167E0
8.575665066E0,-2.855072021E-1,9.611587524E0,-7.191528320E0
8.580700466E0,-2.450714111E-1,9.625030518E0,-7.168624878E0
8.585735867E0,-3.032379150E-1,9.625640869E0,-7.232208252E0
8.590771267E0,-2.610168457E-1,9.597763062E0,-7.197097778E0
8.595806668E0,-2.975311279E-1,9.592361450E0,-7.226745605E0
8.600842068E0,-2.767028809E-1,9.599411011E0,-7.222381592E0
8.605877468E0,-3.051300049E-1,9.597076416E0,-7.191421509E0
8.610912869E0,-2.742462158E-1,9.623229980E0,-7.215362549E0
8.615948269E0,-2.785644531E-1,9.620040894E0,-7.226516724E0
8.620983670E0,-2.570648193E-1,9.576583862E0,-7.194259644E0
8.626019070E0,-2.394409180E-1,9.612518311E0,-7.213180542E0
8.631054470E0,-2.644653320E-1,9.582336426E0,-7.224090576E0
8.636089871E0,-2.611999512E-1,9.623641968E0,-7.261886597E0
8.641125271E0,-2.847900391E-1,9.585754395E0,-7.240005493E0
8.646160671E0,-2.665863037E-1,9.593887329E0,-7.180130005E0
8.651196072E0,-2.884979248E-1,9.583129883E0,-7.157455444E0
8.656231472E0,-2.305908203E-1,9.586532593E0,-7.179306030E0
8.661266873E0,-2.490997314E-1,9.579376221E0,-7.184799194E0
8.666302273E0,-2.599029541E-1,9.612701416E0,-7.250213623E0
8.671337673E0,-2.566223145E-1,9.586074829E0,-7.164932251E0
8.676373074E0,-2.304687500E-1,9.614440918E0,-7.203201294E0
8.681408474E0,-2.611236572E-1,9.606094360E0,-7.190979004E0
8.686443875E0,-2.723083496E-1,9.629409790E0,-7.235366821E0
8.691479275E0,-2.851409912E-1,9.600708008E0,-7.220062256E0
8.696514675E0,-2.467651367E-1,9.640930176E0,-7.178939819E0
8.701550076E0,-2.322387695E-1,9.578140259E0,-7.192810059E0
8.706585476E0,-2.626800537E-1,9.574447632E0,-7.200149536E0
8.711620877E0,-2.655487061E-1,9.619598389E0,-7.140151978E0
8.716656277E0,-2.608337402E-1,9.626098633E0,-7.157058716E0
8.721691677E0,-2.246856689E-1,9.589462280E0,-7.169555664E0
8.726727078E0,-2.379302979E-1,9.600524902E0,-7.209991455E0
8.731762478E0,-2.752075195E-1,9.619354248E0,-7.254653931E0
8.736797879E0,-2.522277832E-1,9.637771606E0,-7.208084106E0
8.741833279E0,-2.481689453E-1,9.615966797E0,-7.157608032E0
8.746868679E0,-2.455139160E-1,9.578369141E0,-7.168487549E0
8.751904080E0,-2.628784180E-1,9.611953735E0,-7.145004272E0
8.756939480E0,-2.791748047E-1,9.623931885E0,-7.159957886E0
8.761974880E0,-2.991027832E-1,9.631500244E0,-7.124526978E0
8.767010281E0,-2.962646484E-1,9.623443604E0,-7.154357910E0
8.772045681E0,-2.899322510E-1,9.612701416E0,-7.126525879E0
8.777081082E0,-2.673492432E-1,9.608444214E0,-7.121215820E0
8.782116482E0,-2.743835449E-1,9.602020264E0,-7.119384766E0
8.787151882E0,-2.911529541E-1,9.615158081E0,-7.068359375E0
8.792187283E0,-2.639312744E-1,9.588546753E0,-7.085556030E0
8.797222683E0,-2.645721436E-1,9.602798462E0,-7.121520996E0
8.802258084E0,-2.686462402E-1,9.602523804E0,-7.123977661E0
8.807293484E0,-2.726745605E-1,9.604843140E0,-7.103103638E0
8.812328884E0,-2.754364014E-1,9.579681396E0,-7.080139160E0
8.817364285E0,-2.666931152E-1,9.589569092E0,-7.108108521E0
8.822399685E0,-2.850494385E-1,9.591384888E0,-7.096786499E0
8.827435086E0,-2.867584229E-1,9.565292358E0,-7.077163696E0
8.832470486E0,-2.754058838E-1,9.568939209E0,-7.078048706E0
8.837505886E0,-2.767333984E-1,9.590621948E0,-7.090576172E0
8.842541287E0,-2.675476074E-1,9.594558716E0,-7.072250366E0
8.847576687E0,-2.829895020E-1,9.610336304E0,-7.066802979E0
8.852612087E0,-2.822570801E-1,9.612686157E0,-7.105484009E0
8.857647488E0,-2.622833252E-1,9.632019043E0,-7.063125610E0
8.862682888E0,-2.731475830E-1,9.634475708E0,-7.054687500E0
8.867718289E0,-2.715759277E-1,9.630401611E0,-7.030136108E0
8.872753689E0,-2.818450928E-1,9.622970581E0,-7.029022217E0
8.877789089E0,-2.743988037E-1,9.588882446E0,-7.041870117E0
8.882824490E0,-2.860870361E-1,9.556777954E0,-7.035522461E0
8.887859890E0,-2.872161865E-1,9.564285278E0,-7.039993286E0
8.892895291E0,-2.782287598E-1,9.595016479E0,-7.034500122E0
8.897930691E0,-2.728576660E-1,9.601013184E0,-7.002151489E0
8.902966091E0,-2.789459229E-1,9.610000610E0,-7.018737793E0
8.908001492E0,-2.741394043E-1,9.618286133E0,-7.011413574E0
8.913036892E0,-2.889404297E-1,9.593292236E0,-6.982986450E0
8.918072293E0,-2.963409424E-1,9.598815918E0,-6.968490601E0
8.923107693E0,-2.797851562E-1,9.612609863E0,-6.979461670E0
8.928143093E0,-2.754669189E-1,9.594573975E0,-7.002609253E0
8.933178494E0,-2.713775635E-1,9.581924438E0,-7.017227173E0
8.938213894E0,-2.564849854E-1,9.594406128E0,-6.981201172E0
8.943249295E0,-2.533874512E-1,9.599136353E0,-6.963699341E0
8.948284695E0,-2.534332275E-1,9.606613159E0,-6.944442749E0
8.953320095E0,-2.779693604E-1,9.609588623E0,-6.939361572E0
8.958355496E0,-2.951965332E-1,9.607986450E0,-6.921127319E0
8.963390896E0,-2.903900146E-1,9.589050293E0,-6.949829102E0
8.968426296E0,-2.741088867E-1,9.595764160E0,-6.971389771E0
8.973461697E0,-2.603454590E-1,9.617630005E0,-6.944137573E0
8.978497097E0,-2.781066895E-1,9.602676392E0,-6.951049805E0
8.983532498E0,-2.758178711E-1,9.603469849E0,-6.941833496E0
8.988567898E0,-2.609558105E-1,9.585449219E0,-6.941772461E0
8.993603298E0,-2.790679932E-1,9.589340210E0,-6.910156250E0
8.998638699E0,-2.767944336E-1,9.618194580E0,-6.918792725E0
9.003674099E0,-2.805023193E-1,9.591629028E0,-6.891616821E0
9.008709500E0,-3.020629883E-1,9.568481445E0,-6.881240845E0
9.013744900E0,-3.017883301E-1,9.601791382E0,-6.898071289E0
9.018780300E0,-2.930755615E-1,9.613571167E0,-6.913223267E0
9.023815701E0,-2.925262451E-1,9.606353760E0,-6.924331665E0
9.028851101E0,-3.033447266E-1,9.590744019E0,-6.944030762E0
9.033886502E0,-3.126068115E-1,9.583465576E0,-6.925521851E0
9.038921902E0,-3.094940186E-1,9.574172974E0,-6.918731689E0
9.043957302E0,-3.022918701E-1,9.588302612E0,-6.954879761E0
9.048992703E0,-2.933502197E-1,9.584152222E0,-6.920242310E0
9.054028103E0,-3.015441895E-1,9.573272705E0,-6.908737183E0
9.059063504E0,-2.943420410E-1,9.601486206E0,-6.905136108E0
9.064098904E0,-2.981109619E-1,9.605911255E0,-6.876174927E0
9.069134304E0,-3.114166260E-1,9.606048584E0,-6.906326294E0
9.074169705E0,-2.682189941E-1,9.615875244E0,-6.939971924E0
9.079205105E0,-2.757415771E-1,9.618499756E0,-6.905044556E0
9.084240505E0,-2.699432373E-1,9.578628540E0,-6.937530518E0
9.089275906E0,-3.072814941E-1,9.576171875E0,-6.887313843E0
9.094311306E0,-2.781982422E-1,9.601333618E0,-6.903518677E0
9.099346707E0,-2.792358398E-1,9.592880249E0,-6.918365479E0
9.104382107E0,-2.991027832E-1,9.562286377E0,-6.937820435E0
9.109417507E0,-3.187561035E-1,9.588607788E0,-6.931472778E0
9.114452908E0,-2.975921631E-1,9.594696045E0,-6.899307251E0
9.119488308E0,-2.790069580E-1,9.602813721E0,-6.867446899E0
9.124523709E0,-2.930450439E-1,9.628921509E0,-6.932937622E0
9.129559109E0,-3.039245605E-1,9.593338013E0,-6.896118164E0
9.134594509E0,-2.799072266E-1,9.587554932E0,-6.872283936E0
9.139629910E0,-2.955322266E-1,9.604400635E0,-6.960632324E0
9.144665310E0,-3.171844482E-1,9.640701294E0,-6.944702148E0
9.149700711E0,-3.086090088E-1,9.603607178E0,-6.939315796E0
9.154736111E0,-2.835693359E-1,9.586380005E0,-6.906433105E0
9.159771511E0,-2.901000977E-1,9.598312378E0,-7.015167236E0
9.164806912E0,-2.686614990E-1,9.579467773E0,-6.929336548E0
9.169842312E0,-3.050537109E-1,9.578033447E0,-6.942550659E0
9.174877712E0,-2.535247803E-1,9.605026245E0,-6.892105103E0
9.179913113E0,-3.050689697E-1,9.597473145E0,-6.959732056E0
9.184948513E0,-2.890625000E-1,9.624755859E0,-6.974441528E0
9.189983914E0,-3.256378174E-1,9.623306274E0,-6.998016357E0
9.195019314E0,-2.959899902E-1,9.592681885E0,-7.015060425E0
9.200054714E0,-3.003540039E-1,9.637252808E0,-6.958480835E0
9.205090115E0,-2.575225830E-1,9.637542725E0,-7.034317017E0
9.210125515E0,-3.094024658E-1,9.599502563E0,-6.953964233E0
9.215160916E0,-2.694702148E-1,9.604080200E0,-7.001022339E0
9.220196316E0,-2.718658447E-1,9.597244263E0,-7.004409790E0
9.225231716E0,-2.748870850E-1,9.605514526E0,-7.043853760E0
9.230267117E0,-2.923126221E-1,9.639709473E0,-6.983581543E0
9.235302517E0,-2.727203369E-1,9.632934570E0,-7.022903442E0
9.240337918E0,-2.886199951E-1,9.595275879E0,-7.068481445E0
9.245373318E0,-2.929382324E-1,9.603088379E0,-7.003784180E0
9.250408718E0,-3.206787109E-1,9.586990356E0,-6.949478149E0
9.255444119E0,-3.046722412E-1,9.580215454E0,-7.016220093E0
9.260479519E0,-2.742004395E-1,9.581726074E0,-7.029998779E0
9.265514920E0,-2.966003418E-1,9.619888306E0,-7.057174683E0
9.270550320E0,-2.845001221E-1,9.630157471E0,-7.053817749E0
9.275585720E0,-2.922210693E-1,9.609237671E0,-7.094833374E0
9.280621121E0,-3.046264648E-1,9.608428955E0,-7.081375122E0
9.285656521E0,-3.155822754E-1,9.584854126E0,-7.057479858E0
9.290691921E0,-2.807769775E-1,9.587493896E0,-7.054367065E0
9.295727322E0,-2.288818359E-1,9.609939575E0,-7.061950684E0
9.300762722E0,-2.813262939E-1,9.576019287E0,-7.073028564E0
9.305798123E0,-2.833099365E-1,9.581970215E0,-7.094970703E0
9.310833523E0,-2.902832031E-1,9.605194092E0,-7.115921021E0
9.315868923E0,-2.831115723E-1,9.623489380E0,-7.088272095E0
9.320904324E0,-3.113708496E-1,9.632446289E0,-7.138610840E0
9.325939724E0,-2.988891602E-1,9.616561890E0,-7.098587036E0
9.330975125E0,-2.671508789E-1,9.596466064E0,-7.103637695E0
9.336010525E0,-2.791900635E-1,9.593521118E0,-7.084594727E0
9.341045925E0,-2.852325439E-1,9.629730225E0,-7.094985962E0
9.346081326E0,-2.713623047E-1,9.643890381E0,-7.134765625E0
9.351116726E0,-2.622833252E-1,9.610366821E0,-7.082733154E0
9.356152127E0,-2.640838623E-1,9.597137451E0,-7.142700195E0
9.361187527E0,-2.694244385E-1,9.631530762E0,-7.170654297E0
9.366222927E0,-2.777404785E-1,9.622909546E0,-7.130737305E0
9.371258328E0,-2.878875732E-1,9.606994629E0,-7.127151489E0
9.376293728E0,-2.585601807E-1,9.591598511E0,-7.180541992E0
9.381329129E0,-2.691345215E-1,9.581451416E0,-7.187637329E0
9.386364529E0,-2.749023438E-1,9.611343384E0,-7.152069092E0
9.391399929E0,-2.728729248E-1,9.600616455E0,-7.088256836E0
9.396435330E0,-2.759857178E-1,9.602416992E0,-7.133239746E0
9.401470730E0,-2.980499268E-1,9.571838379E0,-7.169387817E0
9.406506130E0,-2.900390625E-1,9.564575195E0,-7.141357422E0
9.411541531E0,-2.747192383E-1,9.577285767E0,-7.152786255E0
9.416576931E0,-2.566833496E-1,9.577041626E0,-7.193038940E0
9.421612332E0,-2.560119629E-1,9.578598022E0,-7.173782349E0
9.426647732E0,-2.514343262E-1,9.604507446E0,-7.222763062E0
9.431683132E0,-2.488861084E-1,9.614059448E0,-7.192947388E0
9.436718533E0,-2.769165039E-1,9.605667114E0,-7.187713623E0
9.441753933E0,-2.985076904E-1,9.608306885E0,-7.227813721E0
9.446789334E0,-2.793273926E-1,9.615814209E0,-7.203750610E0
9.451824734E0,-2.600097656E-1,9.644805908E0,-7.165588379E0
9.456860134E0,-2.720184326E-1,9.615905762E0,-7.142639160E0
9.461895535E0,-2.840270996E-1,9.616088867E0,-7.184875488E0
9.466930935E0,-2.867279053E-1,9.644180298E0,-7.204986572E0
9.471966336E0,-2.844848633E-1,9.646392822E0,-7.192520142E0
9.477001736E0,-2.884674072E-1,9.629226685E0,-7.220565796E0
9.482037136E0,-2.928314209E-1,9.621612549E0,-7.216430664E0
9.487072537E0,-2.713623047E-1,9.599288940E0,-7.196777344E0
9.492107937E0,-2.499237061E-1,9.600692749E0,-7.182647705E0
9.497143337E0,-2.656860352E-1,9.625976562E0,-7.167160034E0
9.502178738E0,-2.541809082E-1,9.633041382E0,-7.225891113E0
9.507214138E0,-2.397003174E-1,9.614944458E0,-7.185195923E0
9.512249539E0,-2.712860107E-1,9.612396240E0,-7.182876587E0
9.517284939E0,-2.597503662E-1,9.607818604E0,-7.213729858E0
9.522320339E0,-2.442932129E-1,9.596405029E0,-7.208206177E0
9.527355740E0,-2.559051514E-1,9.594100952E0,-7.204071045E0
9.532391140E0,-2.555847168E-1,9.595336914E0,-7.176452637E0
9.537426541E0,-2.757568359E-1,9.600494385E0,-7.166015625E0
9.542461941E0,-2.697753906E-1,9.599624634E0,-7.184387207E0
9.547497341E0,-2.713470459E-1,9.627410889E0,-7.224838257E0
9.552532742E0,-2.713623047E-1,9.629486084E0,-7.221084595E0
9.557568142E0,-2.720489502E-1,9.626678467E0,-7.167495728E0
9.562603543E0,-2.336273193E-1,9.616287231E0,-7.187713623E0
9.567638943E0,-2.387084961E-1,9.619079590E0,-7.197479248E0
9.572674343E0,-2.651977539E-1,9.614425659E0,-7.140731812E0
9.577709744E0,-2.655792236E-1,9.613052368E0,-7.154159546E0
9.582745144E0,-2.676239014E-1,9.637695312E0,-7.185424805E0
9.587780545E0,-2.604370117E-1,9.631454468E0,-7.184539795E0
9.592815945E0,-2.689514160E-1,9.613204956E0,-7.155822754E0
9.597851345E0,-2.703552246E-1,9.571701050E0,-7.127441406E0
9.602886746E0,-2.827301025E-1,9.573791504E0,-7.115295410E0
9.607922146E0,-2.685699463E-1,9.607452393E0,-7.122406006E0
9.612957546E0,-2.800903320E-1,9.578216553E0,-7.152923584E0
9.617992947E0,-2.810974121E-1,9.580108643E0,-7.148971558E0
9.623028347E0,-2.518157959E-1,9.588272095E0,-7.111724854E0
9.628063748E0,-2.575531006E-1,9.574188232E0,-7.108596802E0
9.633099148E0,-2.781372070E-1,9.585342407E0,-7.121276855E0
9.638134548E0,-3.025054932E-1,9.600845337E0,-7.138427734E0
9.643169949E0,-2.753601074E-1,9.581756592E0,-7.143814087E0
9.648205349E0,-2.831878662E-1,9.635971069E0,-7.129867554E0
9.653240750E0,-2.606353760E-1,9.603836060E0,-7.096313477E0
9.658276150E0,-2.629852295E-1,9.621154785E0,-7.083084106E0
9.663311550E0,-2.616119385E-1,9.612823486E0,-7.092803955E0
9.668346951E0,-2.451934814E-1,9.636032104E0,-7.092514038E0
9.673382351E0,-2.445831299E-1,9.648391724E0,-7.106307983E0
9.678417752E0,-2.512817383E-1,9.640014648E0,-7.076568604E0
9.683453152E0,-2.755889893E-1,9.643234253E0,-7.046722412E0
9.688488552E0,-2.794036865E-1,9.615768433E0,-7.014465332E0
9.693523953E0,-2.556152344E-1,9.624526978E0,-7.027572632E0
9.698559353E0,-2.895812988E-1,9.631927490E0,-7.076995850E0
9.703594754E0,-2.622528076E-1,9.593048096E0,-7.066818237E0
9.708630154E0,-2.791900635E-1,9.593185425E0,-7.036834717E0
9.713665554E0,-2.816925049E-1,9.558380127E0,-7.056137085E0
9.718700955E0,-2.649841309E-1,9.590682983E0,-6.997116089E0
9.723736355E0,-2.786865234E-1,9.607315063E0,-6.994903564E0
9.728771755E0,-2.668151855E-1,9.592376709E0,-7.019027710E0
9.733807156E0,-2.709350586E-1,9.581573486E0,-7.016143799E0
9.738842556E0,-2.528686523E-1,9.555145264E0,-7.008956909E0
9.743877957E0,-2.930297852E-1,9.577423096E0,-6.980407715E0
9.748913357E0,-2.550354004E-1,9.610473633E0,-7.043777466E0
9.753948757E0,-2.849884033E-1,9.596435547E0,-6.988250732E0
9.758984158E0,-2.819061279E-1,9.599075317E0,-6.955657959E0
9.764019558E0,-2.835388184E-1,9.612686157E0,-7.006332397E0
9.769054959E0,-3.148040771E-1,9.587081909E0,-6.943878174E0
9.774090359E0,-2.743072510E-1,9.623397827E0,-6.988571167E0
9.779125759E0,-2.650146484E-1,9.625640869E0,-7.016372681E0
9.784161160E0,-2.715148926E-1,9.634750366E0,-6.985748291E0
9.789196560E0,-2.948913574E-1,9.653610229E0,-6.961242676E0
9.794231961E0,-2.747192383E-1,9.591491699E0,-6.900131226E0
9.799267361E0,-2.414703369E-1,9.573562622E0,-6.975738525E0
9.804302761E0,-3.000183105E-1,9.625305176E0,-6.941696167E0
9.809338162E0,-2.527618408E-1,9.582794189E0,-6.970046997E0
9.814373562E0,-2.671661377E-1,9.596954346E0,-6.941482544E0
9.819408962E0,-2.859191895E-1,9.578414917E0,-6.943466187E0
9.824444363E0,-2.763366699E-1,9.598403931E0,-6.922027588E0
9.829479763E0,-2.682189941E-1,9.557037354E0,-6.908248901E0
9.834515164E0,-3.047332764E-1,9.570678711E0,-6.984359741E0
9.839550564E0,-2.944488525E-1,9.567977905E0,-6.929168701E0
9.844585964E0,-2.731323242E-1,9.604080200E0,-6.877853394E0
9.849621365E0,-2.946624756E-1,9.601516724E0,-6.931961060E0
9.854656765E0,-2.843017578E-1,9.595321655E0,-6.958831787E0
9.859692166E0,-3.199005127E-1,9.574783325E0,-6.879486084E0
9.864727566E0,-2.962493896E-1,9.594055176E0,-6.903594971E0
9.869762966E0,-2.782592773E-1,9.612747192E0,-6.884048462E0
9.874798367E0,-2.733001709E-1,9.621170044E0,-6.906112671E0
9.879833767E0,-2.905120850E-1,9.584167480E0,-6.934265137E0
9.884869168E0,-3.190155029E-1,9.597274780E0,-6.968322754E0
9.889904568E0,-2.821807861E-1,9.614151001E0,-6.954345703E0
9.894939968E0,-2.881469727E-1,9.597442627E0,-6.939514160E0
9.899975369E0,-2.895965576E-1,9.589019775E0,-6.908004761E0
9.905010769E0,-3.087615967E-1,9.609466553E0,-6.885620117E0
9.910046170E0,-3.027496338E-1,9.600631714E0,-6.921615601E0
9.915081570E0,-3.023376465E-1,9.601531982E0,-6.937271118E0
9.920116970E0,-2.947235107E-1,9.581069946E0,-6.912017822E0
9.925152371E0,-2.771301270E-1,9.593780518E0,-6.898941040E0
9.930187771E0,-3.070220947E-1,9.586578369E0,-6.952438354E0
9.935223171E0,-2.956085205E-1,9.567840576E0,-6.951721191E0
9.940258572E0,-2.956085205E-1,9.553207397E0,-6.923110962E0
9.945293972E0,-2.923889160E-1,9.582626343E0,-6.910827637E0
9.950329373E0,-2.824401855E-1,9.606597900E0,-6.922271729E0
9.955364773E0,-2.942199707E-1,9.599044800E0,-6.926086426E0
9.960400173E0,-3.134613037E-1,9.583389282E0,-6.910537720E0
9.965435574E0,-2.925567627E-1,9.605361938E0,-6.894409180E0
9.970470974E0,-2.805175781E-1,9.607574463E0,-6.891662598E0
9.975506375E0,-2.790374756E-1,9.619964600E0,-6.915054321E0
9.980541775E0,-3.054962158E-1,9.612030029E0,-6.948593140E0
9.985577175E0,-3.276824951E-1,9.608123779E0,-6.935333252E0
9.990612576E0,-3.202209473E-1,9.596130371E0,-6.959075928E0
9.995647976E0,-2.822570801E-1,9.606750488E0,-6.956481934E0
1.000068338E1,-2.827453613E-1,9.609588623E0,-6.957382202E0
1.000571878E1,-2.783203125E-1,9.579620361E0,-6.965942383E0
1.001075418E1,-2.608032227E-1,9.598098755E0,-6.979476929E0
1.001578958E1,-2.864990234E-1,9.617675781E0,-6.945419312E0
1.002082498E1,-3.026123047E-1,9.583770752E0,-6.915725708E0
1.002586038E1,-2.997131348E-1,9.594207764E0,-6.950973511E0
1.003089578E1,-2.992553711E-1,9.604461670E0,-6.997848511E0
1.003593118E1,-3.049316406E-1,9.611663818E0,-7.009292603E0
1.004096658E1,-3.425750732E-1,9.594955444E0,-6.961959839E0
1.004600198E1,-3.463134766E-1,9.567016602E0,-6.923614502E0
1.005103738E1,-2.969818115E-1,9.588104248E0,-6.967193604E0
1.005607278E1,-2.969818115E-1,9.610504150E0,-6.977859497E0
1.006110818E1,-3.144073486E-1,9.607101440E0,-6.981063843E0
1.006614358E1,-3.136138916E-1,9.605865479E0,-6.968002319E0
1.007117898E1,-3.249053955E-1,9.623977661E0,-6.973571777E0
1.007621438E1,-2.918548584E-1,9.617416382E0,-6.994918823E0
1.008124978E1,-2.715606689E-1,9.596649170E0,-7.013534546E0
1.008628518E1,-2.828979492E-1,9.614028931E0,-7.039886475E0
1.009132058E1,-2.744445801E-1,9.629028320E0,-7.056167603E0
1.009635598E1,-2.771911621E-1,9.610214233E0,-7.054290771E0
1.010139138E1,-2.831878662E-1,9.579940796E0,-7.058166504E0
1.010642678E1,-2.944946289E-1,9.556564331E0,-7.033264160E0
1.011146218E1,-2.993774414E-1,9.579406738E0,-7.045440674E0
1.011649759E1,-2.914886475E-1,9.603225708E0,-7.063690186E0
1.012153299E1,-2.768859863E-1,9.607620239E0,-7.078384399E0
1.012656839E1,-3.027648926E-1,9.594039917E0,-7.081588745E0
1.013160379E1,-2.922973633E-1,9.590332031E0,-7.106994629E0
1.013663919E1,-2.891540527E-1,9.603881836E0,-7.096237183E0
1.014167459E1,-3.305053711E-1,9.606002808E0,-7.051727295E0
1.014670999E1,-3.233642578E-1,9.608581543E0,-7.049942017E0
1.015174539E1,-3.027496338E-1,9.601455688E0,-7.078262329E0
1.015678079E1,-2.820739746E-1,9.606094360E0,-7.113754272E0
1.016181619E1,-2.838745117E-1,9.590881348E0,-7.114944458E0
1.016685159E1,-3.027343750E-1,9.591751099E0,-7.106674194E0
1.017188699E1,-2.845306396E-1,9.597030640E0,-7.094223022E0
1.017692239E1,-2.898712158E-1,9.606918335E0,-7.101287842E0
1.018195779E1,-2.997894287E-1,9.590942383E0,-7.138610840E0
1.018699319E1,-2.725830078E-1,9.595077515E0,-7.139266968E0
1.019202859E1,-2.725372314E-1,9.587081909E0,-7.105514526E0
1.019706399E1,-3.027343750E-1,9.586349487E0,-7.060882568E0
1.020209939E1,-2.820434570E-1,9.620269775E0,-7.109054565E0
1.020713479E1,-2.551574707E-1,9.609771729E0,-7.129531860E0
1.021217019E1,-2.584381104E-1,9.603515625E0,-7.125610352E0
1.021720559E1,-2.819213867E-1,9.622940063E0,-7.166397095E0
1.022224099E1,-2.809295654E-1,9.603912354E0,-7.175994873E0
1.022727639E1,-2.632141113E-1,9.573944092E0,-7.128967285E0
1.023231180E1,-2.829437256E-1,9.598312378E0,-7.129119873E0
1.023734720E1,-3.069305420E-1,9.602783203E0,-7.150360107E0
1.024238260E1,-2.639160156E-1,9.613265991E0,-7.148803711E0
1.024741800E1,-2.824249268E-1,9.621994019E0,-7.128662109E0
1.025245340E1,-2.814483643E-1,9.591384888E0,-7.104675293E0
