"Time (s)","Gyroscope x (rad/s)","Gyroscope y (rad/s)","Gyroscope z (rad/s)"
3.981680770E-1,2.838134766E-3,-4.409790039E-3,-9.353637695E-3
4.032034770E-1,3.768920898E-3,-4.409790039E-3,-9.353637695E-3
4.082388770E-1,4.577636719E-3,-4.409790039E-3,-8.666992188E-3
4.132742780E-1,3.890991211E-3,-4.409790039E-3,-8.956909180E-3
4.183096780E-1,3.509521484E-3,-3.723144531E-3,-7.965087891E-3
4.233450790E-1,4.196166992E-3,-4.745483398E-3,-7.904052734E-3
4.283804790E-1,4.577636719E-3,-5.477905273E-3,-7.568359375E-3
4.334158790E-1,3.860473633E-3,-5.477905273E-3,-7.919311523E-3
4.384512800E-1,2.777099609E-3,-4.028320312E-3,-9.002685547E-3
4.434866800E-1,3.158569336E-3,-4.074096680E-3,-8.621215820E-3
4.485220810E-1,3.509521484E-3,-4.409790039E-3,-9.017944336E-3
4.535574810E-1,3.509521484E-3,-5.920410156E-3,-8.590698242E-3
4.585928810E-1,2.746582031E-3,-5.798339844E-3,-9.033203125E-3
4.636282820E-1,1.663208008E-3,-4.714965820E-3,-9.353637695E-3
4.686636820E-1,2.929687500E-3,-4.409790039E-3,-9.353637695E-3
4.736990820E-1,3.509521484E-3,-5.203247070E-3,-8.560180664E-3
4.787344830E-1,2.700805664E-3,-4.684448242E-3,-8.285522461E-3
4.837698830E-1,4.043579102E-3,-4.409790039E-3,-8.285522461E-3
4.888052840E-1,4.577636719E-3,-3.601074219E-3,-8.285522461E-3
4.938406840E-1,2.914428711E-3,-4.180908203E-3,-9.109497070E-3
4.988760840E-1,2.441406250E-3,-5.249023438E-3,-8.514404297E-3
5.039114850E-1,4.119873047E-3,-4.638671875E-3,-8.285522461E-3
5.089468850E-1,3.723144531E-3,-3.570556641E-3,-8.285522461E-3
5.139822860E-1,3.509521484E-3,-3.341674805E-3,-8.285522461E-3
5.190176860E-1,2.639770508E-3,-3.341674805E-3,-9.140014648E-3
5.240530860E-1,2.441406250E-3,-2.471923828E-3,-9.353637695E-3
5.290884870E-1,3.326416016E-3,-3.173828125E-3,-8.453369141E-3
5.341238870E-1,3.509521484E-3,-5.126953125E-3,-8.285522461E-3
5.391592880E-1,2.609252930E-3,-6.378173828E-3,-7.385253906E-3
5.441946880E-1,2.441406250E-3,-6.546020508E-3,-8.117675781E-3
5.492300880E-1,3.356933594E-3,-5.630493164E-3,-8.285522461E-3
5.542654890E-1,2.578735352E-3,-5.477905273E-3,-8.285522461E-3
5.593008890E-1,2.441406250E-3,-5.477905273E-3,-9.216308594E-3
5.643362900E-1,3.372192383E-3,-4.547119141E-3,-8.407592773E-3
5.693716900E-1,4.455566406E-3,-5.371093750E-3,-8.285522461E-3
5.744070900E-1,3.601074219E-3,-4.516601562E-3,-9.246826172E-3
5.794424910E-1,3.509521484E-3,-4.409790039E-3,-9.353637695E-3
5.844778910E-1,3.509521484E-3,-4.409790039E-3,-9.353637695E-3
5.895132910E-1,2.517700195E-3,-4.409790039E-3,-8.361816406E-3
5.945486920E-1,1.434326172E-3,-4.409790039E-3,-6.286621094E-3
5.995840920E-1,1.373291016E-3,-4.409790039E-3,-8.148193359E-3
6.046194930E-1,2.380371094E-3,-3.402709961E-3,-7.263183594E-3
6.096548930E-1,4.486083984E-3,-3.341674805E-3,-9.262084961E-3
6.146902930E-1,4.577636719E-3,-4.379272461E-3,-8.316040039E-3
6.197256940E-1,3.524780273E-3,-4.409790039E-3,-6.195068359E-3
6.247610940E-1,3.509521484E-3,-4.409790039E-3,-8.239746094E-3
6.297964950E-1,3.509521484E-3,-4.409790039E-3,-7.217407227E-3
6.348318950E-1,4.577636719E-3,-5.477905273E-3,-8.285522461E-3
6.398672950E-1,3.509521484E-3,-4.409790039E-3,-7.217407227E-3
6.449026960E-1,3.494262695E-3,-4.409790039E-3,-7.217407227E-3
6.499380960E-1,2.456665039E-3,-4.394531250E-3,-8.285522461E-3
6.549734970E-1,3.540039062E-3,-3.341674805E-3,-8.285522461E-3
6.600088970E-1,4.531860352E-3,-3.341674805E-3,-8.239746094E-3
6.650442970E-1,3.448486328E-3,-3.341674805E-3,-7.156372070E-3
6.700796980E-1,2.380371094E-3,-3.341674805E-3,-6.256103516E-3
6.751150980E-1,1.373291016E-3,-3.341674805E-3,-8.407592773E-3
6.801504990E-1,1.525878906E-3,-3.341674805E-3,-1.033020020E-2
6.851858990E-1,3.509521484E-3,-3.341674805E-3,-9.262084961E-3
6.902212990E-1,3.311157227E-3,-3.250122070E-3,-8.178710938E-3
6.952567000E-1,1.464843750E-3,-2.380371094E-3,-7.217407227E-3
7.002921000E-1,2.548217773E-3,-3.234863281E-3,-7.095336914E-3
7.053275000E-1,3.631591797E-3,-2.273559570E-3,-6.271362305E-3
7.103629010E-1,4.699707031E-3,-2.548217773E-3,-7.339477539E-3
7.153983010E-1,5.355834961E-3,-4.409790039E-3,-7.995605469E-3
7.204337020E-1,3.051757812E-3,-4.272460938E-3,-6.439208984E-3
7.254691020E-1,7.934570312E-4,-3.341674805E-3,-8.285522461E-3
7.305045020E-1,3.677368164E-3,-3.524780273E-3,-8.285522461E-3
7.355399030E-1,4.394531250E-3,-4.409790039E-3,-8.102416992E-3
7.405753030E-1,3.509521484E-3,-4.409790039E-3,-7.217407227E-3
7.456107040E-1,3.311157227E-3,-4.226684570E-3,-7.217407227E-3
7.506461040E-1,2.441406250E-3,-3.341674805E-3,-7.400512695E-3
7.556815040E-1,2.639770508E-3,-3.341674805E-3,-8.285522461E-3
7.607169050E-1,3.280639648E-3,-3.341674805E-3,-8.499145508E-3
7.657523050E-1,2.883911133E-3,-3.341674805E-3,-8.895874023E-3
7.707877060E-1,3.860473633E-3,-3.341674805E-3,-6.973266602E-3
7.758231060E-1,1.846313477E-3,-3.341674805E-3,-6.378173828E-3
7.808585060E-1,3.509521484E-3,-3.341674805E-3,-7.461547852E-3
7.858939070E-1,3.509521484E-3,-3.616333008E-3,-8.544921875E-3
7.909293070E-1,3.768920898E-3,-4.409790039E-3,-9.353637695E-3
7.959647070E-1,4.577636719E-3,-4.409790039E-3,-9.353637695E-3
8.010001080E-1,4.577636719E-3,-4.699707031E-3,-9.353637695E-3
8.060355080E-1,3.982543945E-3,-5.477905273E-3,-9.048461914E-3
8.110709090E-1,2.441406250E-3,-4.882812500E-3,-8.575439453E-3
8.161063090E-1,2.746582031E-3,-3.341674805E-3,-9.353637695E-3
8.211417090E-1,3.509521484E-3,-3.662109375E-3,-9.033203125E-3
8.261771100E-1,3.829956055E-3,-3.768920898E-3,-8.285522461E-3
8.312125100E-1,4.577636719E-3,-2.624511719E-3,-7.934570312E-3
8.362479110E-1,4.913330078E-3,-3.692626953E-3,-7.217407227E-3
8.412833110E-1,5.279541016E-3,-4.409790039E-3,-6.851196289E-3
8.463187110E-1,4.211425781E-3,-4.776000977E-3,-6.500244141E-3
8.513541120E-1,4.241943359E-3,-5.477905273E-3,-7.583618164E-3
8.563895120E-1,5.645751953E-3,-5.096435547E-3,-7.888793945E-3
8.614249130E-1,5.249023438E-3,-4.409790039E-3,-7.598876953E-3
8.664603130E-1,4.165649414E-3,-4.013061523E-3,-7.873535156E-3
8.714957130E-1,3.509521484E-3,-3.753662109E-3,-7.217407227E-3
8.765311140E-1,3.509521484E-3,-3.585815430E-3,-7.629394531E-3
8.815665140E-1,3.509521484E-3,-2.273559570E-3,-7.858276367E-3
8.866019150E-1,3.936767578E-3,-2.716064453E-3,-7.217407227E-3
8.916373150E-1,5.020141602E-3,-2.899169922E-3,-7.217407227E-3
8.966727150E-1,4.272460938E-3,-3.189086914E-3,-7.659912109E-3
9.017081160E-1,2.899169922E-3,-4.882812500E-3,-7.812500000E-3
9.067435160E-1,3.509521484E-3,-5.950927734E-3,-7.217407227E-3
9.117789160E-1,3.509521484E-3,-5.584716797E-3,-8.178710938E-3
9.168143170E-1,3.005981445E-3,-3.921508789E-3,-8.361816406E-3
9.218497170E-1,1.937866211E-3,-3.341674805E-3,-7.217407227E-3
9.268851180E-1,2.380371094E-3,-2.838134766E-3,-7.720947266E-3
9.319205180E-1,3.509521484E-3,-2.792358398E-3,-8.285522461E-3
9.369559180E-1,4.028320312E-3,-3.341674805E-3,-8.285522461E-3
9.419913190E-1,4.043579102E-3,-3.341674805E-3,-8.285522461E-3
9.470267190E-1,3.509521484E-3,-3.890991211E-3,-8.285522461E-3
9.520621200E-1,3.509521484E-3,-3.311157227E-3,-7.720947266E-3
9.570975200E-1,2.944946289E-3,-2.838134766E-3,-7.766723633E-3
9.621329200E-1,3.005981445E-3,-3.921508789E-3,-8.285522461E-3
9.671683210E-1,3.509521484E-3,-4.409790039E-3,-8.285522461E-3
9.722037210E-1,2.914428711E-3,-5.004882812E-3,-7.690429688E-3
9.772391220E-1,2.441406250E-3,-4.302978516E-3,-7.797241211E-3
9.822812770E-1,3.036499023E-3,-2.746582031E-3,-8.285522461E-3
9.873166770E-1,2.883911133E-3,-2.899169922E-3,-7.659912109E-3
9.923520780E-1,3.051757812E-3,-3.967285156E-3,-6.591796875E-3
9.973874780E-1,3.509521484E-3,-3.784179688E-3,-6.149291992E-3
1.002422879E0,3.509521484E-3,-3.341674805E-3,-7.415771484E-3
1.007458279E0,2.853393555E-3,-3.997802734E-3,-6.988525391E-3
1.012493679E0,3.082275391E-3,-3.768920898E-3,-6.790161133E-3
1.017529080E0,2.166748047E-3,-3.341674805E-3,-7.217407227E-3
1.022564480E0,2.716064453E-3,-4.028320312E-3,-7.217407227E-3
1.027599880E0,2.822875977E-3,-3.738403320E-3,-7.888793945E-3
1.032635281E0,2.441406250E-3,-3.341674805E-3,-8.285522461E-3
1.037670681E0,3.829956055E-3,-2.655029297E-3,-8.285522461E-3
1.042706082E0,4.577636719E-3,-2.990722656E-3,-8.987426758E-3
1.047741482E0,3.860473633E-3,-3.341674805E-3,-8.636474609E-3
1.052776882E0,3.509521484E-3,-2.624511719E-3,-8.285522461E-3
1.057812283E0,2.777099609E-3,-3.005981445E-3,-7.553100586E-3
1.062847683E0,2.441406250E-3,-3.341674805E-3,-7.217407227E-3
1.067883084E0,3.936767578E-3,-3.341674805E-3,-7.965087891E-3
1.072918484E0,3.814697266E-3,-2.593994141E-3,-9.033203125E-3
1.077953884E0,3.509521484E-3,-3.051757812E-3,-8.575439453E-3
1.082989285E0,3.509521484E-3,-4.119873047E-3,-7.507324219E-3
1.088024685E0,3.509521484E-3,-4.409790039E-3,-7.995605469E-3
1.093060086E0,3.509521484E-3,-3.616333008E-3,-8.285522461E-3
1.098095486E0,2.700805664E-3,-4.943847656E-3,-8.285522461E-3
1.103130886E0,2.441406250E-3,-3.860473633E-3,-8.285522461E-3
1.108166287E0,2.441406250E-3,-4.165649414E-3,-8.285522461E-3
1.113201687E0,3.265380859E-3,-5.249023438E-3,-8.285522461E-3
1.118237087E0,3.509521484E-3,-4.638671875E-3,-9.124755859E-3
1.123272488E0,3.509521484E-3,-3.570556641E-3,-9.353637695E-3
1.128307888E0,4.348754883E-3,-4.196166992E-3,-8.499145508E-3
1.133343289E0,5.432128906E-3,-4.409790039E-3,-8.285522461E-3
1.138378689E0,3.890991211E-3,-3.540039062E-3,-9.155273438E-3
1.143414089E0,3.509521484E-3,-3.341674805E-3,-8.468627930E-3
1.148449490E0,2.609252930E-3,-2.456665039E-3,-7.385253906E-3
1.153484890E0,1.541137695E-3,-2.273559570E-3,-7.217407227E-3
1.158520291E0,2.273559570E-3,-3.189086914E-3,-7.217407227E-3
1.163555691E0,2.441406250E-3,-5.187988281E-3,-8.132934570E-3
1.168591091E0,1.510620117E-3,-4.562377930E-3,-9.201049805E-3
1.173626492E0,2.304077148E-3,-5.355834961E-3,-9.353637695E-3
1.178661892E0,3.387451172E-3,-4.531860352E-3,-8.392333984E-3
1.183697293E0,3.509521484E-3,-4.409790039E-3,-9.231567383E-3
1.188732693E0,1.571655273E-3,-3.448486328E-3,-9.353637695E-3
1.193768093E0,2.334594727E-3,-3.341674805E-3,-1.031494141E-2
1.198803494E0,4.394531250E-3,-3.341674805E-3,-8.453369141E-3
1.203838894E0,4.577636719E-3,-3.341674805E-3,-8.285522461E-3
1.208874295E0,2.578735352E-3,-4.348754883E-3,-9.277343750E-3
1.213909695E0,2.441406250E-3,-4.409790039E-3,-8.346557617E-3
1.218945095E0,2.441406250E-3,-4.409790039E-3,-8.285522461E-3
1.223980496E0,4.470825195E-3,-2.380371094E-3,-7.263183594E-3
1.229015896E0,3.540039062E-3,-2.273559570E-3,-8.239746094E-3
1.234051296E0,5.584716797E-3,-3.326416016E-3,-8.285522461E-3
1.239086697E0,3.540039062E-3,-5.447387695E-3,-8.285522461E-3
1.244122097E0,4.562377930E-3,-5.477905273E-3,-8.285522461E-3
1.249157498E0,4.577636719E-3,-4.425048828E-3,-9.338378906E-3
1.254192898E0,2.441406250E-3,-5.462646484E-3,-8.270263672E-3
1.259228298E0,2.441406250E-3,-2.304077148E-3,-7.232666016E-3
1.264263699E0,2.441406250E-3,-3.372192383E-3,-8.255004883E-3
1.269299099E0,2.471923828E-3,-4.409790039E-3,-7.293701172E-3
1.274334500E0,3.463745117E-3,-4.409790039E-3,-9.307861328E-3
1.279369900E0,2.487182617E-3,-4.364013672E-3,-8.224487305E-3
1.284405300E0,3.509521484E-3,-3.417968750E-3,-7.141113281E-3
1.289440701E0,3.509521484E-3,-4.486083984E-3,-6.286621094E-3
1.294476101E0,3.356933594E-3,-5.416870117E-3,-8.132934570E-3
1.299511502E0,1.449584961E-3,-4.333496094E-3,-6.149291992E-3
1.304546902E0,2.349853516E-3,-3.341674805E-3,-6.225585938E-3
1.309582302E0,1.663208008E-3,-3.448486328E-3,-7.308959961E-3
1.314617703E0,4.455566406E-3,-4.409790039E-3,-8.285522461E-3
1.319653103E0,3.616333008E-3,-4.531860352E-3,-8.392333984E-3
1.324688504E0,4.699707031E-3,-5.355834961E-3,-9.216308594E-3
1.329723904E0,5.371093750E-3,-4.409790039E-3,-8.285522461E-3
1.334759304E0,3.219604492E-3,-4.272460938E-3,-8.285522461E-3
1.339794705E0,1.373291016E-3,-3.341674805E-3,-8.285522461E-3
1.344830105E0,1.678466797E-3,-3.341674805E-3,-8.438110352E-3
1.349865505E0,3.677368164E-3,-3.524780273E-3,-9.353637695E-3
1.354900906E0,4.394531250E-3,-4.058837891E-3,-9.170532227E-3
1.359936306E0,3.509521484E-3,-2.456665039E-3,-8.102416992E-3
1.364971707E0,3.509521484E-3,-3.540039062E-3,-7.217407227E-3
1.370007107E0,3.509521484E-3,-4.211425781E-3,-7.217407227E-3
1.375042507E0,3.509521484E-3,-3.341674805E-3,-7.644653320E-3
1.380077908E0,3.723144531E-3,-3.570556641E-3,-8.895874023E-3
1.385113308E0,4.348754883E-3,-4.409790039E-3,-7.217407227E-3
1.390148709E0,3.738403320E-3,-4.653930664E-3,-7.675170898E-3
1.395184109E0,4.333496094E-3,-5.722045898E-3,-9.109497070E-3
1.400219509E0,2.990722656E-3,-6.042480469E-3,-8.529663086E-3
1.405254910E0,1.373291016E-3,-4.409790039E-3,-9.353637695E-3
1.410290310E0,1.632690430E-3,-4.409790039E-3,-9.353637695E-3
1.415325711E0,2.441406250E-3,-4.135131836E-3,-8.789062500E-3
1.420361111E0,2.441406250E-3,-3.631591797E-3,-7.492065430E-3
1.425396511E0,2.441406250E-3,-4.409790039E-3,-8.865356445E-3
1.430431912E0,2.441406250E-3,-4.409790039E-3,-9.796142578E-3
1.435467312E0,3.051757812E-3,-4.409790039E-3,-8.285522461E-3
1.440502712E0,4.577636719E-3,-4.409790039E-3,-8.605957031E-3
1.445538113E0,3.906250000E-3,-4.745483398E-3,-8.682250977E-3
1.450573513E0,2.777099609E-3,-5.477905273E-3,-6.866455078E-3
1.455608914E0,3.509521484E-3,-4.791259766E-3,-6.835937500E-3
1.460644314E0,2.792358398E-3,-4.058837891E-3,-8.636474609E-3
1.465679714E0,2.090454102E-3,-5.126953125E-3,-8.987426758E-3
1.470715115E0,3.128051758E-3,-4.409790039E-3,-8.285522461E-3
1.475750515E0,2.822875977E-3,-4.806518555E-3,-8.285522461E-3
1.480785916E0,3.890991211E-3,-5.477905273E-3,-7.888793945E-3
1.485821316E0,4.577636719E-3,-5.081176758E-3,-7.614135742E-3
1.490856716E0,3.753662109E-3,-5.233764648E-3,-8.682250977E-3
1.495892117E0,2.441406250E-3,-6.546020508E-3,-8.514404297E-3
1.500927517E0,2.441406250E-3,-6.546020508E-3,-7.629394531E-3
1.505962918E0,2.868652344E-3,-5.676269531E-3,-8.712768555E-3
1.510998318E0,3.051757812E-3,-4.409790039E-3,-8.453369141E-3
1.516033718E0,2.441406250E-3,-4.409790039E-3,-7.217407227E-3
1.521069119E0,1.968383789E-3,-3.494262695E-3,-7.675170898E-3
1.526104519E0,1.373291016E-3,-3.219604492E-3,-8.285522461E-3
1.531139920E0,1.846313477E-3,-4.409790039E-3,-8.758544922E-3
1.536175320E0,3.402709961E-3,-3.936767578E-3,-8.377075195E-3
1.541210720E0,4.577636719E-3,-3.341674805E-3,-7.705688477E-3
1.546246121E0,4.074096680E-3,-3.845214844E-3,-8.285522461E-3
1.551281521E0,4.013061523E-3,-4.409790039E-3,-8.789062500E-3
1.556316921E0,4.577636719E-3,-3.890991211E-3,-9.872436523E-3
1.561352322E0,4.043579102E-3,-3.875732422E-3,-9.887695312E-3
1.566387722E0,2.441406250E-3,-3.875732422E-3,-8.819580078E-3
1.571423123E0,1.907348633E-3,-3.341674805E-3,-7.736206055E-3
1.576458523E0,2.441406250E-3,-3.341674805E-3,-7.217407227E-3
1.581493923E0,2.441406250E-3,-3.341674805E-3,-7.766723633E-3
1.586529324E0,1.861572266E-3,-3.341674805E-3,-8.285522461E-3
1.591564724E0,2.517700195E-3,-3.341674805E-3,-8.285522461E-3
1.596600125E0,3.509521484E-3,-3.341674805E-3,-8.865356445E-3
1.601635525E0,4.089355469E-3,-3.936767578E-3,-9.353637695E-3
1.606670925E0,4.577636719E-3,-3.814697266E-3,-8.743286133E-3
1.611706326E0,3.952026367E-3,-2.120971680E-3,-8.285522461E-3
1.616741726E0,2.883911133E-3,-2.456665039E-3,-7.659912109E-3
1.621777127E0,3.067016602E-3,-3.982543945E-3,-7.217407227E-3
1.626812527E0,3.509521484E-3,-5.691528320E-3,-7.843017578E-3
1.631847927E0,4.806518555E-3,-5.905151367E-3,-8.285522461E-3
1.636883328E0,4.974365234E-3,-5.477905273E-3,-8.285522461E-3
1.641918728E0,3.906250000E-3,-4.821777344E-3,-7.614135742E-3
1.646954129E0,3.509521484E-3,-3.082275391E-3,-7.217407227E-3
1.651989529E0,2.822875977E-3,-2.960205078E-3,-7.888793945E-3
1.657024929E0,2.441406250E-3,-4.043579102E-3,-8.285522461E-3
1.662060330E0,1.739501953E-3,-4.409790039E-3,-8.285522461E-3
1.667095730E0,2.075195312E-3,-5.126953125E-3,-8.285522461E-3
1.672131130E0,2.441406250E-3,-4.760742188E-3,-8.285522461E-3
1.677166531E0,3.158569336E-3,-4.409790039E-3,-7.553100586E-3
1.682201931E0,2.761840820E-3,-3.677368164E-3,-7.217407227E-3
1.687237332E0,3.921508789E-3,-3.341674805E-3,-7.217407227E-3
1.692272732E0,4.577636719E-3,-2.593994141E-3,-6.454467773E-3
1.697308132E0,3.814697266E-3,-2.273559570E-3,-7.659912109E-3
1.702343533E0,2.731323242E-3,-3.814697266E-3,-8.285522461E-3
1.707378933E0,3.204345703E-3,-5.187988281E-3,-9.048461914E-3
1.712414334E0,3.509521484E-3,-5.477905273E-3,-1.013183594E-2
1.717449734E0,3.509521484E-3,-5.477905273E-3,-8.819580078E-3
1.722485134E0,1.907348633E-3,-4.684448242E-3,-8.285522461E-3
1.727520535E0,2.182006836E-3,-4.409790039E-3,-8.285522461E-3
1.732555935E0,2.441406250E-3,-4.409790039E-3,-7.461547852E-3
1.737591336E0,3.265380859E-3,-5.249023438E-3,-7.217407227E-3
1.742626736E0,2.670288086E-3,-2.136230469E-3,-8.041381836E-3
1.747662136E0,3.280639648E-3,-3.753662109E-3,-8.285522461E-3
1.752697537E0,1.800537109E-3,-1.861572266E-3,-8.285522461E-3
1.757732937E0,2.227783203E-3,-2.075195312E-3,-9.140014648E-3
1.762768337E0,3.311157227E-3,-4.898071289E-3,-8.468627930E-3
1.767803738E0,2.624511719E-3,-4.608154297E-3,-7.400512695E-3
1.772839138E0,3.326416016E-3,-4.409790039E-3,-6.317138672E-3
1.777874539E0,1.708984375E-3,-5.310058594E-3,-7.034301758E-3
1.782909939E0,3.173828125E-3,-5.477905273E-3,-7.217407227E-3
1.787945339E0,4.409790039E-3,-4.577636719E-3,-8.117675781E-3
1.792980740E0,4.577636719E-3,-3.494262695E-3,-8.285522461E-3
1.798016140E0,3.631591797E-3,-4.287719727E-3,-7.339477539E-3
1.803051541E0,3.509521484E-3,-3.479003906E-3,-7.217407227E-3
1.808086941E0,3.509521484E-3,-3.341674805E-3,-6.256103516E-3
1.813122341E0,2.548217773E-3,-4.302978516E-3,-6.149291992E-3
1.818157742E0,4.364013672E-3,-2.487182617E-3,-5.172729492E-3
1.823193142E0,4.577636719E-3,-3.250122070E-3,-6.042480469E-3
1.828228543E0,4.577636719E-3,-4.333496094E-3,-7.125854492E-3
1.833263943E0,3.585815430E-3,-4.409790039E-3,-1.017761230E-2
1.838299343E0,4.501342773E-3,-4.409790039E-3,-9.414672852E-3
1.843334744E0,5.584716797E-3,-2.395629883E-3,-8.331298828E-3
1.848370144E0,4.623413086E-3,-3.295898438E-3,-8.285522461E-3
1.853405545E0,3.540039062E-3,-3.341674805E-3,-7.247924805E-3
1.858440945E0,2.471923828E-3,-4.379272461E-3,-8.239746094E-3
1.863476345E0,3.479003906E-3,-4.409790039E-3,-7.232666016E-3
1.868511746E0,2.456665039E-3,-5.462646484E-3,-8.255004883E-3
1.873547146E0,2.441406250E-3,-3.372192383E-3,-6.164550781E-3
1.878582546E0,2.441406250E-3,-4.409790039E-3,-8.285522461E-3
1.883617947E0,3.494262695E-3,-5.477905273E-3,-7.202148438E-3
1.888653347E0,2.441406250E-3,-5.462646484E-3,-6.179809570E-3
1.893688748E0,2.487182617E-3,-4.394531250E-3,-8.255004883E-3
1.898724148E0,4.577636719E-3,-3.341674805E-3,-7.217407227E-3
1.903759548E0,4.577636719E-3,-3.387451172E-3,-7.247924805E-3
1.908794949E0,4.623413086E-3,-4.409790039E-3,-8.178710938E-3
1.913830349E0,5.584716797E-3,-4.470825195E-3,-6.149291992E-3
1.918865750E0,4.577636719E-3,-5.554199219E-3,-6.210327148E-3
1.923901150E0,4.577636719E-3,-6.469726562E-3,-7.369995117E-3
1.928936550E0,4.394531250E-3,-5.401611328E-3,-9.170532227E-3
1.933971951E0,2.441406250E-3,-4.516601562E-3,-7.217407227E-3
1.939007351E0,2.532958984E-3,-5.386352539E-3,-7.308959961E-3
1.944042752E0,3.387451172E-3,-4.302978516E-3,-8.392333984E-3
1.949078152E0,2.441406250E-3,-3.341674805E-3,-9.231567383E-3
1.954113552E0,2.563476562E-3,-3.341674805E-3,-8.285522461E-3
1.959148953E0,3.509521484E-3,-3.219604492E-3,-8.148193359E-3
1.964184353E0,3.509521484E-3,-2.426147461E-3,-7.217407227E-3
1.969219754E0,3.646850586E-3,-3.341674805E-3,-7.217407227E-3
1.974255154E0,4.409790039E-3,-3.341674805E-3,-7.217407227E-3
1.979290554E0,3.677368164E-3,-3.341674805E-3,-6.866455078E-3
1.984325955E0,4.577636719E-3,-3.707885742E-3,-5.249023438E-3
1.989361355E0,4.379272461E-3,-5.294799805E-3,-6.515502930E-3
1.994396755E0,3.311157227E-3,-4.226684570E-3,-8.087158203E-3
1.999432156E0,2.639770508E-3,-3.143310547E-3,-7.003784180E-3
2.004467556E0,3.723144531E-3,-2.502441406E-3,-6.576538086E-3
2.009502957E0,4.348754883E-3,-3.128051758E-3,-8.499145508E-3
2.014538357E0,3.265380859E-3,-2.746582031E-3,-9.109497070E-3
2.019573757E0,2.670288086E-3,-4.409790039E-3,-8.285522461E-3
2.024609158E0,3.997802734E-3,-4.165649414E-3,-8.026123047E-3
2.029644558E0,4.852294922E-3,-3.082275391E-3,-7.736206055E-3
2.034679959E0,2.441406250E-3,-2.273559570E-3,-9.078979492E-3
2.039715359E0,2.990722656E-3,-2.563476562E-3,-8.285522461E-3
2.044750759E0,4.577636719E-3,-3.631591797E-3,-8.285522461E-3
2.049786160E0,3.982543945E-3,-3.829956055E-3,-7.980346680E-3
2.054821560E0,2.731323242E-3,-2.578735352E-3,-7.507324219E-3
2.059856961E0,3.189086914E-3,-3.662109375E-3,-7.965087891E-3
2.064892361E0,2.441406250E-3,-4.409790039E-3,-7.217407227E-3
2.069927761E0,2.441406250E-3,-4.089355469E-3,-7.217407227E-3
2.074963162E0,2.777099609E-3,-3.005981445E-3,-7.217407227E-3
2.079998562E0,3.509521484E-3,-2.624511719E-3,-6.866455078E-3
2.085033962E0,3.509521484E-3,-3.707885742E-3,-6.500244141E-3
2.090069363E0,3.143310547E-3,-4.409790039E-3,-7.568359375E-3
2.095104763E0,2.807617188E-3,-4.791259766E-3,-8.651733398E-3
2.100140164E0,3.128051758E-3,-5.477905273E-3,-8.590698242E-3
2.105175564E0,2.441406250E-3,-5.874633789E-3,-7.217407227E-3
2.110210964E0,3.234863281E-3,-6.149291992E-3,-7.614135742E-3
2.115246365E0,4.165649414E-3,-4.272460938E-3,-8.285522461E-3
2.120281765E0,3.509521484E-3,-2.273559570E-3,-9.109497070E-3
2.125317166E0,3.509521484E-3,-2.273559570E-3,-9.552001953E-3
2.130352566E0,3.509521484E-3,-4.043579102E-3,-8.285522461E-3
2.135387966E0,3.509521484E-3,-6.103515625E-3,-8.728027344E-3
2.140423367E0,3.509521484E-3,-5.035400391E-3,-8.895874023E-3
2.145458767E0,3.036499023E-3,-4.409790039E-3,-8.285522461E-3
2.150494168E0,3.372192383E-3,-3.952026367E-3,-7.812500000E-3
2.155529568E0,4.089355469E-3,-2.395629883E-3,-7.217407227E-3
2.160564968E0,3.509521484E-3,-1.693725586E-3,-7.690429688E-3
2.165600369E0,3.005981445E-3,-2.777099609E-3,-8.773803711E-3
2.170635769E0,2.929687500E-3,-3.341674805E-3,-8.850097656E-3
2.175671170E0,2.990722656E-3,-3.860473633E-3,-8.789062500E-3
2.180706570E0,3.479003906E-3,-4.943847656E-3,-8.819580078E-3
2.185741970E0,3.509521484E-3,-5.477905273E-3,-8.285522461E-3
2.190777371E0,1.907348633E-3,-3.341674805E-3,-7.751464844E-3
2.195812771E0,2.456665039E-3,-1.754760742E-3,-7.217407227E-3
2.200848171E0,4.058837891E-3,-2.838134766E-3,-7.766723633E-3
2.205883572E0,4.013061523E-3,-2.792358398E-3,-8.285522461E-3
2.210918972E0,2.929687500E-3,-2.273559570E-3,-8.285522461E-3
2.215954373E0,2.441406250E-3,-2.853393555E-3,-8.850097656E-3
2.220989773E0,2.441406250E-3,-3.936767578E-3,-8.758544922E-3
2.226025173E0,2.441406250E-3,-4.409790039E-3,-8.285522461E-3
2.231060574E0,2.441406250E-3,-4.409790039E-3,-8.285522461E-3
2.236095974E0,3.051757812E-3,-5.035400391E-3,-8.285522461E-3
2.241131375E0,3.509521484E-3,-4.241943359E-3,-8.285522461E-3
2.246166775E0,2.243041992E-3,-2.090454102E-3,-8.285522461E-3
2.251202175E0,1.373291016E-3,-1.861572266E-3,-7.629394531E-3
2.256237576E0,2.014160156E-3,-2.929687500E-3,-7.858276367E-3
2.261272976E0,3.097534180E-3,-4.669189453E-3,-8.941650391E-3
2.266308377E0,3.509521484E-3,-5.477905273E-3,-8.682250977E-3
2.271343777E0,3.509521484E-3,-4.821777344E-3,-8.285522461E-3
2.276379177E0,3.509521484E-3,-4.409790039E-3,-8.285522461E-3
2.281414578E0,2.807617188E-3,-3.021240234E-3,-8.285522461E-3
2.286449978E0,2.441406250E-3,-2.990722656E-3,-7.568359375E-3
2.291485379E0,3.143310547E-3,-3.341674805E-3,-7.919311523E-3
2.296520779E0,3.509521484E-3,-4.074096680E-3,-8.285522461E-3
2.301556179E0,2.777099609E-3,-4.409790039E-3,-8.285522461E-3
2.306591580E0,3.173828125E-3,-3.677368164E-3,-6.805419922E-3
2.311626980E0,2.761840820E-3,-3.341674805E-3,-6.881713867E-3
2.316662380E0,1.678466797E-3,-3.341674805E-3,-7.965087891E-3
2.321697781E0,2.136230469E-3,-3.341674805E-3,-8.285522461E-3
2.326733181E0,2.441406250E-3,-3.341674805E-3,-9.048461914E-3
2.331768582E0,8.697509766E-4,-3.341674805E-3,-1.013183594E-2
2.336803982E0,1.876831055E-3,-4.135131836E-3,-9.628295898E-3
2.341839382E0,3.234863281E-3,-5.218505859E-3,-8.544921875E-3
2.346874783E0,2.700805664E-3,-5.477905273E-3,-8.285522461E-3
2.351910183E0,2.441406250E-3,-4.669189453E-3,-7.461547852E-3
2.356945584E0,2.441406250E-3,-4.409790039E-3,-8.041381836E-3
2.361980984E0,4.104614258E-3,-3.585815430E-3,-8.285522461E-3
2.367016384E0,3.723144531E-3,-3.341674805E-3,-8.285522461E-3
2.372051785E0,4.348754883E-3,-3.341674805E-3,-7.431030273E-3
2.377087185E0,4.577636719E-3,-4.211425781E-3,-7.217407227E-3
2.382122586E0,3.707885742E-3,-5.279541016E-3,-8.071899414E-3
2.387157986E0,3.509521484E-3,-4.608154297E-3,-9.155273438E-3
2.392193386E0,3.509521484E-3,-4.409790039E-3,-8.453369141E-3
2.397228787E0,3.509521484E-3,-5.310058594E-3,-8.285522461E-3
2.402264187E0,3.509521484E-3,-4.577636719E-3,-8.285522461E-3
2.407299587E0,4.409790039E-3,-3.509521484E-3,-9.185791016E-3
2.412334988E0,3.646850586E-3,-4.272460938E-3,-7.507324219E-3
2.417370388E0,2.578735352E-3,-4.409790039E-3,-7.217407227E-3
2.422405789E0,3.372192383E-3,-4.409790039E-3,-7.217407227E-3
2.427441189E0,2.563476562E-3,-5.355834961E-3,-8.148193359E-3
2.432476589E0,2.441406250E-3,-5.477905273E-3,-8.285522461E-3
2.437511990E0,3.402709961E-3,-5.477905273E-3,-7.308959961E-3
2.442547390E0,3.509521484E-3,-4.516601562E-3,-7.217407227E-3
2.447582791E0,4.486083984E-3,-4.409790039E-3,-7.217407227E-3
2.452618191E0,3.585815430E-3,-4.409790039E-3,-1.017761230E-2
2.457653591E0,2.502441406E-3,-4.409790039E-3,-9.414672852E-3
2.462688992E0,1.419067383E-3,-3.402709961E-3,-8.331298828E-3
2.467724392E0,2.380371094E-3,-3.341674805E-3,-8.285522461E-3
2.472759793E0,4.486083984E-3,-4.379272461E-3,-7.247924805E-3
2.477795193E0,4.577636719E-3,-8.529663086E-3,-9.262084961E-3
2.482830593E0,4.577636719E-3,-6.607055664E-3,-9.353637695E-3
2.487865994E0,3.524780273E-3,-4.455566406E-3,-8.300781250E-3
2.492901394E0,4.562377930E-3,-4.409790039E-3,-7.217407227E-3
2.497936795E0,4.577636719E-3,-3.341674805E-3,-7.217407227E-3
2.502972195E0,3.509521484E-3,-3.356933594E-3,-8.270263672E-3
2.508007595E0,3.494262695E-3,-4.409790039E-3,-7.217407227E-3
2.513042996E0,2.441406250E-3,-4.440307617E-3,-8.285522461E-3
2.518078396E0,2.441406250E-3,-5.447387695E-3,-8.239746094E-3
2.523113796E0,2.471923828E-3,-4.409790039E-3,-7.217407227E-3
2.528149197E0,3.448486328E-3,-4.409790039E-3,-7.217407227E-3
2.533184597E0,2.380371094E-3,-4.364013672E-3,-7.263183594E-3
2.538219998E0,1.495361328E-3,-3.479003906E-3,-8.346557617E-3
2.543255398E0,3.509521484E-3,-5.401611328E-3,-9.262084961E-3
2.548290798E0,3.509521484E-3,-4.333496094E-3,-8.285522461E-3
2.553326199E0,3.601074219E-3,-3.341674805E-3,-8.377075195E-3
2.558361599E0,4.577636719E-3,-3.448486328E-3,-9.140014648E-3
2.563397000E0,4.455566406E-3,-4.409790039E-3,-7.431030273E-3
2.568432400E0,3.509521484E-3,-4.409790039E-3,-9.231567383E-3
2.573467800E0,3.372192383E-3,-4.287719727E-3,-8.285522461E-3
2.578503201E0,2.441406250E-3,-3.341674805E-3,-8.026123047E-3
2.583538601E0,2.578735352E-3,-3.204345703E-3,-6.286621094E-3
2.588574002E0,3.509521484E-3,-2.441406250E-3,-7.369995117E-3
2.593609402E0,3.677368164E-3,-3.524780273E-3,-8.285522461E-3
2.598644802E0,4.577636719E-3,-4.592895508E-3,-8.102416992E-3
2.603680203E0,4.379272461E-3,-5.477905273E-3,-7.217407227E-3
2.608715603E0,3.509521484E-3,-5.676269531E-3,-7.217407227E-3
2.613751004E0,3.707885742E-3,-6.347656250E-3,-7.614135742E-3
2.618786404E0,4.364013672E-3,-5.477905273E-3,-9.140014648E-3
2.623821804E0,3.509521484E-3,-5.264282227E-3,-8.499145508E-3
2.628857205E0,3.509521484E-3,-4.409790039E-3,-9.353637695E-3
2.633892605E0,3.509521484E-3,-4.409790039E-3,-9.353637695E-3
2.638928005E0,3.509521484E-3,-4.653930664E-3,-9.109497070E-3
2.643963406E0,3.250122070E-3,-5.233764648E-3,-8.529663086E-3
2.648998806E0,2.441406250E-3,-4.165649414E-3,-9.353637695E-3
2.654034207E0,2.700805664E-3,-3.341674805E-3,-9.353637695E-3
2.659069607E0,3.509521484E-3,-3.616333008E-3,-9.078979492E-3
2.664105007E0,3.219604492E-3,-4.135131836E-3,-8.285522461E-3
2.669140408E0,2.731323242E-3,-3.646850586E-3,-8.285522461E-3
2.674175808E0,3.799438477E-3,-4.714965820E-3,-8.285522461E-3
2.679211209E0,4.257202148E-3,-6.103515625E-3,-8.285522461E-3
2.684246609E0,3.509521484E-3,-7.308959961E-3,-8.590698242E-3
2.689282009E0,3.829956055E-3,-5.905151367E-3,-9.017944336E-3
2.694317410E0,4.241943359E-3,-4.089355469E-3,-8.285522461E-3
2.699352810E0,3.158569336E-3,-3.692626953E-3,-7.934570312E-3
2.704388211E0,2.792358398E-3,-4.409790039E-3,-7.568359375E-3
2.709423611E0,3.143310547E-3,-4.776000977E-3,-8.285522461E-3
2.714459011E0,2.807617188E-3,-5.111694336E-3,-7.904052734E-3
2.719494412E0,3.509521484E-3,-3.662109375E-3,-7.217407227E-3
2.724529812E0,3.112792969E-3,-3.051757812E-3,-7.598876953E-3
2.729565212E0,2.838134766E-3,-4.013061523E-3,-8.682250977E-3
2.734600613E0,3.097534180E-3,-3.341674805E-3,-9.353637695E-3
2.739636013E0,3.265380859E-3,-3.341674805E-3,-8.514404297E-3
2.744671414E0,4.150390625E-3,-3.768920898E-3,-8.056640625E-3
2.749706814E0,3.509521484E-3,-4.409790039E-3,-8.911132812E-3
2.754742214E0,3.509521484E-3,-4.409790039E-3,-8.285522461E-3
2.759777615E0,3.952026367E-3,-4.409790039E-3,-8.285522461E-3
2.764813015E0,4.119873047E-3,-3.967285156E-3,-8.285522461E-3
2.769848416E0,2.578735352E-3,-3.341674805E-3,-8.285522461E-3
2.774883816E0,1.846313477E-3,-3.829956055E-3,-8.285522461E-3
2.779919216E0,2.914428711E-3,-5.386352539E-3,-8.285522461E-3
2.784954617E0,4.486083984E-3,-8.041381836E-3,-7.781982422E-3
2.789990017E0,5.142211914E-3,-8.758544922E-3,-7.705688477E-3
2.795025418E0,4.577636719E-3,-5.584716797E-3,-8.285522461E-3
2.800060818E0,4.577636719E-3,-2.838134766E-3,-8.789062500E-3
2.805096218E0,5.096435547E-3,-1.235961914E-3,-8.300781250E-3
2.810131619E0,5.645751953E-3,-1.739501953E-3,-6.683349609E-3
2.815167019E0,6.179809570E-3,-4.440307617E-3,-6.149291992E-3
2.820202420E0,5.599975586E-3,-5.477905273E-3,-6.698608398E-3
2.825237820E0,4.577636719E-3,-5.477905273E-3,-7.217407227E-3
2.830273220E0,3.997802734E-3,-5.477905273E-3,-7.217407227E-3
2.835308621E0,3.509521484E-3,-4.913330078E-3,-7.217407227E-3
2.840344021E0,3.509521484E-3,-3.234863281E-3,-6.622314453E-3
2.845379421E0,3.509521484E-3,-2.273559570E-3,-6.744384766E-3
2.850414822E0,4.104614258E-3,-2.883911133E-3,-7.217407227E-3
2.855450222E0,4.577636719E-3,-3.967285156E-3,-7.217407227E-3
2.860485623E0,3.952026367E-3,-5.035400391E-3,-8.453369141E-3
2.865521023E0,2.868652344E-3,-5.477905273E-3,-8.712768555E-3
2.870556423E0,1.785278320E-3,-4.837036133E-3,-7.629394531E-3
2.875591824E0,2.014160156E-3,-3.112792969E-3,-5.905151367E-3
2.880627224E0,2.441406250E-3,-1.632690430E-3,-5.081176758E-3
2.885662625E0,2.441406250E-3,-1.205444336E-3,-7.720947266E-3
2.890698025E0,2.441406250E-3,-2.563476562E-3,-8.666992188E-3
2.895733425E0,1.754760742E-3,-4.714965820E-3,-7.598876953E-3
2.900768826E0,2.059936523E-3,-6.179809570E-3,-7.217407227E-3
2.905804226E0,3.143310547E-3,-6.546020508E-3,-8.621215820E-3
2.910839627E0,2.792358398E-3,-5.844116211E-3,-8.636474609E-3
2.915875027E0,3.875732422E-3,-4.760742188E-3,-8.285522461E-3
2.920910427E0,3.845214844E-3,-2.227783203E-3,-8.285522461E-3
2.925945828E0,3.509521484E-3,-4.730224609E-4,-7.537841797E-3
2.930981228E0,2.761840820E-3,-8.850097656E-4,-8.697509766E-3
2.936016629E0,2.441406250E-3,-1.968383789E-3,-8.590698242E-3
2.941052029E0,2.441406250E-3,-3.036499023E-3,-9.033203125E-3
2.946087429E0,1.663208008E-3,-2.578735352E-3,-1.011657715E-2
2.951122830E0,1.373291016E-3,-3.067016602E-3,-9.628295898E-3
2.956158230E0,2.151489258E-3,-2.563476562E-3,-8.560180664E-3
2.961193630E0,2.441406250E-3,-3.082275391E-3,-7.476806641E-3
2.966229031E0,3.234863281E-3,-4.150390625E-3,-6.408691406E-3
2.971264431E0,4.318237305E-3,-5.233764648E-3,-6.958007812E-3
2.976299832E0,6.225585938E-3,-5.477905273E-3,-7.217407227E-3
2.981335232E0,6.713867188E-3,-4.653930664E-3,-7.217407227E-3
2.986370632E0,7.553100586E-3,-2.731323242E-3,-7.217407227E-3
2.991406033E0,7.781982422E-3,-1.434326172E-3,-7.217407227E-3
2.996441433E0,6.912231445E-3,-1.205444336E-3,-5.493164062E-3
3.001476834E0,8.438110352E-3,-1.205444336E-3,-5.081176758E-3
3.006512234E0,9.719848633E-3,-2.960205078E-3,-5.950927734E-3
3.011547634E0,9.918212891E-3,-4.226684570E-3,-6.149291992E-3
3.016583035E0,9.017944336E-3,-1.739501953E-3,-7.919311523E-3
3.021618435E0,9.750366211E-3,-3.051757812E-4,-7.369995117E-3
3.026653836E0,1.081848145E-2,-1.373291016E-4,-6.301879883E-3
3.031689236E0,1.098632812E-2,-2.899169922E-3,-6.149291992E-3
3.036724636E0,1.190185547E-2,-4.272460938E-3,-4.287719727E-3
3.041760037E0,1.298522949E-2,-6.286621094E-3,-4.013061523E-3
3.046795437E0,1.499938965E-2,-5.615234375E-3,-3.067016602E-3
3.051830837E0,1.525878906E-2,-6.439208984E-3,-2.944946289E-3
3.056866238E0,1.428222656E-2,-5.584716797E-3,-3.906250000E-3
3.061901638E0,1.612854004E-2,-4.516601562E-3,-1.083374023E-3
3.066937039E0,1.829528809E-2,-4.409790039E-3,-1.785278320E-3
3.071972439E0,1.945495605E-2,-5.416870117E-3,1.220703125E-4
3.077007839E0,2.052307129E-2,-6.484985352E-3,2.593994141E-4
3.082043240E0,2.262878418E-2,-7.568359375E-3,2.593994141E-4
3.087078640E0,2.375793457E-2,-5.569458008E-3,2.319335938E-3
3.092114041E0,2.482604980E-2,-4.455566406E-3,3.433227539E-3
3.097149441E0,2.589416504E-2,-2.349853516E-3,4.501342773E-3
3.102184841E0,2.803039551E-2,-2.273559570E-3,5.584716797E-3
3.107220242E0,2.912902832E-2,-5.447387695E-3,5.599975586E-3
3.112255642E0,2.914428711E-2,-6.546020508E-3,5.599975586E-3
3.117291043E0,3.128051758E-2,-8.682250977E-3,6.668090820E-3
3.122326443E0,3.343200684E-2,-7.614135742E-3,6.668090820E-3
3.127361843E0,3.556823730E-2,-7.598876953E-3,5.599975586E-3
3.132397244E0,3.666687012E-2,-6.546020508E-3,5.661010742E-3
3.137432644E0,3.878784180E-2,-6.546020508E-3,7.736206055E-3
3.142468045E0,3.990173340E-2,-6.637573242E-3,7.736206055E-3
3.147503445E0,4.205322266E-2,-8.789062500E-3,7.797241211E-3
3.152538845E0,4.403686523E-2,-1.081848145E-2,8.865356445E-3
3.157574246E0,4.316711426E-2,-1.068115234E-2,9.811401367E-3
3.162609646E0,4.516601562E-2,-8.529663086E-3,8.804321289E-3
3.167645046E0,4.524230957E-2,-6.301879883E-3,8.987426758E-3
3.172680447E0,4.612731934E-2,-3.448486328E-3,1.094055176E-2
3.177715847E0,4.536437988E-2,-4.623413086E-3,1.115417480E-2
3.182751248E0,4.740905762E-2,-6.774902344E-3,1.307678223E-2
3.187786648E0,4.846191406E-2,-8.056640625E-3,1.298522949E-2
3.192822048E0,4.943847656E-2,-1.632690430E-3,1.228332520E-2
3.197857449E0,4.971313477E-2,3.890991211E-3,1.429748535E-2
3.202892849E0,5.186462402E-2,8.865356445E-3,1.521301270E-2
3.207928250E0,5.354309082E-2,4.409790039E-3,1.553344727E-2
3.212963650E0,5.296325684E-2,-1.449584961E-3,1.751708984E-2
3.217999050E0,5.494689941E-2,-9.567260742E-3,1.841735840E-2
3.223034451E0,5.639648438E-2,-1.383972168E-2,1.861572266E-2
3.228069851E0,5.943298340E-2,-1.197814941E-2,1.988220215E-2
3.233105252E0,6.118774414E-2,-6.408691406E-3,2.203369141E-2
3.238140652E0,6.159973145E-2,-3.814697266E-4,2.375793457E-2
3.243176052E0,6.376647949E-2,2.838134766E-3,2.398681641E-2
3.248211453E0,6.567382812E-2,1.083374023E-3,2.505493164E-2
3.253246853E0,6.698608398E-2,-3.219604492E-3,2.613830566E-2
3.258282254E0,6.817626953E-2,-7.034301758E-3,2.745056152E-2
3.263317654E0,6.626892090E-2,-8.178710938E-3,2.909851074E-2
3.268353054E0,6.546020508E-2,-5.249023438E-3,2.909851074E-2
3.273388455E0,6.491088867E-2,7.019042969E-4,2.909851074E-2
3.278423855E0,6.246948242E-2,7.949829102E-3,2.882385254E-2
3.283459255E0,5.953979492E-2,1.409912109E-2,2.861022949E-2
3.288494656E0,5.827331543E-2,1.536560059E-2,2.870178223E-2
3.293530056E0,5.659484863E-2,6.256103516E-3,2.482604980E-2
3.298565457E0,4.768371582E-2,9.307861328E-4,2.482604980E-2
3.303600857E0,3.959655762E-2,1.892089844E-3,2.418518066E-2
3.308636257E0,3.594970703E-2,6.118774414E-3,2.169799805E-2
3.313671658E0,3.379821777E-2,1.087951660E-2,1.914978027E-2
3.318707058E0,3.060913086E-2,1.161193848E-2,1.773071289E-2
3.323742459E0,2.520751953E-2,1.161193848E-2,1.521301270E-2
3.328777859E0,2.056884766E-2,9.048461914E-3,1.235961914E-2
3.333813259E0,1.771545410E-2,1.144409180E-3,1.094055176E-2
3.338848660E0,1.516723633E-2,-5.569458008E-3,1.055908203E-2
3.343884060E0,1.194763184E-2,-7.614135742E-3,9.094238281E-3
3.348919461E0,8.712768555E-3,-7.217407227E-3,7.736206055E-3
3.353954861E0,5.889892578E-3,-4.089355469E-3,8.148193359E-3
3.358990261E0,5.401611328E-3,1.937866211E-3,8.392333984E-3
3.364025662E0,5.859375000E-3,6.469726562E-3,7.736206055E-3
3.369061062E0,3.692626953E-3,8.834838867E-3,7.736206055E-3
3.374096462E0,2.441406250E-3,7.690429688E-3,7.736206055E-3
3.379131863E0,1.983642578E-3,2.929687500E-3,8.193969727E-3
3.384167263E0,1.831054688E-3,-6.103515625E-4,9.735107422E-3
3.389202664E0,2.441406250E-3,-7.476806641E-4,1.048278809E-2
3.394238064E0,9.918212891E-4,2.243041992E-3,9.872436523E-3
3.399273464E0,-1.754760742E-3,8.132934570E-3,1.086425781E-2
3.404308865E0,-3.890991211E-3,1.358032227E-2,1.152038574E-2
3.409344265E0,-5.554199219E-3,1.486206055E-2,1.145935059E-2
3.414379666E0,-8.163452148E-3,1.271057129E-2,1.150512695E-2
3.419415066E0,-1.091003418E-2,1.004028320E-2,1.094055176E-2
3.424450466E0,-1.304626465E-2,7.873535156E-3,1.042175293E-2
3.429485867E0,-1.573181152E-2,7.339477539E-3,9.338378906E-3
3.434521267E0,-1.788330078E-2,6.240844727E-3,8.270263672E-3
3.439556668E0,-2.116394043E-2,4.074096680E-3,7.186889648E-3
3.444592068E0,-2.319335938E-2,1.922607422E-3,6.103515625E-3
3.449627468E0,-2.491760254E-2,1.495361328E-3,5.599975586E-3
3.454662869E0,-2.871704102E-2,2.563476562E-3,5.035400391E-3
3.459698269E0,-3.244018555E-2,5.401611328E-3,3.372192383E-3
3.464733670E0,-3.507995605E-2,6.729125977E-3,1.800537109E-3
3.469769070E0,-3.662109375E-2,4.440307617E-3,1.327514648E-3
3.474804470E0,-3.894042969E-2,1.831054688E-3,1.068115234E-4
3.479839871E0,-4.153442383E-2,-1.571655273E-3,-8.087158203E-4
3.484875271E0,-4.306030273E-2,-2.716064453E-3,-1.434326172E-3
3.489910671E0,-4.412841797E-2,-1.022338867E-3,-1.876831055E-3
3.494946072E0,-4.455566406E-2,2.426147461E-3,-2.517700195E-3
3.499981472E0,-4.588317871E-2,4.791259766E-3,-3.601074219E-3
3.505016873E0,-4.669189453E-2,5.203247070E-3,-3.341674805E-3
3.510052273E0,-4.669189453E-2,5.203247070E-3,-3.616333008E-3
3.515087673E0,-4.602050781E-2,4.516601562E-3,-3.326416016E-3
3.520123074E0,-4.702758789E-2,3.433227539E-3,-2.243041992E-3
3.525158474E0,-4.917907715E-2,2.349853516E-3,-2.578735352E-3
3.530193875E0,-5.133056641E-2,3.417968750E-3,-2.944946289E-3
3.535229275E0,-5.131530762E-2,5.584716797E-3,-2.212524414E-3
3.540264675E0,-5.244445801E-2,5.523681641E-3,-3.341674805E-3
3.545300076E0,-5.384826660E-2,5.935668945E-3,-3.265380859E-3
3.550335476E0,-5.416870117E-2,6.271362305E-3,-1.434326172E-3
3.555370877E0,-5.416870117E-2,5.508422852E-3,-1.556396484E-3
3.560406277E0,-5.570983887E-2,5.203247070E-3,-2.639770508E-3
3.565441677E0,-5.709838867E-2,4.409790039E-3,-3.723144531E-3
3.570477078E0,-5.737304688E-2,5.706787109E-3,-4.791259766E-3
3.575512478E0,-5.578613281E-2,8.651733398E-3,-5.081176758E-3
3.580547879E0,-5.444335938E-2,9.475708008E-3,-5.081176758E-3
3.585583279E0,-5.335998535E-2,8.651733398E-3,-5.081176758E-3
3.590618679E0,-5.474853516E-2,9.216308594E-3,-5.081176758E-3
3.595654080E0,-5.523681641E-2,9.475708008E-3,-5.081176758E-3
3.600689480E0,-5.607604980E-2,8.636474609E-3,-4.241943359E-3
3.605724880E0,-5.546569824E-2,7.553100586E-3,-3.158569336E-3
3.610760281E0,-5.439758301E-2,7.339477539E-3,-3.784179688E-3
3.615795681E0,-5.589294434E-2,9.902954102E-3,-5.722045898E-3
3.620831082E0,-5.545043945E-2,1.139831543E-2,-6.149291992E-3
3.625866482E0,-5.436706543E-2,1.248168945E-2,-6.149291992E-3
3.630901882E0,-5.416870117E-2,1.179504395E-2,-7.019042969E-3
3.635937283E0,-5.416870117E-2,1.071166992E-2,-8.102416992E-3
3.640972683E0,-5.596923828E-2,1.054382324E-2,-8.285522461E-3
3.646008084E0,-5.540466309E-2,1.144409180E-2,-7.369995117E-3
3.651043484E0,-5.523681641E-2,1.161193848E-2,-9.048461914E-3
3.656078884E0,-5.616760254E-2,7.904052734E-3,-9.353637695E-3
3.661114285E0,-5.537414551E-2,5.462646484E-3,-9.353637695E-3
3.666149685E0,-5.523681641E-2,6.134033203E-3,-9.353637695E-3
3.671185086E0,-5.334472656E-2,8.163452148E-3,-1.029968262E-2
3.676220486E0,-5.215454102E-2,1.031494141E-2,-9.460449219E-3
3.681255886E0,-4.818725586E-2,1.342773438E-2,-8.377075195E-3
3.686291287E0,-4.776000977E-2,1.470947266E-2,-1.022338867E-2
3.691326687E0,-4.580688477E-2,1.284790039E-2,-9.429931641E-3
3.696362087E0,-4.464721680E-2,1.069641113E-2,-9.353637695E-3
3.701397488E0,-4.356384277E-2,9.536743164E-3,-1.034545898E-2
3.706432888E0,-4.147338867E-2,1.048278809E-2,-1.042175293E-2
3.711468289E0,-3.729248047E-2,1.054382324E-2,-1.142883301E-2
3.716503689E0,-3.707885742E-2,1.054382324E-2,-1.251220703E-2
3.721539089E0,-3.605651855E-2,1.054382324E-2,-1.255798340E-2
3.726574490E0,-3.393554688E-2,1.158142090E-2,-1.150512695E-2
3.731609890E0,-3.387451172E-2,1.370239258E-2,-1.043701172E-2
3.736645291E0,-3.387451172E-2,1.161193848E-2,-1.254272461E-2
3.741680691E0,-3.280639648E-2,9.475708008E-3,-1.255798340E-2
3.746716091E0,-3.280639648E-2,8.392333984E-3,-1.255798340E-2
3.751751492E0,-3.280639648E-2,7.278442383E-3,-1.362609863E-2
3.756786892E0,-3.279113770E-2,4.104614258E-3,-1.364135742E-2
3.761822293E0,-3.166198730E-2,3.219604492E-3,-1.469421387E-2
3.766857693E0,-2.955627441E-2,7.232666016E-3,-1.463317871E-2
3.771893093E0,-2.859497070E-2,5.142211914E-3,-1.379394531E-2
3.776928494E0,-2.954101562E-2,3.936767578E-3,-1.689147949E-2
3.781963894E0,-2.839660645E-2,7.781982422E-4,-1.795959473E-2
3.786999295E0,-2.639770508E-2,-1.632690430E-3,-1.904296875E-2
3.792034695E0,-2.613830566E-2,-6.378173828E-3,-2.011108398E-2
3.797070095E0,-2.302551270E-2,-4.333496094E-3,-2.101135254E-2
3.802105496E0,-2.073669434E-2,-3.128051758E-3,-1.991271973E-2
3.807140896E0,-1.762390137E-2,-8.544921875E-4,-1.896667480E-2
3.812176296E0,-1.522827148E-2,1.998901367E-3,-1.908874512E-2
3.817211697E0,-1.104736328E-2,1.861572266E-3,-1.976013184E-2
3.822247097E0,-7.965087891E-3,7.781982422E-4,-1.774597168E-2
3.827282498E0,-5.661010742E-3,-2.899169922E-4,-1.683044434E-2
3.832317898E0,-2.410888672E-3,-1.205444336E-3,-1.683044434E-2
3.837353298E0,6.408691406E-4,-1.037597656E-3,-1.683044434E-2
3.842388699E0,2.792358398E-3,2.136230469E-4,-1.699829102E-2
3.847424099E0,4.760742188E-3,2.182006836E-3,-1.789855957E-2
3.852459500E0,5.828857422E-3,3.067016602E-3,-1.770019531E-2
3.857494900E0,7.308959961E-3,2.655029297E-3,-1.722717285E-2
3.862530300E0,1.034545898E-2,1.144409180E-3,-1.873779297E-2
3.867565701E0,1.226806641E-2,1.541137695E-3,-1.744079590E-2
3.872601101E0,1.333618164E-2,-5.950927734E-4,-1.597595215E-2
3.877636502E0,1.441955566E-2,-2.273559570E-3,-1.705932617E-2
3.882671902E0,1.550292969E-2,-2.029418945E-3,-1.789855957E-2
3.887707302E0,1.606750488E-2,-1.464843750E-3,-1.814270020E-2
3.892742703E0,1.525878906E-2,-2.807617188E-3,-1.896667480E-2
3.897778103E0,1.579284668E-2,-4.959106445E-3,-1.869201660E-2
3.902813504E0,1.766967773E-2,-7.110595703E-3,-1.844787598E-2
3.907848904E0,1.875305176E-2,-8.682250977E-3,-1.943969727E-2
3.912884304E0,2.041625977E-2,-8.392333984E-3,-1.849365234E-2
3.917919705E0,2.304077148E-2,-7.308959961E-3,-1.971435547E-2
3.922955105E0,2.442932129E-2,-5.920410156E-3,-1.896667480E-2
3.927990505E0,2.658081055E-2,-4.409790039E-3,-1.896667480E-2
3.933025906E0,2.873229980E-2,-4.089355469E-3,-1.863098145E-2
3.938061306E0,3.089904785E-2,-3.341674805E-3,-1.789855957E-2
3.943096707E0,3.305053711E-2,-3.707885742E-3,-1.789855957E-2
3.948132107E0,3.591918945E-2,-5.142211914E-3,-1.789855957E-2
3.953167507E0,3.948974609E-2,-6.179809570E-3,-1.751708984E-2
3.958202908E0,4.164123535E-2,-4.730224609E-3,-1.644897461E-2
3.963238308E0,4.341125488E-2,-2.578735352E-3,-1.652526855E-2
3.968273709E0,4.449462891E-2,-8.087158203E-4,-1.789855957E-2
3.973309109E0,4.595947266E-2,-5.493164062E-4,-1.789855957E-2
3.978344509E0,4.771423340E-2,-7.934570312E-4,-1.789855957E-2
3.983379910E0,4.878234863E-2,-9.918212891E-4,-1.704406738E-2
3.988415310E0,5.029296875E-2,-3.143310547E-3,-1.618957520E-2
3.993450711E0,5.200195312E-2,-4.409790039E-3,-1.594543457E-2
3.998486111E0,5.218505859E-2,-4.409790039E-3,-1.469421387E-2
4.003521511E0,5.064392090E-2,-3.494262695E-3,-1.422119141E-2
4.008556912E0,4.989624023E-2,-2.746582031E-3,-1.362609863E-2
4.013592312E0,5.192565918E-2,-3.829956055E-3,-1.457214355E-2
4.018627712E0,5.322265625E-2,-3.936767578E-3,-1.576232910E-2
4.023663113E0,5.361938477E-2,-4.837036133E-3,-1.625061035E-2
4.028698513E0,5.375671387E-2,-6.042480469E-3,-1.683044434E-2
4.033733914E0,5.264282227E-2,-5.477905273E-3,-1.733398438E-2
4.038769314E0,5.264282227E-2,-6.011962891E-3,-1.841735840E-2
4.043804714E0,5.210876465E-2,-7.614135742E-3,-1.896667480E-2
4.048840115E0,5.157470703E-2,-9.765625000E-3,-1.896667480E-2
4.053875515E0,5.265808105E-2,-1.136779785E-2,-1.896667480E-2
4.058910916E0,5.482482910E-2,-1.133728027E-2,-1.840209961E-2
4.063946316E0,5.584716797E-2,-9.689331055E-3,-1.846313477E-2
4.068981716E0,5.526733398E-2,-5.844116211E-3,-1.838684082E-2
4.074017117E0,5.534362793E-2,-2.197265625E-3,-1.731872559E-2
4.079052517E0,5.584716797E-2,-1.800537109E-3,-1.623535156E-2
4.084087918E0,5.584716797E-2,-4.058837891E-3,-1.576232910E-2
4.089123318E0,5.584716797E-2,-8.499145508E-3,-1.576232910E-2
4.094158718E0,5.584716797E-2,-1.327514648E-2,-1.576232910E-2
4.099194119E0,5.584716797E-2,-1.387023926E-2,-1.576232910E-2
4.104229519E0,5.458068848E-2,-1.232910156E-2,-1.512145996E-2
4.109264920E0,5.242919922E-2,-1.062011719E-2,-1.531982422E-2
4.114300320E0,5.157470703E-2,-7.812500000E-3,-1.576232910E-2
4.119335720E0,5.223083496E-2,-5.889892578E-3,-1.641845703E-2
4.124371121E0,5.197143555E-2,-6.149291992E-3,-1.548767090E-2
4.129406521E0,5.088806152E-2,-8.575439453E-3,-1.469421387E-2
4.134441921E0,5.117797852E-2,-1.043701172E-2,-1.605224609E-2
4.139477322E0,4.949951172E-2,-1.152038574E-2,-1.544189453E-2
4.144512722E0,4.766845703E-2,-1.258850098E-2,-1.538085938E-2
4.149548123E0,4.730224609E-2,-1.225280762E-2,-1.576232910E-2
4.154583523E0,4.586791992E-2,-1.118469238E-2,-1.646423340E-2
4.159618923E0,4.443359375E-2,-1.010131836E-2,-1.754760742E-2
4.164654324E0,4.335021973E-2,-9.750366211E-3,-1.863098145E-2
4.169689724E0,4.302978516E-2,-1.124572754E-2,-1.821899414E-2
4.174725125E0,4.150390625E-2,-1.341247559E-2,-1.789855957E-2
4.179760525E0,4.089355469E-2,-1.554870605E-2,-1.789855957E-2
4.184795925E0,3.855895996E-2,-1.693725586E-2,-1.866149902E-2
4.189831326E0,3.611755371E-2,-1.567077637E-2,-1.896667480E-2
4.194866726E0,3.633117676E-2,-1.431274414E-2,-1.896667480E-2
4.199902127E0,3.501892090E-2,-1.402282715E-2,-1.896667480E-2
4.204937527E0,3.448486328E-2,-1.322937012E-2,-1.815795898E-2
4.209972927E0,3.366088867E-2,-1.458740234E-2,-1.707458496E-2
4.215008328E0,3.175354004E-2,-1.509094238E-2,-1.765441895E-2
4.220043728E0,2.960205078E-2,-1.676940918E-2,-1.705932617E-2
4.225079129E0,2.914428711E-2,-1.808166504E-2,-1.683044434E-2
4.230114529E0,2.743530273E-2,-1.914978027E-2,-1.683044434E-2
4.235149929E0,2.528381348E-2,-1.678466797E-2,-1.683044434E-2
4.240185330E0,2.487182617E-2,-1.615905762E-2,-1.596069336E-2
4.245220730E0,2.487182617E-2,-1.440429688E-2,-1.576232910E-2
4.250256130E0,2.308654785E-2,-1.492309570E-2,-1.576232910E-2
4.255291531E0,2.183532715E-2,-1.420593262E-2,-1.486206055E-2
4.260326931E0,1.895141602E-2,-1.583862305E-2,-1.377868652E-2
4.265362332E0,1.846313477E-2,-1.799011230E-2,-1.452636719E-2
4.270397732E0,1.753234863E-2,-1.829528809E-2,-1.652526855E-2
4.275433132E0,1.646423340E-2,-1.737976074E-2,-1.589965820E-2
4.280468533E0,1.445007324E-2,-1.536560059E-2,-1.576232910E-2
4.285503933E0,1.513671875E-2,-1.225280762E-2,-1.480102539E-2
4.290539334E0,1.333618164E-2,-1.094055176E-2,-1.660156250E-2
4.295574734E0,1.214599609E-2,-1.275634766E-2,-1.779174805E-2
4.300610134E0,8.163452148E-3,-1.393127441E-2,-1.594543457E-2
4.305645535E0,6.790161133E-3,-1.402282715E-2,-1.673889160E-2
4.310680935E0,4.730224609E-3,-1.600646973E-2,-1.583862305E-2
4.315716336E0,3.570556641E-3,-1.516723633E-2,-1.576232910E-2
4.320751736E0,3.509521484E-3,-1.509094238E-2,-1.676940918E-2
4.325787136E0,4.577636719E-4,-1.509094238E-2,-1.580810547E-2
4.330822537E0,-1.754760742E-3,-1.406860352E-2,-1.780700684E-2
4.335857937E0,-2.868652344E-3,-1.092529297E-2,-1.582336426E-2
4.340893337E0,-3.952026367E-3,-9.780883789E-3,-1.576232910E-2
4.345928738E0,-5.035400391E-3,-1.081848145E-2,-1.576232910E-2
4.350964138E0,-7.171630859E-3,-9.765625000E-3,-1.576232910E-2
4.355999539E0,-9.323120117E-3,-9.750366211E-3,-1.576232910E-2
4.361034939E0,-1.039123535E-2,-9.750366211E-3,-1.681518555E-2
4.366070339E0,-1.148986816E-2,-8.682250977E-3,-1.573181152E-2
4.371105740E0,-1.358032227E-2,-8.728027344E-3,-1.472473145E-2
4.376141140E0,-1.370239258E-2,-9.841918945E-3,-1.576232910E-2
4.381176541E0,-1.673889160E-2,-1.194763184E-2,-1.580810547E-2
4.386211941E0,-1.577758789E-2,-1.301574707E-2,-1.676940918E-2
4.391247341E0,-1.686096191E-2,-1.402282715E-2,-1.576232910E-2
4.396282742E0,-1.792907715E-2,-1.388549805E-2,-1.560974121E-2
4.401318142E0,-1.901245117E-2,-1.181030273E-2,-1.362609863E-2
4.406353543E0,-2.008056641E-2,-1.074218750E-2,-1.353454590E-2
4.411388943E0,-2.125549316E-2,-9.658813477E-3,-1.255798340E-2
4.416424343E0,-2.340698242E-2,-8.682250977E-3,-1.264953613E-2
4.421459744E0,-2.532958984E-2,-8.804321289E-3,-1.362609863E-2
4.426495144E0,-2.532958984E-2,-1.000976562E-2,-1.348876953E-2
4.431530545E0,-2.560424805E-2,-1.176452637E-2,-1.242065430E-2
4.436565945E0,-2.775573730E-2,-1.097106934E-2,-1.162719727E-2
4.441601345E0,-2.975463867E-2,-1.159667969E-2,-1.240539551E-2
4.446636746E0,-3.067016602E-2,-9.918212891E-3,-1.164245605E-2
4.451672146E0,-3.102111816E-2,-1.065063477E-2,-1.272583008E-2
4.456707546E0,-3.298950195E-2,-9.933471680E-3,-1.362609863E-2
4.461742947E0,-3.387451172E-2,-1.119995117E-2,-1.380920410E-2
4.466778347E0,-3.407287598E-2,-1.335144043E-2,-1.469421387E-2
4.471813748E0,-3.535461426E-2,-1.530456543E-2,-1.469421387E-2
4.476849148E0,-3.730773926E-2,-1.573181152E-2,-1.446533203E-2
4.481884548E0,-3.814697266E-2,-1.425170898E-2,-1.383972168E-2
4.486919949E0,-3.839111328E-2,-1.486206055E-2,-1.469421387E-2
4.491955349E0,-3.921508789E-2,-1.379394531E-2,-1.492309570E-2
4.496990750E0,-3.897094727E-2,-1.295471191E-2,-1.525878906E-2
4.502026150E0,-3.814697266E-2,-1.348876953E-2,-1.362609863E-2
4.507061550E0,-3.868103027E-2,-1.536560059E-2,-1.335144043E-2
4.512096951E0,-4.028320312E-2,-1.560974121E-2,-1.255798340E-2
4.517132351E0,-4.028320312E-2,-1.374816895E-2,-1.255798340E-2
4.522167752E0,-3.999328613E-2,-1.325988770E-2,-1.225280762E-2
4.527203152E0,-3.921508789E-2,-1.371765137E-2,-1.148986816E-2
4.532238552E0,-3.860473633E-2,-1.295471191E-2,-1.148986816E-2
4.537273953E0,-3.677368164E-2,-1.295471191E-2,-1.179504395E-2
4.542309353E0,-3.666687012E-2,-1.263427734E-2,-1.255798340E-2
4.547344754E0,-3.848266602E-2,-1.123046875E-2,-1.222229004E-2
4.552380154E0,-3.887939453E-2,-9.750366211E-3,-1.182556152E-2
4.557415554E0,-3.814697266E-2,-9.399414062E-3,-1.184082031E-2
4.562450955E0,-3.814697266E-2,-9.048461914E-3,-1.042175293E-2
4.567486355E0,-3.778076172E-2,-1.013183594E-2,-9.307861328E-3
4.572521755E0,-3.707885742E-2,-1.045227051E-2,-7.217407227E-3
4.577557156E0,-3.707885742E-2,-9.750366211E-3,-7.217407227E-3
4.582592556E0,-3.707885742E-2,-1.016235352E-2,-7.614135742E-3
4.587627957E0,-3.668212891E-2,-1.042175293E-2,-8.682250977E-3
4.592663357E0,-3.601074219E-2,-9.750366211E-3,-9.765625000E-3
4.597698757E0,-3.686523438E-2,-9.338378906E-3,-9.994506836E-3
4.602734158E0,-3.771972656E-2,-8.255004883E-3,-8.911132812E-3
4.607769558E0,-3.663635254E-2,-8.071899414E-3,-8.285522461E-3
4.612804959E0,-3.601074219E-2,-9.582519531E-3,-8.728027344E-3
4.617840359E0,-3.555297852E-2,-1.129150391E-2,-9.353637695E-3
4.622875759E0,-3.448486328E-2,-1.235961914E-2,-9.353637695E-3
4.627911160E0,-3.340148926E-2,-1.248168945E-2,-8.865356445E-3
4.632946560E0,-3.280639648E-2,-1.091003418E-2,-7.781982422E-3
4.637981961E0,-3.132629395E-2,-9.262084961E-3,-6.713867188E-3
4.643017361E0,-2.909851074E-2,-7.675170898E-3,-6.149291992E-3
4.648052761E0,-2.751159668E-2,-5.523681641E-3,-6.149291992E-3
4.653088162E0,-2.639770508E-2,-4.943847656E-3,-5.615234375E-3
4.658123562E0,-2.534484863E-2,-5.477905273E-3,-5.081176758E-3
4.663158962E0,-2.319335938E-2,-5.477905273E-3,-4.531860352E-3
4.668194363E0,-2.157592773E-2,-4.379272461E-3,-3.448486328E-3
4.673229763E0,-2.162170410E-2,-3.906250000E-3,-2.944946289E-3
4.678265164E0,-2.043151855E-2,-4.409790039E-3,-1.800537109E-3
4.683300564E0,-1.835632324E-2,-3.845214844E-3,-2.288818359E-4
4.688335964E0,-1.727294922E-2,-3.341674805E-3,2.593994141E-4
4.693371365E0,-1.620483398E-2,-3.341674805E-3,2.593994141E-4
4.698406765E0,-1.451110840E-2,-2.746582031E-3,2.593994141E-4
4.703442166E0,-1.296997070E-2,-1.052856445E-3,2.593994141E-4
4.708477566E0,-1.374816895E-2,-1.373291016E-3,2.105712891E-3
4.713512966E0,-1.341247559E-2,-2.899169922E-3,1.602172852E-3
4.718548367E0,-1.124572754E-2,-3.982543945E-3,9.002685547E-4
4.723583767E0,-1.037597656E-2,-4.409790039E-3,6.866455078E-4
4.728619168E0,-9.735107422E-3,-5.065917969E-3,-3.814697266E-4
4.733654568E0,-8.651733398E-3,-4.821777344E-3,-8.087158203E-4
4.738689968E0,-6.225585938E-3,-3.738403320E-3,-1.220703125E-4
4.743725369E0,-3.677368164E-3,-2.670288086E-3,-4.119873047E-4
4.748760769E0,-2.212524414E-3,-2.273559570E-3,-8.087158203E-4
4.753796170E0,-1.144409180E-3,-2.975463867E-3,5.950927734E-4
4.758831570E0,6.408691406E-4,-4.058837891E-3,6.256103516E-4
4.763866970E0,2.075195312E-3,-4.409790039E-3,2.593994141E-4
4.768902371E0,3.158569336E-3,-3.692626953E-3,-1.922607422E-3
4.773937771E0,4.241943359E-3,-2.609252930E-3,-7.324218750E-4
4.778973171E0,5.310058594E-3,-7.934570312E-4,-4.730224609E-4
4.784008572E0,6.393432617E-3,-9.002685547E-4,-4.577636719E-5
4.789043972E0,8.224487305E-3,-1.205444336E-3,-4.882812500E-4
4.794079373E0,1.037597656E-2,-2.746582031E-3,-3.051757812E-5
4.799114773E0,1.176452637E-2,-2.563476562E-3,1.052856445E-3
4.804150173E0,1.283264160E-2,-2.273559570E-3,2.120971680E-3
4.809185574E0,1.391601562E-2,-2.273559570E-3,3.204345703E-3
4.814220974E0,1.498413086E-2,-1.480102539E-3,3.463745117E-3
4.819256375E0,1.606750488E-2,-3.967285156E-4,2.655029297E-3
4.824291775E0,1.713562012E-2,-1.373291016E-4,3.219604492E-3
4.829327175E0,1.739501953E-2,-1.373291016E-4,3.463745117E-3
4.834362576E0,1.823425293E-2,-1.373291016E-4,3.463745117E-3
4.839397976E0,1.930236816E-2,-9.918212891E-4,3.463745117E-3
4.844433377E0,2.038574219E-2,-2.075195312E-3,2.609252930E-3
4.849468777E0,2.059936523E-2,-2.273559570E-3,1.541137695E-3
4.854504177E0,2.146911621E-2,-1.403808594E-3,3.097534180E-3
4.859539578E0,2.343750000E-2,-3.204345703E-4,3.463745117E-3
4.864574978E0,2.380371094E-2,-1.373291016E-4,3.463745117E-3
4.869610379E0,2.560424805E-2,1.663208008E-3,2.563476562E-3
4.874645779E0,2.775573730E-2,1.998901367E-3,1.495361328E-3
4.879681179E0,2.807617188E-2,-1.708984375E-3,1.327514648E-3
4.884716580E0,2.807617188E-2,5.187988281E-4,3.967285156E-4
4.889751980E0,2.993774414E-2,-1.525878906E-5,1.205444336E-3
4.894787380E0,3.021240234E-2,-1.373291016E-4,3.814697266E-4
4.899822781E0,3.115844727E-2,8.087158203E-4,2.593994141E-4
4.904858181E0,3.224182129E-2,1.892089844E-3,2.593994141E-4
4.909893582E0,3.330993652E-2,1.998901367E-3,2.212524414E-3
4.914928982E0,3.341674805E-2,1.007080078E-3,2.395629883E-3
4.919964382E0,3.341674805E-2,-6.103515625E-5,3.387451172E-3
4.924999783E0,3.240966797E-2,-1.144409180E-3,2.471923828E-3
4.930035183E0,3.335571289E-2,-1.205444336E-3,1.388549805E-3
4.935070584E0,3.442382812E-2,8.239746094E-4,3.372192383E-3
4.940105984E0,3.550720215E-2,1.953125000E-3,4.501342773E-3
4.945141384E0,3.555297852E-2,1.998901367E-3,4.531860352E-3
4.950176785E0,3.555297852E-2,3.036499023E-3,2.441406250E-3
4.955212185E0,3.448486328E-2,1.998901367E-3,4.531860352E-3
4.960247586E0,3.555297852E-2,3.067016602E-3,1.327514648E-3
4.965282986E0,3.767395020E-2,1.983642578E-3,2.395629883E-3
4.970318386E0,3.663635254E-2,9.002685547E-4,1.373291016E-3
4.975353787E0,3.773498535E-2,-1.220703125E-4,3.494262695E-3
4.980389187E0,3.982543945E-2,9.918212891E-4,4.470825195E-3
4.985424587E0,3.982543945E-2,3.067016602E-3,2.365112305E-3
4.990459988E0,3.976440430E-2,3.112792969E-3,1.327514648E-3
4.995495388E0,3.869628906E-2,4.074096680E-3,1.327514648E-3
5.000530789E0,3.761291504E-2,2.990722656E-3,1.403808594E-3
5.005566189E0,3.669738770E-2,1.907348633E-3,2.395629883E-3
5.010601589E0,3.776550293E-2,9.307861328E-4,2.319335938E-3
5.015636990E0,3.866577148E-2,8.392333984E-4,1.327514648E-3
5.020672390E0,3.768920898E-2,-4.577636719E-5,1.235961914E-3
5.025707791E0,3.768920898E-2,1.144409180E-3,2.593994141E-4
5.030743191E0,3.756713867E-2,3.173828125E-3,3.814697266E-4
5.035778591E0,3.636169434E-2,3.997802734E-3,1.083374023E-3
5.040813992E0,3.434753418E-2,3.067016602E-3,-8.087158203E-4
5.045849392E0,3.341674805E-2,2.777099609E-3,-6.561279297E-4
5.050884793E0,3.341674805E-2,6.103515625E-4,4.272460938E-4
5.055920193E0,3.341674805E-2,-8.850097656E-4,1.327514648E-3
5.060955593E0,3.341674805E-2,1.098632812E-3,9.918212891E-4
5.065990994E0,3.323364258E-2,2.349853516E-3,-6.256103516E-4
5.071026394E0,3.215026855E-2,4.318237305E-3,2.593994141E-4
5.076061795E0,3.128051758E-2,5.386352539E-3,7.629394531E-5
5.081097195E0,3.106689453E-2,6.271362305E-3,-5.950927734E-4
5.086132595E0,3.021240234E-2,5.828857422E-3,2.593994141E-4
5.091167996E0,2.998352051E-2,3.677368164E-3,-3.967285156E-4
5.096203396E0,2.914428711E-2,1.998901367E-3,-2.700805664E-3
5.101238796E0,2.890014648E-2,1.998901367E-3,-1.876831055E-3
5.106274197E0,2.781677246E-2,2.487182617E-3,-1.617431641E-3
5.111309597E0,2.700805664E-2,4.394531250E-3,-1.068115234E-3
5.116344998E0,2.673339844E-2,5.462646484E-3,-1.876831055E-3
5.121380398E0,2.565002441E-2,6.271362305E-3,-2.151489258E-3
5.126415798E0,2.458190918E-2,5.981445312E-3,-3.219604492E-3
5.131451199E0,2.320861816E-2,4.608154297E-3,-4.013061523E-3
5.136486599E0,2.104187012E-2,3.372192383E-3,-3.692626953E-3
5.141522000E0,1.953125000E-2,4.135131836E-3,-3.250122070E-3
5.146557400E0,1.887512207E-2,3.479003906E-3,-4.013061523E-3
5.151592800E0,1.705932617E-2,1.998901367E-3,-4.013061523E-3
5.156628201E0,1.632690430E-2,1.647949219E-3,-4.348754883E-3
5.161663601E0,1.597595215E-2,1.266479492E-3,-4.730224609E-3
5.166699002E0,1.454162598E-2,2.349853516E-3,-4.013061523E-3
5.171734402E0,1.275634766E-2,2.334594727E-3,-4.730224609E-3
5.176769802E0,1.167297363E-2,9.307861328E-4,-6.515502930E-3
5.181805203E0,9.826660156E-3,9.307861328E-4,-7.217407227E-3
5.186840603E0,7.385253906E-3,1.312255859E-3,-7.217407227E-3
5.191876004E0,6.301879883E-3,2.395629883E-3,-7.217407227E-3
5.196911404E0,6.042480469E-3,2.655029297E-3,-7.217407227E-3
5.201946804E0,5.874633789E-3,1.998901367E-3,-7.629394531E-3
5.206982205E0,4.577636719E-3,2.838134766E-3,-7.858276367E-3
5.212017605E0,4.135131836E-3,3.692626953E-3,-7.644653320E-3
5.217053005E0,3.051757812E-3,2.609252930E-3,-8.285522461E-3
5.222088406E0,2.441406250E-3,1.541137695E-3,-8.285522461E-3
5.227123806E0,1.510620117E-3,9.307861328E-4,-7.812500000E-3
5.232159207E0,-1.678466797E-4,9.307861328E-4,-7.217407227E-3
5.237194607E0,-1.724243164E-3,9.307861328E-4,-7.217407227E-3
5.242230007E0,-2.899169922E-3,1.419067383E-3,-7.217407227E-3
5.247265408E0,-3.906250000E-3,1.998901367E-3,-7.217407227E-3
5.252300808E0,-5.554199219E-3,1.480102539E-3,-7.720947266E-3
5.257336209E0,-6.622314453E-3,9.307861328E-4,-8.789062500E-3
5.262371609E0,-7.705688477E-3,9.307861328E-4,-9.353637695E-3
5.267407009E0,-9.307861328E-3,3.967285156E-4,-9.887695312E-3
5.272442410E0,-1.092529297E-2,-6.866455078E-4,-9.872436523E-3
5.277477810E0,-1.089477539E-2,-1.068115234E-4,-9.902954102E-3
5.282513211E0,-9.826660156E-3,9.307861328E-4,-1.042175293E-2
5.287548611E0,-1.045227051E-2,9.307861328E-4,-1.042175293E-2
5.292584011E0,-1.202392578E-2,9.307861328E-4,-1.042175293E-2
5.297619412E0,-1.368713379E-2,3.356933594E-4,-1.100158691E-2
5.302654812E0,-1.464843750E-2,-7.476806641E-4,-1.208496094E-2
5.307690212E0,-1.464843750E-2,-6.103515625E-4,-1.194763184E-2
5.312725613E0,-1.464843750E-2,-7.629394531E-4,-1.210021973E-2
5.317761013E0,-1.527404785E-2,1.525878906E-5,-1.255798340E-2
5.322796414E0,-1.634216309E-2,9.307861328E-4,-1.255798340E-2
5.327831814E0,-1.872253418E-2,2.746582031E-4,-1.126098633E-2
5.332867214E0,-1.869201660E-2,1.159667969E-3,-1.106262207E-2
5.337902615E0,-1.719665527E-2,6.713867188E-4,-1.280212402E-2
5.342938015E0,-1.879882812E-2,-1.480102539E-3,-1.362609863E-2
5.347973416E0,-2.134704590E-2,-1.602172852E-3,-1.362609863E-2
5.353008816E0,-2.145385742E-2,-5.340576172E-4,-1.293945312E-2
5.358044216E0,-2.314758301E-2,1.251220703E-3,-1.324462891E-2
5.363079617E0,-2.497863770E-2,1.281738281E-3,-1.220703125E-2
5.368115017E0,-2.532958984E-2,2.136230469E-4,-1.148986816E-2
5.373150418E0,-2.461242676E-2,-1.373291016E-4,-1.220703125E-2
5.378185818E0,-2.572631836E-2,-8.697509766E-4,-1.182556152E-2
5.383221218E0,-2.639770508E-2,-1.953125000E-3,-1.074218750E-2
5.388256619E0,-2.789306641E-2,-1.541137695E-3,-1.042175293E-2
5.393292019E0,-2.778625488E-2,-4.577636719E-4,-1.116943359E-2
5.398327420E0,-2.593994141E-2,-9.155273438E-4,-1.225280762E-2
5.403362820E0,-2.532958984E-2,3.356933594E-4,-1.255798340E-2
5.408398220E0,-2.612304688E-2,1.708984375E-3,-1.333618164E-2
5.413433621E0,-2.719116211E-2,4.119873047E-4,-1.362609863E-2
5.418469021E0,-2.746582031E-2,-1.373291016E-4,-1.281738281E-2
5.423504421E0,-2.746582031E-2,6.713867188E-4,-1.336669922E-2
5.428539822E0,-2.830505371E-2,9.155273438E-5,-1.278686523E-2
5.433575222E0,-2.853393555E-2,-9.765625000E-4,-1.338195801E-2
5.438610623E0,-2.685546875E-2,-2.059936523E-3,-1.446533203E-2
5.443646023E0,-2.470397949E-2,-1.434326172E-3,-1.553344727E-2
5.448681423E0,-2.511596680E-2,-1.205444336E-3,-1.490783691E-2
5.453716824E0,-2.532958984E-2,-1.205444336E-3,-1.469421387E-2
5.458752224E0,-2.445983887E-2,-1.205444336E-3,-1.380920410E-2
5.463787625E0,-2.603149414E-2,-1.205444336E-3,-1.449584961E-2
5.468823025E0,-2.462768555E-2,-3.204345703E-4,-1.557922363E-2
5.473858425E0,-2.516174316E-2,-1.037597656E-3,-1.576232910E-2
5.478893826E0,-2.532958984E-2,-2.120971680E-3,-1.484680176E-2
5.483929226E0,-2.626037598E-2,-3.204345703E-3,-1.469421387E-2
5.488964627E0,-2.548217773E-2,-3.341674805E-3,-1.560974121E-2
5.494000027E0,-2.439880371E-2,-3.341674805E-3,-1.576232910E-2
5.499035427E0,-2.426147461E-2,-4.287719727E-3,-1.576232910E-2
5.504070828E0,-2.235412598E-2,-5.371093750E-3,-1.480102539E-2
5.509106228E0,-2.406311035E-2,-6.454467773E-3,-1.469421387E-2
5.514141629E0,-2.426147461E-2,-6.546020508E-3,-1.371765137E-2
5.519177029E0,-2.230834961E-2,-5.569458008E-3,-1.557922363E-2
5.524212429E0,-2.311706543E-2,-5.477905273E-3,-1.576232910E-2
5.529247830E0,-2.021789551E-2,-4.486083984E-3,-1.475524902E-2
5.534283230E0,-1.799011230E-2,-3.417968750E-3,-1.368713379E-2
5.539318630E0,-1.582336426E-2,-4.364013672E-3,-1.260375977E-2
5.544354031E0,-1.675415039E-2,-4.409790039E-3,-1.460266113E-2
5.549389431E0,-1.678466797E-2,-4.409790039E-3,-1.365661621E-2
5.554424832E0,-1.574707031E-2,-5.462646484E-3,-1.466369629E-2
5.559460232E0,-1.362609863E-2,-5.477905273E-3,-1.469421387E-2
5.564495632E0,-1.147460938E-2,-6.546020508E-3,-1.469421387E-2
5.569531033E0,-1.144409180E-2,-5.477905273E-3,-1.362609863E-2
5.574566433E0,-1.251220703E-2,-5.477905273E-3,-1.574707031E-2
5.579601834E0,-1.145935059E-2,-4.425048828E-3,-1.364135742E-2
5.584637234E0,-1.249694824E-2,-5.508422852E-3,-1.573181152E-2
5.589672634E0,-1.141357422E-2,-6.546020508E-3,-1.469421387E-2
5.594708035E0,-1.034545898E-2,-6.515502930E-3,-1.469421387E-2
5.599743435E0,-9.216308594E-3,-5.584716797E-3,-1.458740234E-2
5.604778836E0,-7.125854492E-3,-7.507324219E-3,-1.260375977E-2
5.609814236E0,-6.103515625E-3,-5.554199219E-3,-1.354980469E-2
5.614849636E0,-5.950927734E-3,-6.546020508E-3,-1.246643066E-2
5.619885037E0,-3.890991211E-3,-6.469726562E-3,-1.148986816E-2
5.624920437E0,-2.822875977E-3,-5.477905273E-3,-1.148986816E-2
5.629955837E0,-1.831054688E-3,-5.584716797E-3,-1.148986816E-2
5.634991238E0,-1.724243164E-3,-6.774902344E-3,-1.148986816E-2
5.640026638E0,-5.187988281E-4,-8.560180664E-3,-1.161193848E-2
5.645062039E0,1.373291016E-3,-7.492065430E-3,-1.255798340E-2
5.650097439E0,1.647949219E-3,-6.546020508E-3,-1.240539551E-2
5.655132839E0,3.646850586E-3,-6.546020508E-3,-1.148986816E-2
5.660168240E0,4.577636719E-3,-6.546020508E-3,-1.164245605E-2
5.665203640E0,4.745483398E-3,-6.546020508E-3,-1.255798340E-2
5.670239041E0,5.996704102E-3,-6.546020508E-3,-1.219177246E-2
5.675274441E0,7.583618164E-3,-6.546020508E-3,-1.042175293E-2
5.680309841E0,7.095336914E-3,-6.942749023E-3,-1.060485840E-2
5.685345242E0,8.636474609E-3,-8.682250977E-3,-1.127624512E-2
5.690380642E0,8.209228516E-3,-8.468627930E-3,-1.042175293E-2
5.695416043E0,9.918212891E-3,-7.400512695E-3,-1.019287109E-2
5.700451443E0,9.918212891E-3,-6.790161133E-3,-9.353637695E-3
5.705486843E0,1.063537598E-2,-7.614135742E-3,-9.582519531E-3
5.710522244E0,1.361083984E-2,-7.614135742E-3,-1.016235352E-2
5.715557644E0,1.499938965E-2,-7.873535156E-3,-9.094238281E-3
5.720593045E0,1.445007324E-2,-8.422851562E-3,-8.819580078E-3
5.725628445E0,1.608276367E-2,-7.614135742E-3,-1.013183594E-2
5.730663845E0,1.873779297E-2,-7.614135742E-3,-9.353637695E-3
5.735699246E0,1.982116699E-2,-7.919311523E-3,-9.353637695E-3
5.740734646E0,2.088928223E-2,-8.682250977E-3,-9.353637695E-3
5.745770046E0,2.197265625E-2,-8.682250977E-3,-9.353637695E-3
5.750805447E0,2.209472656E-2,-8.682250977E-3,-9.033203125E-3
5.755840847E0,2.091979980E-2,-8.682250977E-3,-8.605957031E-3
5.760876248E0,2.200317383E-2,-8.346557617E-3,-8.666992188E-3
5.765911648E0,2.307128906E-2,-7.965087891E-3,-7.553100586E-3
5.770947048E0,2.380371094E-2,-8.682250977E-3,-7.919311523E-3
5.775982449E0,2.307128906E-2,-9.048461914E-3,-7.217407227E-3
5.781017849E0,2.239990234E-2,-1.013183594E-2,-7.583618164E-3
5.786053250E0,2.380371094E-2,-1.045227051E-2,-8.285522461E-3
5.791088650E0,2.380371094E-2,-1.014709473E-2,-7.888793945E-3
5.796124050E0,2.420043945E-2,-1.081848145E-2,-7.614135742E-3
5.801159451E0,2.487182617E-2,-1.081848145E-2,-7.461547852E-3
5.806194851E0,2.569580078E-2,-1.040649414E-2,-6.149291992E-3
5.811230252E0,2.742004395E-2,-1.017761230E-2,-6.149291992E-3
5.816265652E0,2.763366699E-2,-1.039123535E-2,-6.576538086E-3
5.821301052E0,2.745056152E-2,-9.750366211E-3,-6.759643555E-3
5.826336453E0,2.896118164E-2,-1.020812988E-2,-5.691528320E-3
5.831371853E0,2.973937988E-2,-1.081848145E-2,-5.538940430E-3
5.836407254E0,2.914428711E-2,-1.081848145E-2,-6.149291992E-3
5.841442654E0,2.914428711E-2,-9.872436523E-3,-5.661010742E-3
5.846478054E0,2.914428711E-2,-9.170532227E-3,-5.081176758E-3
5.851513455E0,2.914428711E-2,-9.750366211E-3,-5.569458008E-3
5.856548855E0,2.963256836E-2,-1.025390625E-2,-6.149291992E-3
5.861584255E0,3.071594238E-2,-9.811401367E-3,-6.149291992E-3
5.866619656E0,3.128051758E-2,-9.216308594E-3,-6.149291992E-3
5.871655056E0,3.128051758E-2,-1.028442383E-2,-5.615234375E-3
5.876690457E0,3.234863281E-2,-1.136779785E-2,-5.081176758E-3
5.881725857E0,3.286743164E-2,-1.135253906E-2,-5.615234375E-3
5.886761257E0,3.178405762E-2,-1.081848145E-2,-6.149291992E-3
5.891796658E0,3.070068359E-2,-1.025390625E-2,-5.569458008E-3
5.896832058E0,3.077697754E-2,-9.750366211E-3,-5.645751953E-3
5.901867459E0,3.068542480E-2,-9.750366211E-3,-5.554199219E-3
5.906902859E0,2.960205078E-2,-1.036071777E-2,-5.676269531E-3
5.911938259E0,2.914428711E-2,-1.081848145E-2,-6.744384766E-3
5.916973660E0,2.853393555E-2,-1.081848145E-2,-7.217407227E-3
5.922009060E0,2.807617188E-2,-1.081848145E-2,-5.981445312E-3
5.927044461E0,2.807617188E-2,-1.081848145E-2,-5.691528320E-3
5.932079861E0,2.743530273E-2,-1.081848145E-2,-6.149291992E-3
5.937115261E0,2.635192871E-2,-1.017761230E-2,-5.493164062E-3
5.942150662E0,2.593994141E-2,-9.750366211E-3,-5.081176758E-3
5.947186062E0,2.593994141E-2,-9.750366211E-3,-5.081176758E-3
5.952221462E0,2.526855469E-2,-9.094238281E-3,-5.081176758E-3
5.957256863E0,2.487182617E-2,-9.368896484E-3,-5.081176758E-3
5.962292263E0,2.487182617E-2,-9.063720703E-3,-5.081176758E-3
5.967327664E0,2.487182617E-2,-8.682250977E-3,-4.379272461E-3
5.972363064E0,2.415466309E-2,-8.682250977E-3,-3.295898438E-3
5.977398464E0,2.380371094E-2,-7.980346680E-3,-2.944946289E-3
5.982433865E0,2.380371094E-2,-8.346557617E-3,-3.662109375E-3
5.987469265E0,2.305603027E-2,-7.949829102E-3,-4.013061523E-3
5.992504666E0,2.198791504E-2,-7.614135742E-3,-4.013061523E-3
5.997540066E0,2.015686035E-2,-8.377075195E-3,-4.013061523E-3
6.002575466E0,1.953125000E-2,-7.934570312E-3,-4.013061523E-3
6.007610867E0,1.953125000E-2,-7.614135742E-3,-4.013061523E-3
6.012646267E0,1.875305176E-2,-7.614135742E-3,-6.332397461E-3
6.017681668E0,1.766967773E-2,-8.407592773E-3,-7.995605469E-3
6.022717068E0,1.660156250E-2,-7.110595703E-3,-7.492065430E-3
6.027752468E0,1.632690430E-2,-7.354736328E-3,-4.806518555E-3
6.032787869E0,1.470947266E-2,-6.820678711E-3,-4.806518555E-3
6.037823269E0,1.336669922E-2,-7.369995117E-3,-5.081176758E-3
6.042858670E0,1.312255859E-2,-7.614135742E-3,-4.241943359E-3
6.047894070E0,1.228332520E-2,-7.614135742E-3,-4.013061523E-3
6.052929470E0,1.119995117E-2,-7.614135742E-3,-3.158569336E-3
6.057964871E0,9.277343750E-3,-7.614135742E-3,-4.638671875E-3
6.063000271E0,7.125854492E-3,-6.759643555E-3,-5.935668945E-3
6.068035671E0,6.713867188E-3,-5.676269531E-3,-6.149291992E-3
6.073071072E0,5.828857422E-3,-6.362915039E-3,-5.264282227E-3
6.078106472E0,5.645751953E-3,-8.331298828E-3,-5.966186523E-3
6.083141873E0,3.845214844E-3,-8.682250977E-3,-6.149291992E-3
6.088177273E0,3.509521484E-3,-8.682250977E-3,-7.049560547E-3
6.093212673E0,2.593994141E-3,-6.866455078E-3,-6.301879883E-3
6.098248074E0,1.510620117E-3,-7.476806641E-3,-5.218505859E-3
6.103283474E0,1.373291016E-3,-6.698608398E-3,-5.996704102E-3
6.108318875E0,1.373291016E-3,-7.492065430E-3,-6.149291992E-3
6.113354275E0,4.272460938E-4,-6.683349609E-3,-6.149291992E-3
6.118389675E0,1.251220703E-3,-5.599975586E-3,-6.149291992E-3
6.123425076E0,3.967285156E-4,-4.516601562E-3,-6.149291992E-3
6.128460476E0,-2.609252930E-3,-5.386352539E-3,-6.149291992E-3
6.133495877E0,-2.899169922E-3,-5.477905273E-3,-6.149291992E-3
6.138531277E0,-2.899169922E-3,-4.501342773E-3,-6.149291992E-3
6.143566677E0,-3.906250000E-3,-4.409790039E-3,-6.149291992E-3
6.148602078E0,-4.989624023E-3,-5.432128906E-3,-7.156372070E-3
6.153637478E0,-6.057739258E-3,-5.477905273E-3,-6.195068359E-3
6.158672879E0,-8.163452148E-3,-5.477905273E-3,-5.111694336E-3
6.163708279E0,-8.239746094E-3,-4.455566406E-3,-6.103515625E-3
6.168743679E0,-1.033020020E-2,-4.409790039E-3,-7.186889648E-3
6.173779080E0,-1.037597656E-2,-6.515502930E-3,-7.217407227E-3
6.178814480E0,-1.037597656E-2,-5.493164062E-3,-6.149291992E-3
6.183849880E0,-1.144409180E-2,-5.477905273E-3,-7.217407227E-3
6.188885281E0,-1.145935059E-2,-6.546020508E-3,-8.285522461E-3
6.193920681E0,-1.254272461E-2,-5.477905273E-3,-8.285522461E-3
6.198956082E0,-1.361083984E-2,-5.477905273E-3,-8.300781250E-3
6.203991482E0,-1.469421387E-2,-5.416870117E-3,-9.384155273E-3
6.209026882E0,-1.576232910E-2,-3.341674805E-3,-1.042175293E-2
6.214062283E0,-1.684570312E-2,-3.402709961E-3,-1.031494141E-2
6.219097683E0,-1.785278320E-2,-4.409790039E-3,-8.285522461E-3
6.224133084E0,-1.792907715E-2,-4.486083984E-3,-8.285522461E-3
6.229168484E0,-1.884460449E-2,-5.325317383E-3,-8.285522461E-3
6.234203884E0,-1.785278320E-2,-3.417968750E-3,-8.346557617E-3
6.239239285E0,-1.776123047E-2,-4.318237305E-3,-9.353637695E-3
6.244274685E0,-1.678466797E-2,-3.250122070E-3,-9.353637695E-3
6.249310086E0,-1.678466797E-2,-2.273559570E-3,-9.231567383E-3
6.254345486E0,-1.690673828E-2,-2.044677734E-3,-8.392333984E-3
6.259380886E0,-1.773071289E-2,-1.373291016E-4,-9.353637695E-3
6.264416287E0,-1.705932617E-2,-2.746582031E-4,-9.353637695E-3
6.269451687E0,-1.878356934E-2,-1.358032227E-3,-9.063720703E-3
6.274487087E0,-1.785278320E-2,-1.968383789E-3,-7.369995117E-3
6.279522488E0,-1.802062988E-2,-1.373291016E-4,-7.949829102E-3
6.284557888E0,-1.892089844E-2,-1.373291016E-4,-6.149291992E-3
6.289593289E0,-1.892089844E-2,-1.373291016E-4,-6.500244141E-3
6.294628689E0,-1.855468750E-2,4.577636719E-5,-8.651733398E-3
6.299664089E0,-1.718139648E-2,9.307861328E-4,-1.042175293E-2
6.304699490E0,-1.913452148E-2,7.171630859E-4,-1.020812988E-2
6.309734890E0,-2.043151855E-2,7.629394531E-5,-9.353637695E-3
6.314770291E0,-2.191162109E-2,7.019042969E-4,-9.353637695E-3
6.319805691E0,-2.035522461E-2,9.155273438E-5,-9.353637695E-3
6.324841091E0,-1.809692383E-2,6.866455078E-4,-9.109497070E-3
6.329876492E0,-1.892089844E-2,-3.967285156E-4,-8.529663086E-3
6.334911892E0,-1.866149902E-2,-1.205444336E-3,-9.613037109E-3
6.339947293E0,-1.812744141E-2,-1.205444336E-3,-1.042175293E-2
6.344982693E0,-1.919555664E-2,-9.460449219E-4,-1.042175293E-2
6.350018093E0,-1.998901367E-2,-1.373291016E-4,-1.013183594E-2
6.355053494E0,-1.998901367E-2,-1.373291016E-4,-9.643554688E-3
6.360088894E0,-1.937866211E-2,-1.373291016E-4,-1.010131836E-2
6.365124295E0,-1.785278320E-2,-1.373291016E-4,-9.033203125E-3
6.370159695E0,-1.785278320E-2,-1.373291016E-4,-8.605957031E-3
6.375195095E0,-1.818847656E-2,1.831054688E-4,-9.353637695E-3
6.380230496E0,-1.858520508E-2,9.307861328E-4,-9.353637695E-3
6.385265896E0,-1.718139648E-2,9.307861328E-4,-9.353637695E-3
6.390301296E0,-1.571655273E-2,9.307861328E-4,-8.987426758E-3
6.395336697E0,-1.608276367E-2,9.307861328E-4,-7.919311523E-3
6.400372097E0,-1.641845703E-2,5.493164062E-4,-6.835937500E-3
6.405407498E0,-1.535034180E-2,2.288818359E-4,-6.515502930E-3
6.410442898E0,-1.464843750E-2,9.307861328E-4,-7.217407227E-3
6.415478298E0,-1.387023926E-2,5.340576172E-4,-7.598876953E-3
6.420513699E0,-1.171875000E-2,2.593994141E-4,-8.285522461E-3
6.425549099E0,-1.078796387E-2,1.739501953E-3,-8.682250977E-3
6.430584500E0,-1.187133789E-2,3.067016602E-3,-8.926391602E-3
6.435619900E0,-1.210021973E-2,3.067016602E-3,-8.285522461E-3
6.440655300E0,-1.057434082E-2,3.067016602E-3,-8.285522461E-3
6.445690701E0,-9.765625000E-3,2.609252930E-3,-8.728027344E-3
6.450726101E0,-9.933471680E-3,1.541137695E-3,-9.796142578E-3
6.455761502E0,-8.850097656E-3,4.577636719E-4,-9.490966797E-3
6.460796902E0,-7.781982422E-3,3.204345703E-4,-8.743286133E-3
6.465832302E0,-7.171630859E-3,9.307861328E-4,-8.865356445E-3
6.470867703E0,-6.683349609E-3,1.419067383E-3,-8.285522461E-3
6.475903103E0,-5.615234375E-3,2.975463867E-3,-8.285522461E-3
6.480938504E0,-4.531860352E-3,3.112792969E-3,-8.285522461E-3
6.485973904E0,-3.463745117E-3,9.613037109E-4,-8.285522461E-3
6.491009304E0,-2.899169922E-3,-6.713867188E-4,-8.804321289E-3
6.496044705E0,-2.380371094E-3,-1.739501953E-3,-9.353637695E-3
6.501080105E0,-1.831054688E-3,-2.273559570E-3,-9.353637695E-3
6.506115505E0,-2.380371094E-3,-1.190185547E-3,-8.804321289E-3
6.511150906E0,-2.349853516E-3,4.119873047E-4,-8.285522461E-3
6.516186306E0,-1.281738281E-3,3.662109375E-4,-9.399414062E-3
6.521221707E0,9.460449219E-4,1.007080078E-3,-9.841918945E-3
6.526257107E0,1.861572266E-3,8.392333984E-4,-8.193969727E-3
6.531292507E0,2.548217773E-3,-7.324218750E-4,-6.622314453E-3
6.536327908E0,4.684448242E-3,-3.051757812E-5,-6.149291992E-3
6.541363308E0,5.645751953E-3,9.307861328E-4,-6.744384766E-3
6.546398709E0,5.020141602E-3,3.051757812E-4,-7.217407227E-3
6.551434109E0,5.187988281E-3,-7.629394531E-4,-6.591796875E-3
6.556469509E0,7.537841797E-3,6.866455078E-4,-6.149291992E-3
6.561504910E0,8.850097656E-3,1.998901367E-3,-6.149291992E-3
6.566540310E0,1.014709473E-2,1.998901367E-3,-5.493164062E-3
6.571575711E0,1.164245605E-2,2.655029297E-3,-5.081176758E-3
6.576611111E0,1.205444336E-2,2.395629883E-3,-5.737304688E-3
6.581646511E0,1.339721680E-2,1.312255859E-3,-6.149291992E-3
6.586681912E0,1.419067383E-2,9.307861328E-4,-6.820678711E-3
6.591717312E0,1.419067383E-2,2.288818359E-4,-7.217407227E-3
6.596752712E0,1.419067383E-2,-1.373291016E-4,-7.217407227E-3
6.601788113E0,1.489257812E-2,5.645751953E-4,-7.217407227E-3
6.606823513E0,1.452636719E-2,9.307861328E-4,-7.217407227E-3
6.611858914E0,1.490783691E-2,1.983642578E-4,-7.934570312E-3
6.616894314E0,1.599121094E-2,-8.850097656E-4,-7.537841797E-3
6.621929714E0,1.632690430E-2,-1.205444336E-3,-6.469726562E-3
6.626965115E0,1.707458496E-2,-1.968383789E-3,-6.896972656E-3
6.632000515E0,1.814270020E-2,-2.273559570E-3,-7.217407227E-3
6.637035916E0,1.846313477E-2,-2.273559570E-3,-6.439208984E-3
6.642071316E0,1.924133301E-2,-1.495361328E-3,-6.149291992E-3
6.647106716E0,1.953125000E-2,-1.205444336E-3,-6.927490234E-3
6.652142117E0,1.953125000E-2,-1.205444336E-3,-7.217407227E-3
6.657177517E0,1.953125000E-2,-1.205444336E-3,-6.408691406E-3
6.662212918E0,2.114868164E-2,-1.205444336E-3,-6.149291992E-3
6.667248318E0,2.166748047E-2,-2.853393555E-3,-6.149291992E-3
6.672283718E0,2.249145508E-2,-2.517700195E-3,-5.310058594E-3
6.677319119E0,2.357482910E-2,-2.273559570E-3,-5.920410156E-3
6.682354519E0,2.464294434E-2,-1.434326172E-3,-5.294799805E-3
6.687389920E0,2.487182617E-2,-3.509521484E-4,-5.081176758E-3
6.692425320E0,2.487182617E-2,-1.007080078E-3,-5.081176758E-3
6.697460720E0,2.487182617E-2,-3.356933594E-4,-5.081176758E-3
6.702496121E0,2.575683594E-2,-1.373291016E-4,-5.966186523E-3
6.707531521E0,2.593994141E-2,-1.037597656E-3,-6.149291992E-3
6.712566921E0,2.502441406E-2,-2.120971680E-3,-6.149291992E-3
6.717602322E0,2.395629883E-2,-2.273559570E-3,-6.149291992E-3
6.722637722E0,2.380371094E-2,-3.204345703E-3,-5.218505859E-3
6.727673123E0,2.473449707E-2,-4.287719727E-3,-4.135131836E-3
6.732708523E0,2.392578125E-2,-3.479003906E-3,-4.943847656E-3
6.737743923E0,2.284240723E-2,-2.395629883E-3,-6.027221680E-3
6.742779324E0,2.177429199E-2,-2.273559570E-3,-6.149291992E-3
6.747814724E0,2.262878418E-2,-4.211425781E-3,-5.172729492E-3
6.752850125E0,2.273559570E-2,-3.448486328E-3,-4.104614258E-3
6.757885525E0,2.273559570E-2,-4.333496094E-3,-4.989624023E-3
6.762920925E0,2.273559570E-2,-5.401611328E-3,-6.057739258E-3
6.767956326E0,2.273559570E-2,-4.486083984E-3,-7.141113281E-3
6.772991726E0,2.171325684E-2,-4.409790039E-3,-5.187988281E-3
6.778027127E0,2.166748047E-2,-4.409790039E-3,-4.058837891E-3
6.783062527E0,2.371215820E-2,-3.387451172E-3,-5.035400391E-3
6.788097927E0,2.276611328E-2,-5.416870117E-3,-6.103515625E-3
6.793133328E0,2.377319336E-2,-4.440307617E-3,-5.096435547E-3
6.798168728E0,2.380371094E-2,-4.409790039E-3,-6.134033203E-3
6.803204129E0,2.273559570E-2,-4.409790039E-3,-6.149291992E-3
6.808239529E0,2.272033691E-2,-3.356933594E-3,-5.081176758E-3
6.813274929E0,2.165222168E-2,-4.425048828E-3,-6.134033203E-3
6.818310330E0,2.056884766E-2,-5.477905273E-3,-5.096435547E-3
6.823345730E0,1.956176758E-2,-5.416870117E-3,-6.103515625E-3
6.828381130E0,2.055358887E-2,-3.433227539E-3,-5.111694336E-3
6.833416531E0,1.953125000E-2,-5.477905273E-3,-6.149291992E-3
6.838451931E0,1.945495605E-2,-5.416870117E-3,-6.072998047E-3
6.843487332E0,1.846313477E-2,-4.364013672E-3,-5.187988281E-3
6.848522732E0,1.837158203E-2,-3.524780273E-3,-7.293701172E-3
6.853558132E0,1.739501953E-2,-5.477905273E-3,-8.193969727E-3
6.858593533E0,1.728820801E-2,-5.477905273E-3,-7.217407227E-3
6.863628933E0,1.611328125E-2,-5.584716797E-3,-7.217407227E-3
6.868664334E0,1.429748535E-2,-6.439208984E-3,-7.324218750E-3
6.873699734E0,1.512145996E-2,-5.355834961E-3,-8.285522461E-3
6.878735134E0,1.405334473E-2,-4.409790039E-3,-8.148193359E-3
6.883770535E0,1.312255859E-2,-4.699707031E-3,-7.217407227E-3
6.888805935E0,1.296997070E-2,-6.408691406E-3,-7.064819336E-3
6.893841336E0,1.188659668E-2,-5.477905273E-3,-6.149291992E-3
6.898876736E0,1.098632812E-2,-5.477905273E-3,-6.317138672E-3
6.903912136E0,1.080322266E-2,-5.844116211E-3,-7.034301758E-3
6.908947537E0,9.719848633E-3,-7.614135742E-3,-6.332397461E-3
6.913982937E0,9.231567383E-3,-7.614135742E-3,-7.217407227E-3
6.919018337E0,1.057434082E-2,-7.415771484E-3,-7.003784180E-3
6.924053738E0,8.636474609E-3,-6.134033203E-3,-6.561279297E-3
6.929089138E0,7.553100586E-3,-4.409790039E-3,-8.056640625E-3
6.934124539E0,6.942749023E-3,-4.653930664E-3,-7.217407227E-3
6.939159939E0,8.010864258E-3,-5.477905273E-3,-7.446289062E-3
6.944195339E0,8.590698242E-3,-5.981445312E-3,-8.285522461E-3
6.949230740E0,7.263183594E-3,-7.614135742E-3,-9.048461914E-3
6.954266140E0,5.905151367E-3,-7.614135742E-3,-1.121520996E-2
6.959301541E0,6.423950195E-3,-7.339477539E-3,-1.013183594E-2
6.964336941E0,5.065917969E-3,-6.546020508E-3,-9.353637695E-3
6.969372341E0,3.509521484E-3,-6.546020508E-3,-9.048461914E-3
6.974407742E0,3.204345703E-3,-6.851196289E-3,-8.285522461E-3
6.979443142E0,2.746582031E-3,-7.308959961E-3,-8.285522461E-3
6.984478543E0,2.548217773E-3,-6.546020508E-3,-7.965087891E-3
6.989513943E0,3.051757812E-4,-6.881713867E-3,-7.217407227E-3
6.994549343E0,6.408691406E-4,-7.614135742E-3,-7.553100586E-3
6.999584744E0,1.022338867E-3,-7.614135742E-3,-8.285522461E-3
7.004620144E0,-7.629394531E-4,-7.263183594E-3,-8.285522461E-3
7.009655545E0,-2.548217773E-3,-6.546020508E-3,-7.919311523E-3
7.014690945E0,-1.831054688E-3,-6.927490234E-3,-7.217407227E-3
7.019726345E0,-2.227783203E-3,-6.851196289E-3,-7.598876953E-3
7.024761746E0,-3.692626953E-3,-5.874633789E-3,-8.666992188E-3
7.029797146E0,-5.844116211E-3,-6.546020508E-3,-9.353637695E-3
7.034832546E0,-6.774902344E-3,-6.958007812E-3,-9.750366211E-3
7.039867947E0,-6.530761719E-3,-6.790161133E-3,-9.994506836E-3
7.044903347E0,-7.598876953E-3,-6.332397461E-3,-9.353637695E-3
7.049938748E0,-9.124755859E-3,-7.614135742E-3,-9.353637695E-3
7.054974148E0,-1.083374023E-2,-7.171630859E-3,-9.353637695E-3
7.060009548E0,-1.100158691E-2,-7.003784180E-3,-9.353637695E-3
7.065044949E0,-1.037597656E-2,-8.087158203E-3,-8.880615234E-3
7.070080349E0,-1.037597656E-2,-8.209228516E-3,-8.758544922E-3
7.075115750E0,-1.037597656E-2,-8.102416992E-3,-9.826660156E-3
7.080151150E0,-1.136779785E-2,-8.682250977E-3,-1.091003418E-2
7.085186550E0,-1.301574707E-2,-8.682250977E-3,-1.148986816E-2
7.090221951E0,-1.358032227E-2,-8.178710938E-3,-1.097106934E-2
7.095257351E0,-1.307678223E-2,-7.110595703E-3,-9.902954102E-3
7.100292752E0,-1.251220703E-2,-6.546020508E-3,-8.819580078E-3
7.105328152E0,-1.251220703E-2,-6.011962891E-3,-8.285522461E-3
7.110363552E0,-1.251220703E-2,-5.477905273E-3,-8.819580078E-3
7.115398953E0,-1.307678223E-2,-6.042480469E-3,-9.353637695E-3
7.120434353E0,-1.414489746E-2,-6.546020508E-3,-8.789062500E-3
7.125469754E0,-1.522827148E-2,-7.125854492E-3,-8.850097656E-3
7.130505154E0,-1.571655273E-2,-7.614135742E-3,-8.773803711E-3
7.135540554E0,-1.454162598E-2,-6.439208984E-3,-8.285522461E-3
7.140575955E0,-1.358032227E-2,-6.088256836E-3,-9.475708008E-3
7.145611355E0,-1.358032227E-2,-7.156372070E-3,-1.101684570E-2
7.150646755E0,-1.419067383E-2,-7.614135742E-3,-1.087951660E-2
7.155682156E0,-1.527404785E-2,-7.614135742E-3,-1.042175293E-2
7.160717556E0,-1.635742188E-2,-7.614135742E-3,-1.042175293E-2
7.165752957E0,-1.678466797E-2,-6.973266602E-3,-1.106262207E-2
7.170788357E0,-1.614379883E-2,-6.546020508E-3,-1.083374023E-2
7.175823757E0,-1.638793945E-2,-6.546020508E-3,-1.042175293E-2
7.180859158E0,-1.745605469E-2,-7.888793945E-3,-1.107788086E-2
7.185894558E0,-1.785278320E-2,-8.682250977E-3,-1.080322266E-2
7.190929959E0,-1.716613770E-2,-8.682250977E-3,-1.110839844E-2
7.195965359E0,-1.678466797E-2,-7.995605469E-3,-1.078796387E-2
7.201000759E0,-1.608276367E-2,-8.331298828E-3,-1.042175293E-2
7.206036160E0,-1.571655273E-2,-9.399414062E-3,-1.042175293E-2
7.211071560E0,-1.499938965E-2,-9.033203125E-3,-9.689331055E-3
7.216106961E0,-1.539611816E-2,-9.429931641E-3,-8.605957031E-3
7.221142361E0,-1.571655273E-2,-9.750366211E-3,-9.017944336E-3
7.226177761E0,-1.422119141E-2,-8.255004883E-3,-1.010131836E-2
7.231213162E0,-1.206970215E-2,-6.103515625E-3,-1.042175293E-2
7.236248562E0,-1.144409180E-2,-5.477905273E-3,-1.042175293E-2
7.241283962E0,-1.068115234E-2,-5.477905273E-3,-9.643554688E-3
7.246319363E0,-1.037597656E-2,-6.271362305E-3,-9.353637695E-3
7.251354763E0,-9.582519531E-3,-5.752563477E-3,-1.014709473E-2
7.256390164E0,-9.307861328E-3,-5.477905273E-3,-8.804321289E-3
7.261425564E0,-9.307861328E-3,-4.669189453E-3,-8.285522461E-3
7.266460964E0,-8.499145508E-3,-4.409790039E-3,-9.094238281E-3
7.271496365E0,-7.415771484E-3,-6.072998047E-3,-8.514404297E-3
7.276531765E0,-7.171630859E-3,-7.385253906E-3,-8.285522461E-3
7.281567166E0,-8.026123047E-3,-6.774902344E-3,-7.431030273E-3
7.286602566E0,-8.239746094E-3,-6.546020508E-3,-6.347656250E-3
7.291637966E0,-8.239746094E-3,-4.821777344E-3,-7.873535156E-3
7.296673367E0,-8.239746094E-3,-4.409790039E-3,-8.285522461E-3
7.301708767E0,-8.239746094E-3,-5.310058594E-3,-9.170532227E-3
7.306744168E0,-8.239746094E-3,-6.378173828E-3,-7.553100586E-3
7.311779568E0,-7.339477539E-3,-5.645751953E-3,-8.117675781E-3
7.316814968E0,-6.256103516E-3,-5.477905273E-3,-9.201049805E-3
7.321850369E0,-5.187988281E-3,-3.631591797E-3,-9.353637695E-3
7.326885769E0,-5.035400391E-3,-4.272460938E-3,-9.353637695E-3
7.331921170E0,-5.035400391E-3,-4.409790039E-3,-9.353637695E-3
7.336956570E0,-3.158569336E-3,-4.409790039E-3,-1.028442383E-2
7.341991970E0,-2.899169922E-3,-5.371093750E-3,-9.460449219E-3
7.347027371E0,-2.899169922E-3,-5.477905273E-3,-8.377075195E-3
7.352062771E0,-9.613037109E-4,-5.477905273E-3,-8.285522461E-3
7.357098171E0,-7.629394531E-4,-5.477905273E-3,-7.293701172E-3
7.362133572E0,2.136230469E-4,-4.501342773E-3,-8.193969727E-3
7.367168972E0,3.280639648E-3,-4.409790039E-3,-7.278442383E-3
7.372204373E0,3.509521484E-3,-3.402709961E-3,-7.217407227E-3
7.377239773E0,2.487182617E-3,-3.341674805E-3,-7.217407227E-3
7.382275173E0,2.441406250E-3,-3.341674805E-3,-8.239746094E-3
7.387310574E0,4.501342773E-3,-4.379272461E-3,-7.247924805E-3
7.392345974E0,6.652832031E-3,-4.409790039E-3,-6.164550781E-3
7.397381375E0,7.766723633E-3,-2.304077148E-3,-6.149291992E-3
7.402416775E0,5.645751953E-3,-3.341674805E-3,-7.202148438E-3
7.407452175E0,6.713867188E-3,-3.341674805E-3,-7.217407227E-3
7.412487576E0,6.698608398E-3,-3.341674805E-3,-7.202148438E-3
7.417522976E0,5.645751953E-3,-3.341674805E-3,-6.179809570E-3
7.422558377E0,5.706787109E-3,-3.341674805E-3,-8.285522461E-3
7.427593777E0,7.812500000E-3,-3.311157227E-3,-8.193969727E-3
7.432629177E0,8.850097656E-3,-2.426147461E-3,-6.088256836E-3
7.437664578E0,8.895874023E-3,-5.477905273E-3,-5.126953125E-3
7.442699978E0,9.918212891E-3,-5.416870117E-3,-6.210327148E-3
7.447735379E0,9.918212891E-3,-4.409790039E-3,-7.141113281E-3
7.452770779E0,9.979248047E-3,-4.486083984E-3,-6.149291992E-3
7.457806179E0,1.098632812E-2,-5.386352539E-3,-6.240844727E-3
7.462841580E0,1.098632812E-2,-4.318237305E-3,-7.217407227E-3
7.467876980E0,1.086425781E-2,-3.341674805E-3,-7.217407227E-3
7.472912380E0,1.002502441E-2,-3.341674805E-3,-7.217407227E-3
7.477947781E0,1.110839844E-2,-3.219604492E-3,-6.942749023E-3
7.482983181E0,1.219177246E-2,-2.426147461E-3,-5.081176758E-3
7.488018582E0,1.312255859E-2,-3.341674805E-3,-5.081176758E-3
7.493053982E0,1.327514648E-2,-3.189086914E-3,-5.081176758E-3
7.498089382E0,1.402282715E-2,-1.785278320E-3,-5.233764648E-3
7.503124783E0,1.347351074E-2,2.136230469E-4,-6.149291992E-3
7.508160183E0,1.560974121E-2,-3.341674805E-3,-5.966186523E-3
7.513195584E0,1.739501953E-2,-3.158569336E-3,-5.264282227E-3
7.518230984E0,1.739501953E-2,-2.273559570E-3,-5.935668945E-3
7.523266384E0,1.739501953E-2,-2.487182617E-3,-5.081176758E-3
7.528301785E0,1.760864258E-2,-3.784179688E-3,-5.081176758E-3
7.533337185E0,1.846313477E-2,-4.806518555E-3,-5.081176758E-3
7.538372586E0,1.846313477E-2,-2.044677734E-3,-5.081176758E-3
7.543407986E0,1.820373535E-2,-9.613037109E-4,-5.081176758E-3
7.548443386E0,1.763916016E-2,-3.967285156E-4,-5.081176758E-3
7.553478787E0,1.872253418E-2,-1.739501953E-3,-4.547119141E-3
7.558514187E0,2.006530762E-2,-3.082275391E-3,-3.479003906E-3
7.563549587E0,2.137756348E-2,-2.273559570E-3,-5.355834961E-3
7.568584988E0,2.001953125E-2,-2.563476562E-3,-5.569458008E-3
7.573620388E0,1.875305176E-2,-3.341674805E-3,-4.302978516E-3
7.578655789E0,1.953125000E-2,-3.036499023E-3,-4.760742188E-3
7.583691189E0,1.921081543E-2,-2.273559570E-3,-4.013061523E-3
7.588726589E0,1.878356934E-2,-2.273559570E-3,-4.333496094E-3
7.593761990E0,1.985168457E-2,-2.273559570E-3,-5.401611328E-3
7.598797390E0,2.093505859E-2,-2.273559570E-3,-6.149291992E-3
7.603832791E0,2.166748047E-2,-2.273559570E-3,-6.851196289E-3
7.608868191E0,2.130126953E-2,-1.922607422E-3,-8.285522461E-3
7.613903591E0,2.021789551E-2,-1.586914062E-3,-7.904052734E-3
7.618938992E0,1.989746094E-2,-2.273559570E-3,-7.217407227E-3
7.623974392E0,2.059936523E-2,-2.273559570E-3,-6.820678711E-3
7.629009793E0,2.020263672E-2,-1.892089844E-3,-6.149291992E-3
7.634045193E0,1.911926270E-2,-1.205444336E-3,-6.546020508E-3
7.639080593E0,1.846313477E-2,-2.029418945E-3,-6.393432617E-3
7.644115994E0,1.846313477E-2,-2.929687500E-3,-5.493164062E-3
7.649151394E0,1.846313477E-2,-2.273559570E-3,-6.149291992E-3
7.654186795E0,1.889038086E-2,-1.846313477E-3,-6.149291992E-3
7.659222195E0,1.907348633E-2,-1.663208008E-3,-7.034301758E-3
7.664257595E0,1.800537109E-2,-2.273559570E-3,-7.369995117E-3
7.669292996E0,1.739501953E-2,-2.273559570E-3,-5.218505859E-3
7.674328396E0,1.739501953E-2,-1.815795898E-3,-3.540039062E-3
7.679363796E0,1.739501953E-2,-1.205444336E-3,-3.906250000E-3
7.684399197E0,1.788330078E-2,-1.205444336E-3,-5.569458008E-3
7.689434597E0,1.795959473E-2,-7.171630859E-4,-4.638671875E-3
7.694469998E0,1.637268066E-2,-1.373291016E-4,-3.952026367E-3
7.699505398E0,1.525878906E-2,-6.561279297E-4,-5.584716797E-3
7.704540798E0,1.472473145E-2,-1.205444336E-3,-6.149291992E-3
7.709576199E0,1.419067383E-2,-1.739501953E-3,-6.683349609E-3
7.714611599E0,1.472473145E-2,-2.273559570E-3,-7.217407227E-3
7.719647000E0,1.414489746E-2,-1.724243164E-3,-7.217407227E-3
7.724682400E0,1.255798340E-2,-1.770019531E-3,-6.652832031E-3
7.729717800E0,1.261901855E-2,-2.273559570E-3,-5.569458008E-3
7.734753201E0,1.312255859E-2,-2.853393555E-3,-5.645751953E-3
7.739788601E0,1.312255859E-2,-2.166748047E-3,-7.324218750E-3
7.744824002E0,1.132202148E-2,-1.205444336E-3,-7.675170898E-3
7.749859402E0,9.918212891E-3,-6.103515625E-4,-6.607055664E-3
7.754894802E0,9.918212891E-3,-7.476806641E-4,-7.354736328E-3
7.759930203E0,8.682250977E-3,-1.831054688E-3,-8.285522461E-3
7.764965603E0,7.781982422E-3,-2.914428711E-3,-7.644653320E-3
7.770001004E0,7.125854492E-3,-2.700805664E-3,-7.858276367E-3
7.775036404E0,6.713867188E-3,-1.617431641E-3,-8.285522461E-3
7.780071804E0,6.713867188E-3,-1.205444336E-3,-7.614135742E-3
7.785107205E0,5.355834961E-3,-2.563476562E-3,-7.217407227E-3
7.790142605E0,5.249023438E-3,-2.670288086E-3,-7.888793945E-3
7.795178005E0,4.257202148E-3,-3.662109375E-3,-8.285522461E-3
7.800213406E0,2.807617188E-3,-3.723144531E-3,-8.285522461E-3
7.805248806E0,3.143310547E-3,-3.341674805E-3,-8.987426758E-3
7.810284207E0,2.792358398E-3,-3.341674805E-3,-7.919311523E-3
7.815319607E0,3.158569336E-3,-2.624511719E-3,-7.217407227E-3
7.820355007E0,2.029418945E-3,-1.541137695E-3,-6.469726562E-3
7.825390408E0,2.105712891E-3,-4.730224609E-4,-6.149291992E-3
7.830425808E0,1.678466797E-3,-1.373291016E-4,-7.644653320E-3
7.835461209E0,6.103515625E-4,-9.002685547E-4,-6.759643555E-3
7.840496609E0,-1.235961914E-3,-1.983642578E-3,-6.149291992E-3
7.845532009E0,-1.068115234E-3,-2.273559570E-3,-5.371093750E-3
7.850567410E0,-7.629394531E-4,-3.067016602E-3,-6.637573242E-3
7.855602810E0,-7.629394531E-4,-3.341674805E-3,-7.217407227E-3
7.860638211E0,-1.571655273E-3,-3.341674805E-3,-8.819580078E-3
7.865673611E0,-3.448486328E-3,-4.150390625E-3,-8.544921875E-3
7.870709011E0,-4.791259766E-3,-4.409790039E-3,-8.285522461E-3
7.875744412E0,-5.874633789E-3,-4.409790039E-3,-8.285522461E-3
7.880779812E0,-7.781982422E-3,-3.585815430E-3,-8.285522461E-3
7.885815212E0,-8.239746094E-3,-4.196166992E-3,-8.285522461E-3
7.890850613E0,-8.239746094E-3,-3.570556641E-3,-7.431030273E-3
7.895886013E0,-7.385253906E-3,-3.341674805E-3,-7.217407227E-3
7.900921414E0,-7.171630859E-3,-4.226684570E-3,-8.087158203E-3
7.905956814E0,-7.171630859E-3,-4.409790039E-3,-9.155273438E-3
7.910992214E0,-8.071899414E-3,-3.524780273E-3,-8.453369141E-3
7.916027615E0,-8.239746094E-3,-1.556396484E-3,-8.285522461E-3
7.921063015E0,-7.339477539E-3,-3.051757812E-4,-8.285522461E-3
7.926098416E0,-7.171630859E-3,-1.068115234E-3,-8.285522461E-3
7.931133816E0,-8.102416992E-3,-3.982543945E-3,-7.354736328E-3
7.936169216E0,-8.239746094E-3,-4.409790039E-3,-8.148193359E-3
7.941204617E0,-9.185791016E-3,-3.479003906E-3,-9.216308594E-3
7.946240017E0,-9.307861328E-3,-2.395629883E-3,-9.353637695E-3
7.951275418E0,-1.028442383E-2,-3.250122070E-3,-8.377075195E-3
7.956310818E0,-9.414672852E-3,-2.380371094E-3,-8.285522461E-3
7.961346218E0,-9.307861328E-3,-2.273559570E-3,-6.317138672E-3
7.966381619E0,-1.029968262E-2,-1.296997070E-3,-8.117675781E-3
7.971417019E0,-1.138305664E-2,-2.136230469E-4,-9.277343750E-3
7.976452420E0,-1.144409180E-2,-1.159667969E-3,-8.331298828E-3
7.981487820E0,-1.144409180E-2,-1.205444336E-3,-8.285522461E-3
7.986523220E0,-1.144409180E-2,-3.265380859E-3,-7.247924805E-3
7.991558621E0,-1.248168945E-2,-4.379272461E-3,-8.239746094E-3
7.996594021E0,-1.251220703E-2,-4.409790039E-3,-1.036071777E-2
8.001629421E0,-1.145935059E-2,-3.356933594E-3,-9.353637695E-3
8.006664822E0,-1.463317871E-2,-3.341674805E-3,-1.040649414E-2
8.011700222E0,-1.251220703E-2,-3.356933594E-3,-9.353637695E-3
8.016735623E0,-1.145935059E-2,-4.409790039E-3,-9.353637695E-3
8.021771023E0,-1.251220703E-2,-3.341674805E-3,-9.368896484E-3
8.026806423E0,-1.251220703E-2,-3.387451172E-3,-1.045227051E-2
8.031841824E0,-1.248168945E-2,-4.409790039E-3,-1.144409180E-2
8.036877224E0,-1.144409180E-2,-4.364013672E-3,-1.036071777E-2
8.041912625E0,-1.150512695E-2,-3.341674805E-3,-9.292602539E-3
8.046948025E0,-1.239013672E-2,-3.417968750E-3,-8.407592773E-3
8.051983425E0,-1.054382324E-2,-4.409790039E-3,-1.049804688E-2
8.057018826E0,-1.235961914E-2,-4.409790039E-3,-1.139831543E-2
8.062054226E0,-1.054382324E-2,-4.333496094E-3,-1.042175293E-2
8.067089627E0,-1.242065430E-2,-3.448486328E-3,-1.042175293E-2
8.072125027E0,-1.123046875E-2,-4.409790039E-3,-1.042175293E-2
8.077160427E0,-9.201049805E-3,-4.409790039E-3,-1.029968262E-2
8.082195828E0,-8.239746094E-3,-4.409790039E-3,-9.353637695E-3
8.087231228E0,-8.102416992E-3,-4.272460938E-3,-9.353637695E-3
8.092266629E0,-7.476806641E-3,-3.341674805E-3,-9.201049805E-3
8.097302029E0,-9.475708008E-3,-3.509521484E-3,-8.285522461E-3
8.102337429E0,-1.004028320E-2,-4.592895508E-3,-8.453369141E-3
8.107372830E0,-8.071899414E-3,-5.661010742E-3,-9.521484375E-3
8.112408230E0,-7.171630859E-3,-6.546020508E-3,-1.042175293E-2
8.117443630E0,-7.568359375E-3,-6.546020508E-3,-1.022338867E-2
8.122479031E0,-9.307861328E-3,-6.149291992E-3,-9.140014648E-3
8.127514431E0,-9.307861328E-3,-4.409790039E-3,-8.056640625E-3
8.132549832E0,-9.536743164E-3,-4.409790039E-3,-7.659912109E-3
8.137585232E0,-9.918212891E-3,-4.653930664E-3,-9.353637695E-3
8.142620632E0,-8.239746094E-3,-5.249023438E-3,-9.353637695E-3
8.147656033E0,-7.751464844E-3,-4.669189453E-3,-9.353637695E-3
8.152691433E0,-6.103515625E-3,-5.233764648E-3,-9.353637695E-3
8.157726834E0,-5.569458008E-3,-4.943847656E-3,-9.353637695E-3
8.162762234E0,-3.692626953E-3,-6.271362305E-3,-9.063720703E-3
8.167797634E0,-3.189086914E-3,-5.477905273E-3,-8.285522461E-3
8.172833035E0,-4.272460938E-3,-5.477905273E-3,-8.285522461E-3
8.177868435E0,-4.745483398E-3,-5.477905273E-3,-8.285522461E-3
8.182903836E0,-3.662109375E-3,-5.477905273E-3,-7.965087891E-3
8.187939236E0,-2.578735352E-3,-5.813598633E-3,-7.537841797E-3
8.192974636E0,-1.831054688E-3,-6.225585938E-3,-7.949829102E-3
8.198010037E0,-1.495361328E-3,-5.477905273E-3,-7.217407227E-3
8.203045437E0,-4.272460938E-4,-5.477905273E-3,-7.553100586E-3
8.208080837E0,6.561279297E-4,-5.477905273E-3,-7.568359375E-3
8.213116238E0,1.373291016E-3,-5.477905273E-3,-6.500244141E-3
8.218151638E0,1.373291016E-3,-5.477905273E-3,-7.217407227E-3
8.223187039E0,1.373291016E-3,-5.477905273E-3,-6.820678711E-3
8.228222439E0,1.754760742E-3,-5.477905273E-3,-6.149291992E-3
8.233257839E0,2.441406250E-3,-5.477905273E-3,-6.149291992E-3
8.238293240E0,3.265380859E-3,-5.905151367E-3,-6.149291992E-3
8.243328640E0,4.150390625E-3,-6.134033203E-3,-6.561279297E-3
8.248364041E0,3.936767578E-3,-5.477905273E-3,-7.217407227E-3
8.253399441E0,5.020141602E-3,-5.935668945E-3,-7.217407227E-3
8.258434841E0,5.645751953E-3,-6.546020508E-3,-7.659912109E-3
8.263470242E0,5.172729492E-3,-7.019042969E-3,-8.285522461E-3
8.268505642E0,5.035400391E-3,-7.156372070E-3,-8.285522461E-3
8.273541043E0,6.118774414E-3,-6.072998047E-3,-7.797241211E-3
8.278576443E0,7.202148438E-3,-4.989624023E-3,-7.705688477E-3
8.283611843E0,8.270263672E-3,-3.921508789E-3,-8.285522461E-3
8.288647244E0,8.850097656E-3,-3.860473633E-3,-8.789062500E-3
8.293682644E0,9.353637695E-3,-4.928588867E-3,-9.353637695E-3
8.298718045E0,9.918212891E-3,-5.477905273E-3,-8.819580078E-3
8.303753445E0,9.384155273E-3,-5.477905273E-3,-9.353637695E-3
8.308788845E0,1.046752930E-2,-5.477905273E-3,-9.338378906E-3
8.313824246E0,1.150512695E-2,-5.477905273E-3,-8.285522461E-3
8.318859646E0,1.153564453E-2,-4.928588867E-3,-7.171630859E-3
8.323895046E0,1.260375977E-2,-4.409790039E-3,-6.698608398E-3
8.328930447E0,1.312255859E-2,-4.989624023E-3,-6.637573242E-3
8.333965847E0,1.370239258E-2,-4.898071289E-3,-6.149291992E-3
8.339001248E0,1.419067383E-2,-5.004882812E-3,-6.729125977E-3
8.344036648E0,1.419067383E-2,-6.088256836E-3,-7.812500000E-3
8.349072048E0,1.478576660E-2,-5.950927734E-3,-7.675170898E-3
8.354107449E0,1.525878906E-2,-5.477905273E-3,-6.591796875E-3
8.359142849E0,1.525878906E-2,-6.118774414E-3,-6.774902344E-3
8.364178250E0,1.525878906E-2,-5.920410156E-3,-6.576538086E-3
8.369213650E0,1.589965820E-2,-4.837036133E-3,-5.493164062E-3
8.374249050E0,1.632690430E-2,-5.081176758E-3,-5.081176758E-3
8.379284451E0,1.632690430E-2,-5.477905273E-3,-5.737304688E-3
8.384319851E0,1.699829102E-2,-4.806518555E-3,-6.820678711E-3
8.389355252E0,1.739501953E-2,-5.096435547E-3,-7.217407227E-3
8.394390652E0,1.739501953E-2,-5.477905273E-3,-5.813598633E-3
8.399426052E0,1.739501953E-2,-5.477905273E-3,-5.081176758E-3
8.404461453E0,1.809692383E-2,-5.477905273E-3,-6.500244141E-3
8.409496853E0,1.773071289E-2,-4.760742188E-3,-7.217407227E-3
8.414532254E0,1.739501953E-2,-5.142211914E-3,-5.752563477E-3
8.419567654E0,1.664733887E-2,-6.958007812E-3,-6.546020508E-3
8.424603054E0,1.632690430E-2,-6.134033203E-3,-7.949829102E-3
8.429638455E0,1.556396484E-2,-5.477905273E-3,-8.285522461E-3
8.434673855E0,1.600646973E-2,-4.730224609E-3,-7.522583008E-3
8.439709255E0,1.632690430E-2,-5.187988281E-3,-7.217407227E-3
8.444744656E0,1.632690430E-2,-5.477905273E-3,-7.217407227E-3
8.449780056E0,1.710510254E-2,-6.271362305E-3,-5.630493164E-3
8.454815457E0,1.818847656E-2,-5.752563477E-3,-5.081176758E-3
8.459850857E0,1.846313477E-2,-5.477905273E-3,-5.081176758E-3
8.464886257E0,1.846313477E-2,-6.301879883E-3,-6.713867188E-3
8.469921658E0,1.762390137E-2,-5.722045898E-3,-5.554199219E-3
8.474957058E0,1.821899414E-2,-5.477905273E-3,-5.905151367E-3
8.479992459E0,1.760864258E-2,-3.799438477E-3,-7.827758789E-3
8.485027859E0,1.739501953E-2,-4.196166992E-3,-5.722045898E-3
8.490063259E0,1.739501953E-2,-5.279541016E-3,-4.211425781E-3
8.495098660E0,1.564025879E-2,-4.608154297E-3,-4.882812500E-3
8.500134060E0,1.612854004E-2,-4.409790039E-3,-5.950927734E-3
8.505169461E0,1.721191406E-2,-4.409790039E-3,-5.249023438E-3
8.510204861E0,1.649475098E-2,-5.310058594E-3,-6.866455078E-3
8.515240261E0,1.632690430E-2,-5.477905273E-3,-7.217407227E-3
8.520275662E0,1.539611816E-2,-5.477905273E-3,-8.132934570E-3
8.525311062E0,1.525878906E-2,-5.477905273E-3,-7.354736328E-3
8.530346462E0,1.525878906E-2,-5.477905273E-3,-8.148193359E-3
8.535381863E0,1.431274414E-2,-5.477905273E-3,-5.447387695E-3
8.540417263E0,1.419067383E-2,-5.477905273E-3,-4.119873047E-3
8.545452664E0,1.321411133E-2,-4.516601562E-3,-6.896972656E-3
8.550488064E0,1.312255859E-2,-4.409790039E-3,-7.217407227E-3
8.555523464E0,1.213073730E-2,-5.401611328E-3,-7.217407227E-3
8.560558865E0,1.106262207E-2,-2.517700195E-3,-7.217407227E-3
8.565594265E0,8.987426758E-3,-2.273559570E-3,-6.210327148E-3
8.570629666E0,1.187133789E-2,-2.273559570E-3,-7.156372070E-3
8.575665066E0,7.980346680E-3,-2.441406250E-4,-7.217407227E-3
8.580700466E0,7.781982422E-3,-2.197265625E-3,-8.239746094E-3
8.585735867E0,9.841918945E-3,-4.348754883E-3,-7.247924805E-3
8.590771267E0,9.918212891E-3,-3.372192383E-3,-8.255004883E-3
8.595806668E0,9.918212891E-3,-3.341674805E-3,-8.285522461E-3
8.600842068E0,9.918212891E-3,-4.409790039E-3,-6.149291992E-3
8.605877468E0,8.850097656E-3,-4.409790039E-3,-6.149291992E-3
8.610912869E0,7.781982422E-3,-5.477905273E-3,-7.217407227E-3
8.615948269E0,7.781982422E-3,-5.477905273E-3,-7.186889648E-3
8.620983670E0,7.751464844E-3,-5.462646484E-3,-6.149291992E-3
8.626019070E0,6.668090820E-3,-4.455566406E-3,-6.225585938E-3
8.631054470E0,5.676269531E-3,-5.447387695E-3,-8.285522461E-3
8.636089871E0,6.713867188E-3,-4.364013672E-3,-8.178710938E-3
8.641125271E0,6.576538086E-3,-3.280639648E-3,-6.149291992E-3
8.646160671E0,4.638671875E-3,-2.426147461E-3,-6.286621094E-3
8.651196072E0,5.477905273E-3,-4.333496094E-3,-8.193969727E-3
8.656231472E0,3.585815430E-3,-3.433227539E-3,-7.217407227E-3
8.661266873E0,4.577636719E-3,-4.409790039E-3,-7.400512695E-3
8.666302273E0,4.455566406E-3,-4.409790039E-3,-9.231567383E-3
8.671337673E0,3.402709961E-3,-4.318237305E-3,-8.178710938E-3
8.676373074E0,2.304077148E-3,-3.479003906E-3,-7.461547852E-3
8.681408474E0,1.373291016E-3,-4.150390625E-3,-9.475708008E-3
8.686443875E0,1.373291016E-3,-2.426147461E-3,-1.026916504E-2
8.691479275E0,1.373291016E-3,-3.494262695E-3,-9.201049805E-3
8.696514675E0,1.205444336E-3,-4.409790039E-3,-8.117675781E-3
8.701550076E0,1.220703125E-4,-4.241943359E-3,-7.217407227E-3
8.706585476E0,-1.129150391E-3,-3.341674805E-3,-7.217407227E-3
8.711620877E0,-2.716064453E-3,-3.341674805E-3,-7.217407227E-3
8.716656277E0,-2.044677734E-3,-3.341674805E-3,-7.415771484E-3
8.721691677E0,-3.128051758E-3,-3.341674805E-3,-8.285522461E-3
8.726727078E0,-4.196166992E-3,-3.570556641E-3,-8.285522461E-3
8.731762478E0,-5.279541016E-3,-4.409790039E-3,-8.285522461E-3
8.736797879E0,-5.630493164E-3,-4.653930664E-3,-8.041381836E-3
8.741833279E0,-3.967285156E-3,-5.233764648E-3,-7.217407227E-3
8.746868679E0,-3.707885742E-3,-4.150390625E-3,-7.217407227E-3
8.751904080E0,-3.173828125E-3,-3.341674805E-3,-7.476806641E-3
8.756939480E0,-4.257202148E-3,-3.631591797E-3,-7.995605469E-3
8.761974880E0,-5.615234375E-3,-4.409790039E-3,-7.492065430E-3
8.767010281E0,-6.881713867E-3,-4.119873047E-3,-8.575439453E-3
8.772045681E0,-6.408691406E-3,-3.341674805E-3,-9.353637695E-3
8.777081082E0,-6.866455078E-3,-3.036499023E-3,-9.353637695E-3
8.782116482E0,-5.798339844E-3,-2.273559570E-3,-9.353637695E-3
8.787151882E0,-5.691528320E-3,-2.273559570E-3,-9.353637695E-3
8.792187283E0,-7.171630859E-3,-2.273559570E-3,-9.017944336E-3
8.797222683E0,-6.835937500E-3,-2.273559570E-3,-8.621215820E-3
8.802258084E0,-6.469726562E-3,-2.273559570E-3,-9.353637695E-3
8.807293484E0,-7.537841797E-3,-2.273559570E-3,-8.987426758E-3
8.812328884E0,-8.239746094E-3,-2.273559570E-3,-7.904052734E-3
8.817364285E0,-8.621215820E-3,-2.273559570E-3,-7.583618164E-3
8.822399685E0,-1.010131836E-2,-2.273559570E-3,-8.285522461E-3
8.827435086E0,-1.065063477E-2,-2.273559570E-3,-8.285522461E-3
8.832470486E0,-9.307861328E-3,-2.273559570E-3,-8.285522461E-3
8.837505886E0,-8.895874023E-3,-2.273559570E-3,-8.285522461E-3
8.842541287E0,-9.094238281E-3,-2.700805664E-3,-8.285522461E-3
8.847576687E0,-1.081848145E-2,-2.914428711E-3,-9.140014648E-3
8.852612087E0,-1.100158691E-2,-2.731323242E-3,-9.963989258E-3
8.857647488E0,-1.037597656E-2,-3.341674805E-3,-8.895874023E-3
8.862682888E0,-1.037597656E-2,-2.883911133E-3,-7.812500000E-3
8.867718289E0,-1.037597656E-2,-1.815795898E-3,-7.675170898E-3
8.872753689E0,-1.037597656E-2,-7.324218750E-4,-8.285522461E-3
8.877789089E0,-1.037597656E-2,-1.113891602E-3,-8.758544922E-3
8.882824490E0,-1.037597656E-2,-2.273559570E-3,-9.841918945E-3
8.887859890E0,-8.880615234E-3,-2.777099609E-3,-9.918212891E-3
8.892895291E0,-8.193969727E-3,-3.341674805E-3,-8.834838867E-3
8.897930691E0,-9.841918945E-3,-2.822875977E-3,-8.804321289E-3
8.902966091E0,-9.857177734E-3,-2.273559570E-3,-8.819580078E-3
8.908001492E0,-8.239746094E-3,-2.822875977E-3,-8.819580078E-3
8.913036892E0,-7.720947266E-3,-2.807617188E-3,-9.353637695E-3
8.918072293E0,-8.239746094E-3,-2.273559570E-3,-8.789062500E-3
8.923107693E0,-8.819580078E-3,-1.708984375E-3,-8.850097656E-3
8.928143093E0,-9.307861328E-3,-2.365112305E-3,-9.918212891E-3
8.933178494E0,-8.728027344E-3,-2.761840820E-3,-9.826660156E-3
8.938213894E0,-7.659912109E-3,-1.693725586E-3,-9.353637695E-3
8.943249295E0,-7.781982422E-3,-1.815795898E-3,-9.353637695E-3
8.948284695E0,-8.239746094E-3,-2.899169922E-3,-8.117675781E-3
8.953320095E0,-7.003784180E-3,-2.105712891E-3,-7.217407227E-3
8.958355496E0,-6.103515625E-3,-1.846313477E-3,-7.843017578E-3
8.963390896E0,-6.103515625E-3,-2.273559570E-3,-8.911132812E-3
8.968426296E0,-6.103515625E-3,-2.273559570E-3,-9.353637695E-3
8.973461697E0,-5.462646484E-3,-2.273559570E-3,-1.063537598E-2
8.978497097E0,-5.035400391E-3,-2.273559570E-3,-1.016235352E-2
8.983532498E0,-5.035400391E-3,-2.273559570E-3,-7.995605469E-3
8.988567898E0,-5.035400391E-3,-1.602172852E-3,-7.888793945E-3
8.993603298E0,-5.035400391E-3,-1.205444336E-3,-8.972167969E-3
8.998638699E0,-3.646850586E-3,-1.907348633E-3,-9.353637695E-3
9.003674099E0,-3.616333008E-3,-2.273559570E-3,-8.636474609E-3
9.008709500E0,-3.967285156E-3,-2.273559570E-3,-8.285522461E-3
9.013744900E0,-3.967285156E-3,-2.273559570E-3,-8.285522461E-3
9.018780300E0,-3.234863281E-3,-2.273559570E-3,-9.017944336E-3
9.023815701E0,-2.166748047E-3,-2.273559570E-3,-9.353637695E-3
9.028851101E0,-1.831054688E-3,-2.273559570E-3,-8.590698242E-3
9.033886502E0,-1.083374023E-3,-3.036499023E-3,-8.285522461E-3
9.038921902E0,-1.541137695E-3,-1.800537109E-3,-8.285522461E-3
9.043957302E0,-1.052856445E-3,-2.777099609E-3,-7.492065430E-3
9.048992703E0,8.087158203E-4,-2.563476562E-3,-7.217407227E-3
9.054028103E0,2.166748047E-3,-3.082275391E-3,-8.010864258E-3
9.059063504E0,1.632690430E-3,-4.150390625E-3,-9.078979492E-3
9.064098904E0,1.373291016E-3,-3.601074219E-3,-8.529663086E-3
9.069134304E0,1.373291016E-3,-2.517700195E-3,-7.446289062E-3
9.074169705E0,5.340576172E-4,-2.273559570E-3,-8.041381836E-3
9.079205105E0,1.983642578E-3,-1.434326172E-3,-7.431030273E-3
9.084240505E0,4.135131836E-3,-1.205444336E-3,-6.362915039E-3
9.089275906E0,4.577636719E-3,-2.075195312E-3,-5.279541016E-3
9.094311306E0,4.577636719E-3,-2.273559570E-3,-5.950927734E-3
9.099346707E0,3.692626953E-3,-2.273559570E-3,-7.904052734E-3
9.104382107E0,5.279541016E-3,-4.058837891E-3,-7.385253906E-3
9.109417507E0,7.431030273E-3,-4.409790039E-3,-6.317138672E-3
9.114452908E0,6.866455078E-3,-2.609252930E-3,-7.049560547E-3
9.119488308E0,6.713867188E-3,-1.373291016E-3,-8.117675781E-3
9.124523709E0,6.713867188E-3,-1.205444336E-3,-7.354736328E-3
9.129559109E0,7.644653320E-3,-1.205444336E-3,-8.148193359E-3
9.134594509E0,8.712768555E-3,-2.151489258E-3,-7.339477539E-3
9.139629910E0,7.904052734E-3,-3.219604492E-3,-8.148193359E-3
9.144665310E0,7.781982422E-3,-3.341674805E-3,-6.362915039E-3
9.149700711E0,8.743286133E-3,-2.380371094E-3,-6.149291992E-3
9.154736111E0,8.850097656E-3,-3.265380859E-3,-6.149291992E-3
9.159771511E0,1.080322266E-2,-1.388549805E-3,-7.125854492E-3
9.164806912E0,9.979248047E-3,-3.204345703E-3,-7.217407227E-3
9.169842312E0,9.918212891E-3,-3.341674805E-3,-7.217407227E-3
9.174877712E0,1.193237305E-2,-4.364013672E-3,-6.195068359E-3
9.179913113E0,1.205444336E-2,-4.409790039E-3,-8.178710938E-3
9.184948513E0,1.307678223E-2,-3.387451172E-3,-7.247924805E-3
9.189983914E0,1.312255859E-2,-2.304077148E-3,-7.217407227E-3
9.195019314E0,1.205444336E-2,-2.273559570E-3,-6.149291992E-3
9.200054714E0,1.205444336E-2,-2.273559570E-3,-7.202148438E-3
9.205090115E0,1.098632812E-2,-2.273559570E-3,-7.217407227E-3
9.210125515E0,1.100158691E-2,-3.341674805E-3,-6.149291992E-3
9.215160916E0,1.312255859E-2,-3.326416016E-3,-7.217407227E-3
9.220196316E0,1.313781738E-2,-2.273559570E-3,-7.186889648E-3
9.225231716E0,1.419067383E-2,-2.273559570E-3,-6.103515625E-3
9.230267117E0,1.412963867E-2,-2.380371094E-3,-5.172729492E-3
9.235302517E0,1.316833496E-2,-4.364013672E-3,-7.263183594E-3
9.240337918E0,1.425170898E-2,-3.341674805E-3,-8.285522461E-3
9.245373318E0,1.531982422E-2,-3.417968750E-3,-8.285522461E-3
9.250408718E0,1.623535156E-2,-4.409790039E-3,-8.102416992E-3
9.255444119E0,1.516723633E-2,-4.333496094E-3,-6.225585938E-3
9.260479519E0,1.408386230E-2,-3.341674805E-3,-7.019042969E-3
9.265514920E0,1.312255859E-2,-3.341674805E-3,-5.172729492E-3
9.270550320E0,1.312255859E-2,-3.234863281E-3,-6.256103516E-3
9.275585720E0,1.336669922E-2,-2.410888672E-3,-6.958007812E-3
9.280621121E0,1.525878906E-2,-3.585815430E-3,-5.187988281E-3
9.285656521E0,1.525878906E-2,-5.050659180E-3,-6.286621094E-3
9.290691921E0,1.525878906E-2,-2.426147461E-3,-7.217407227E-3
9.295727322E0,1.525878906E-2,-3.341674805E-3,-7.217407227E-3
9.300762722E0,1.507568359E-2,-3.524780273E-3,-7.217407227E-3
9.305798123E0,1.435852051E-2,-4.241943359E-3,-6.851196289E-3
9.310833523E0,1.525878906E-2,-3.341674805E-3,-5.264282227E-3
9.315868923E0,1.525878906E-2,-3.540039062E-3,-6.149291992E-3
9.320904324E0,1.525878906E-2,-4.409790039E-3,-6.149291992E-3
9.325939724E0,1.502990723E-2,-4.638671875E-3,-6.149291992E-3
9.330975125E0,1.440429688E-2,-5.264282227E-3,-6.149291992E-3
9.336010525E0,1.525878906E-2,-4.653930664E-3,-6.378173828E-3
9.341045925E0,1.501464844E-2,-5.477905273E-3,-6.973266602E-3
9.346081326E0,1.419067383E-2,-5.737304688E-3,-6.149291992E-3
9.351116726E0,1.391601562E-2,-6.546020508E-3,-6.149291992E-3
9.356152127E0,1.312255859E-2,-6.546020508E-3,-6.408691406E-3
9.361187527E0,1.339721680E-2,-6.271362305E-3,-7.217407227E-3
9.366222927E0,1.419067383E-2,-5.203247070E-3,-6.637573242E-3
9.371258328E0,1.448059082E-2,-4.714965820E-3,-5.081176758E-3
9.376293728E0,1.463317871E-2,-5.477905273E-3,-5.081176758E-3
9.381329129E0,1.312255859E-2,-5.477905273E-3,-5.386352539E-3
9.386364529E0,1.278686523E-2,-5.157470703E-3,-5.813598633E-3
9.391399929E0,1.237487793E-2,-4.409790039E-3,-5.737304688E-3
9.396435330E0,1.345825195E-2,-4.409790039E-3,-6.866455078E-3
9.401470730E0,1.383972168E-2,-4.409790039E-3,-5.798339844E-3
9.406506130E0,1.240539551E-2,-4.776000977E-3,-5.081176758E-3
9.411541531E0,1.098632812E-2,-5.477905273E-3,-5.081176758E-3
9.416576931E0,1.098632812E-2,-5.111694336E-3,-5.447387695E-3
9.421612332E0,1.058959961E-2,-4.409790039E-3,-6.530761719E-3
9.426647732E0,9.521484375E-3,-4.806518555E-3,-7.217407227E-3
9.431683132E0,8.850097656E-3,-5.477905273E-3,-6.805419922E-3
9.436718533E0,8.850097656E-3,-5.477905273E-3,-6.546020508E-3
9.441753933E0,8.850097656E-3,-4.653930664E-3,-7.217407227E-3
9.446789334E0,8.850097656E-3,-4.211425781E-3,-7.644653320E-3
9.451824734E0,8.850097656E-3,-5.477905273E-3,-7.843017578E-3
9.456860134E0,7.949829102E-3,-5.477905273E-3,-6.759643555E-3
9.461895535E0,5.798339844E-3,-5.935668945E-3,-6.591796875E-3
9.466930935E0,4.577636719E-3,-6.088256836E-3,-7.217407227E-3
9.471966336E0,5.035400391E-3,-5.477905273E-3,-7.217407227E-3
9.477001736E0,5.157470703E-3,-5.477905273E-3,-7.217407227E-3
9.482037136E0,5.065917969E-3,-5.477905273E-3,-6.713867188E-3
9.487072537E0,5.645751953E-3,-5.477905273E-3,-6.637573242E-3
9.492107937E0,5.126953125E-3,-5.477905273E-3,-7.720947266E-3
9.497143337E0,4.058837891E-3,-5.477905273E-3,-7.766723633E-3
9.502178738E0,3.509521484E-3,-4.959106445E-3,-7.736206055E-3
9.507214138E0,3.509521484E-3,-4.959106445E-3,-7.736206055E-3
9.512249539E0,2.960205078E-3,-4.943847656E-3,-6.118774414E-3
9.517284939E0,1.876831055E-3,-4.409790039E-3,-5.630493164E-3
9.522320339E0,1.922607422E-3,-5.538940430E-3,-6.698608398E-3
9.527355740E0,2.441406250E-3,-6.546020508E-3,-6.057739258E-3
9.532391140E0,1.266479492E-3,-5.966186523E-3,-6.240844727E-3
9.537426541E0,3.051757812E-4,-5.477905273E-3,-7.797241211E-3
9.542461941E0,3.051757812E-4,-5.477905273E-3,-7.675170898E-3
9.547497341E0,-3.051757812E-4,-5.477905273E-3,-7.217407227E-3
9.552532742E0,-1.388549805E-3,-5.477905273E-3,-7.217407227E-3
9.557568142E0,-1.831054688E-3,-6.729125977E-3,-7.827758789E-3
9.562603543E0,-1.831054688E-3,-6.988525391E-3,-8.285522461E-3
9.567638943E0,-1.190185547E-3,-6.546020508E-3,-8.285522461E-3
9.572674343E0,-2.075195312E-3,-5.905151367E-3,-8.285522461E-3
9.577709744E0,-2.899169922E-3,-6.149291992E-3,-8.285522461E-3
9.582745144E0,-2.899169922E-3,-6.546020508E-3,-8.285522461E-3
9.587780545E0,-3.585815430E-3,-5.874633789E-3,-7.598876953E-3
9.592815945E0,-3.280639648E-3,-5.477905273E-3,-7.904052734E-3
9.597851345E0,-3.601074219E-3,-5.477905273E-3,-8.285522461E-3
9.602886746E0,-3.967285156E-3,-4.776000977E-3,-8.285522461E-3
9.607922146E0,-6.118774414E-3,-5.126953125E-3,-8.987426758E-3
9.612957546E0,-6.454467773E-3,-5.477905273E-3,-9.353637695E-3
9.617992947E0,-5.386352539E-3,-6.210327148E-3,-9.353637695E-3
9.623028347E0,-5.035400391E-3,-5.813598633E-3,-7.858276367E-3
9.628063748E0,-4.287719727E-3,-6.240844727E-3,-7.965087891E-3
9.633099148E0,-6.240844727E-3,-6.546020508E-3,-9.033203125E-3
9.638134548E0,-6.408691406E-3,-5.783081055E-3,-8.575439453E-3
9.643169949E0,-6.881713867E-3,-6.256103516E-3,-8.285522461E-3
9.648205349E0,-7.965087891E-3,-6.546020508E-3,-9.063720703E-3
9.653240750E0,-8.239746094E-3,-5.752563477E-3,-9.353637695E-3
9.658276150E0,-7.446289062E-3,-6.286621094E-3,-1.095581055E-2
9.663311550E0,-7.995605469E-3,-5.737304688E-3,-1.066589355E-2
9.668346951E0,-8.239746094E-3,-5.477905273E-3,-9.582519531E-3
9.673382351E0,-9.078979492E-3,-5.477905273E-3,-8.514404297E-3
9.678417752E0,-8.468627930E-3,-5.477905273E-3,-6.591796875E-3
9.683453152E0,-7.400512695E-3,-4.638671875E-3,-6.988525391E-3
9.688488552E0,-7.171630859E-3,-5.279541016E-3,-8.071899414E-3
9.693523953E0,-8.056640625E-3,-5.477905273E-3,-9.155273438E-3
9.698559353E0,-8.239746094E-3,-5.477905273E-3,-8.468627930E-3
9.703594754E0,-9.140014648E-3,-5.477905273E-3,-8.285522461E-3
9.708630154E0,-9.307861328E-3,-4.592895508E-3,-8.285522461E-3
9.713665554E0,-9.307861328E-3,-4.409790039E-3,-8.285522461E-3
9.718700955E0,-9.307861328E-3,-5.340576172E-3,-9.201049805E-3
9.723736355E0,-7.476806641E-3,-5.477905273E-3,-9.353637695E-3
9.728771755E0,-9.033203125E-3,-5.477905273E-3,-8.422851562E-3
9.733807156E0,-1.025390625E-2,-4.547119141E-3,-8.285522461E-3
9.738842556E0,-8.499145508E-3,-2.532958984E-3,-8.285522461E-3
9.743877957E0,-7.293701172E-3,-3.234863281E-3,-8.285522461E-3
9.748913357E0,-7.171630859E-3,-5.279541016E-3,-8.285522461E-3
9.753948757E0,-9.124755859E-3,-4.516601562E-3,-1.022338867E-2
9.758984158E0,-8.331298828E-3,-3.433227539E-3,-1.042175293E-2
9.764019558E0,-6.271362305E-3,-3.341674805E-3,-1.042175293E-2
9.769054959E0,-7.110595703E-3,-3.341674805E-3,-1.042175293E-2
9.774090359E0,-8.193969727E-3,-3.341674805E-3,-1.042175293E-2
9.779125759E0,-8.239746094E-3,-4.364013672E-3,-1.042175293E-2
9.784161160E0,-7.217407227E-3,-4.409790039E-3,-8.361816406E-3
9.789196560E0,-6.149291992E-3,-3.387451172E-3,-9.307861328E-3
9.794231961E0,-6.103515625E-3,-4.394531250E-3,-8.300781250E-3
9.799267361E0,-5.065917969E-3,-4.409790039E-3,-7.232666016E-3
9.804302761E0,-3.982543945E-3,-4.409790039E-3,-9.338378906E-3
9.809338162E0,-5.035400391E-3,-3.341674805E-3,-8.285522461E-3
9.814373562E0,-6.103515625E-3,-3.341674805E-3,-8.285522461E-3
9.819408962E0,-5.035400391E-3,-3.372192383E-3,-8.300781250E-3
9.824444363E0,-5.065917969E-3,-4.409790039E-3,-9.323120117E-3
9.829479763E0,-6.042480469E-3,-4.409790039E-3,-8.285522461E-3
9.834515164E0,-3.936767578E-3,-4.379272461E-3,-8.285522461E-3
9.839550564E0,-2.899169922E-3,-3.402709961E-3,-8.285522461E-3
9.844585964E0,-2.899169922E-3,-4.302978516E-3,-8.331298828E-3
9.849621365E0,-2.899169922E-3,-2.273559570E-3,-9.277343750E-3
9.854656765E0,-2.822875977E-3,-2.365112305E-3,-8.285522461E-3
9.859692166E0,-1.831054688E-3,-3.341674805E-3,-8.193969727E-3
9.864727566E0,-1.647949219E-3,-3.158569336E-3,-7.217407227E-3
9.869762966E0,9.155273438E-5,-1.312255859E-3,-7.415771484E-3
9.874798367E0,-1.724243164E-3,-2.395629883E-3,-9.353637695E-3
9.879833767E0,-7.629394531E-4,-3.341674805E-3,-9.353637695E-3
9.884869168E0,-7.629394531E-4,-3.479003906E-3,-9.353637695E-3
9.889904568E0,-7.629394531E-4,-4.287719727E-3,-9.353637695E-3
9.894939968E0,-4.730224609E-4,-3.341674805E-3,-9.353637695E-3
9.899975369E0,1.205444336E-3,-3.341674805E-3,-9.353637695E-3
9.905010769E0,6.408691406E-4,-3.341674805E-3,-9.353637695E-3
9.910046170E0,2.792358398E-3,-3.875732422E-3,-9.353637695E-3
9.915081570E0,4.577636719E-3,-6.362915039E-3,-9.353637695E-3
9.920116970E0,4.577636719E-3,-4.898071289E-3,-9.353637695E-3
9.925152371E0,4.364013672E-3,-1.876831055E-3,-9.140014648E-3
9.930187771E0,3.936767578E-3,-1.373291016E-4,-8.285522461E-3
9.935223171E0,5.187988281E-3,-5.950927734E-4,-8.056640625E-3
9.940258572E0,3.967285156E-3,-2.273559570E-3,-7.675170898E-3
9.945293972E0,5.874633789E-3,-2.273559570E-3,-9.353637695E-3
9.950329373E0,6.210327148E-3,-2.273559570E-3,-9.094238281E-3
9.955364773E0,4.577636719E-3,-2.548217773E-3,-8.010864258E-3
9.960400173E0,4.837036133E-3,-3.082275391E-3,-7.217407227E-3
9.965435574E0,6.195068359E-3,-2.273559570E-3,-7.766723633E-3
9.970470974E0,8.056640625E-3,-2.273559570E-3,-8.773803711E-3
9.975506375E0,9.140014648E-3,-2.273559570E-3,-7.217407227E-3
9.980541775E0,9.292602539E-3,-2.593994141E-3,-7.217407227E-3
9.985577175E0,8.407592773E-3,-3.341674805E-3,-7.843017578E-3
9.990612576E0,9.262084961E-3,-3.341674805E-3,-9.017944336E-3
9.995647976E0,7.781982422E-3,-3.341674805E-3,-7.949829102E-3
1.000068338E1,8.117675781E-3,-4.028320312E-3,-7.217407227E-3
1.000571878E1,8.850097656E-3,-5.126953125E-3,-6.851196289E-3
1.001075418E1,8.850097656E-3,-4.058837891E-3,-6.500244141E-3
1.001578958E1,9.216308594E-3,-2.975463867E-3,-6.835937500E-3
1.002082498E1,1.028442383E-2,-2.273559570E-3,-6.149291992E-3
1.002586038E1,1.058959961E-2,-2.670288086E-3,-5.371093750E-3
1.003089578E1,1.029968262E-2,-3.341674805E-3,-4.394531250E-3
1.003593118E1,1.098632812E-2,-3.341674805E-3,-5.874633789E-3
1.004096658E1,1.098632812E-2,-3.341674805E-3,-7.629394531E-3
1.004600198E1,1.139831543E-2,-2.929687500E-3,-8.285522461E-3
1.005103738E1,1.205444336E-2,-2.273559570E-3,-7.843017578E-3
1.005607278E1,1.161193848E-2,-2.716064453E-3,-7.217407227E-3
1.006110818E1,1.052856445E-2,-2.899169922E-3,-7.217407227E-3
1.006614358E1,1.127624512E-2,-2.273559570E-3,-7.217407227E-3
1.007117898E1,1.264953613E-2,-2.746582031E-3,-7.217407227E-3
1.007621438E1,1.205444336E-2,-3.341674805E-3,-7.690429688E-3
1.008124978E1,1.301574707E-2,-2.868652344E-3,-7.797241211E-3
1.008628518E1,1.467895508E-2,-2.777099609E-3,-6.713867188E-3
1.009132058E1,1.525878906E-2,-3.341674805E-3,-6.149291992E-3
1.009635598E1,1.525878906E-2,-2.838134766E-3,-5.630493164E-3
1.010139138E1,1.577758789E-2,-2.273559570E-3,-5.081176758E-3
1.010642678E1,1.579284668E-2,-2.273559570E-3,-5.081176758E-3
1.011146218E1,1.470947266E-2,-2.822875977E-3,-6.149291992E-3
1.011649759E1,1.419067383E-2,-3.890991211E-3,-7.751464844E-3
1.012153299E1,1.362609863E-2,-3.860473633E-3,-7.720947266E-3
1.012656839E1,1.312255859E-2,-3.341674805E-3,-7.217407227E-3
1.013160379E1,1.368713379E-2,-2.777099609E-3,-7.217407227E-3
1.013663919E1,1.477050781E-2,-2.273559570E-3,-6.027221680E-3
1.014167459E1,1.464843750E-2,-2.883911133E-3,-5.676269531E-3
1.014670999E1,1.419067383E-2,-3.952026367E-3,-5.538940430E-3
1.015174539E1,1.480102539E-2,-3.799438477E-3,-6.301879883E-3
1.015678079E1,1.525878906E-2,-2.731323242E-3,-6.591796875E-3
1.016181619E1,1.461791992E-2,-2.273559570E-3,-5.508422852E-3
1.016685159E1,1.419067383E-2,-2.914428711E-3,-5.706787109E-3
1.017188699E1,1.353454590E-2,-3.341674805E-3,-6.149291992E-3
1.017692239E1,1.376342773E-2,-3.341674805E-3,-5.493164062E-3
1.018195779E1,1.419067383E-2,-3.341674805E-3,-5.737304688E-3
1.018699319E1,1.284790039E-2,-2.685546875E-3,-6.149291992E-3
1.019202859E1,1.205444336E-2,-2.273559570E-3,-6.149291992E-3
1.019706399E1,1.341247559E-2,-2.960205078E-3,-6.820678711E-3
1.020209939E1,1.419067383E-2,-4.043579102E-3,-7.904052734E-3
1.020713479E1,1.347351074E-2,-4.409790039E-3,-7.568359375E-3
1.021217019E1,1.239013672E-2,-4.409790039E-3,-6.484985352E-3
1.021720559E1,1.205444336E-2,-4.409790039E-3,-6.149291992E-3
1.022224099E1,1.205444336E-2,-4.409790039E-3,-5.401611328E-3
1.022727639E1,1.205444336E-2,-4.409790039E-3,-5.081176758E-3
1.023231180E1,1.205444336E-2,-4.409790039E-3,-5.081176758E-3
1.023734720E1,1.205444336E-2,-3.646850586E-3,-6.607055664E-3
1.024238260E1,1.205444336E-2,-4.119873047E-3,-6.439208984E-3
1.024741800E1,1.046752930E-2,-2.838134766E-3,-6.927490234E-3
1.025245340E1,1.071166992E-2,-3.082275391E-3,-6.408691406E-3
1.025748880E1,1.017761230E-2,-2.548217773E-3,-5.340576172E-3
1.026252420E1,9.918212891E-3,-3.097534180E-3,-5.889892578E-3
