"Time (s)";"Linear Acceleration x (m/s^2)";"Linear Acceleration y (m/s^2)";"Linear Acceleration z (m/s^2)"
1.074080360E-1;-5.389773846E-2;-6.481528282E-2;2.801074982E-1
1.254502720E-1;-1.209200621E-1;7.046353817E-2;-3.295631409E-1
1.434936680E-1;-7.478034496E-2;1.410305500E-2;3.278141022E-1
1.615307780E-1;-6.614160538E-2;6.148374081E-2;-2.396163940E-1
1.795703280E-1;-9.191262722E-2;9.411215782E-3;8.404922485E-2
1.976167760E-1;-8.401250839E-2;5.220723152E-2;-1.250591278E-1
2.156565710E-1;-1.190135479E-1;5.163812637E-2;6.480026245E-2
2.336981360E-1;-4.914236069E-2;1.053482294E-1;-5.590438843E-3
2.517430570E-1;3.940141201E-2;7.404804230E-2;-2.486705780E-2
2.697774200E-1;4.688310623E-2;3.804147243E-2;-4.873561859E-2
2.878230140E-1;1.785250902E-1;8.762824535E-2;-7.205486298E-2
3.058636020E-1;1.333051920E-1;9.992611408E-2;-1.948547363E-2
3.239065100E-1;1.836690903E-1;1.024644375E-1;-6.258392334E-2
3.419485630E-1;3.394589424E-1;1.051982641E-1;1.913452148E-2
3.599812780E-1;3.346824646E-1;1.465116739E-1;-5.237007141E-2
3.780302890E-1;3.525596857E-1;1.265584230E-1;-6.716442108E-2
3.960733190E-1;3.432700634E-1;1.737693548E-1;-5.809783936E-2
4.141133580E-1;3.442478180E-1;2.589521408E-1;-3.428459167E-2
4.321555330E-1;1.307443142E0;5.505528450E-1;2.084732056E-3
4.501933750E-1;4.043986797E-1;1.842470169E-1;1.815414429E-1
4.682334750E-1;4.521250725E-2;1.266028881E-1;-1.932725906E-1
4.862776640E-1;1.099749804E0;6.984592676E-1;-3.253831863E-1
5.043178860E-1;6.474018097E-2;3.231630325E-1;1.714611053E-1
5.223597570E-1;3.645966053E-1;7.655484676E-1;-6.914997101E-2
5.404007720E-1;-2.523464561E-1;4.294390678E-1;-1.763458252E-1
5.584413000E-1;3.740181923E-1;6.539826393E-1;8.791732788E-2
5.764842690E-1;-1.998887658E-1;5.558966398E-1;-1.553268433E-1
5.945111840E-1;4.283056259E-1;6.410384178E-1;-6.875610352E-2
6.125696560E-1;6.900990009E-2;3.773659468E-1;1.620769501E-2
6.306053010E-1;4.196131229E-2;4.532870054E-1;-8.578681946E-2
6.486461940E-1;5.131900311E-1;4.303883314E-1;7.610225677E-2
6.666916050E-1;8.656704426E-2;2.118071318E-1;-3.865623474E-2
6.847331080E-1;1.191518307E0;6.290115118E-1;-2.581691742E-1
7.027769320E-1;-1.191571951E0;2.243328094E-2;-6.891422272E-1
7.208118440E-1;1.640718222E0;5.152413845E-1;8.817338943E-1
7.388522500E-1;2.429436684E0;1.377265930E0;-4.737758636E-2
7.568955230E-1;1.776500344E-1;6.974601746E-2;1.084918976E-1
7.749442290E-1;5.389913321E-1;7.483911514E-1;-1.174640656E-1
7.929838410E-1;1.042369008E0;5.135943890E-1;-6.166515350E-1
8.110171660E-1;2.187995911E-1;1.065541506E-1;-3.042030334E-2
8.290628820E-1;1.011277914E0;6.665250063E-1;-2.553739548E-1
8.471070100E-1;7.959390283E-1;5.514663458E-1;6.262331009E-1
8.651467440E-1;-4.818028212E-2;2.634941339E-1;-2.118721008E-1
8.831928860E-1;6.138336658E-2;2.693877220E-1;-5.876073837E-1
9.012257230E-1;2.352811694E-1;3.329837322E-1;-2.088460922E-1
9.192707670E-1;-2.149557173E-1;5.210129023E-1;-2.885951996E-1
9.373134920E-1;2.018890977E-1;4.770343304E-1;7.166290283E-2
9.553540800E-1;-2.798815966E-1;4.417520761E-1;3.526916504E-1
9.733982690E-1;-1.750005007E0;6.990426779E-1;-1.447361946E0
9.914339150E-1;8.103638887E-1;6.613049507E-1;1.209480286E0
1.009474625E0;6.757986546E-1;3.313480616E-1;2.278499603E-1
1.027516128E0;1.921547651E-1;6.097607613E-1;-5.750207901E-1
1.045559525E0;-1.351997972E0;-5.033465624E-1;4.826812744E-1
1.063606888E0;4.384570718E-1;5.035387278E-1;-6.158294678E-1
1.081644790E0;2.089252025E-1;-3.351169229E-1;-5.640716553E-1
1.099682206E0;1.016635299E0;2.352331877E-1;5.219173431E-2
1.117713273E0;-3.610568047E-1;1.344994307E-1;-4.844636917E-1
1.135768204E0;-1.084998697E-1;3.331221342E-1;2.415065765E-1
1.153810806E0;-3.603896499E-1;2.275859118E-1;-9.113845825E-1
1.171853226E0;1.033923775E-1;-4.526233673E-2;4.081439972E-2
1.189888993E0;6.922355294E-1;2.810906172E-1;6.685256958E-1
1.207935379E0;4.246753454E-2;2.813478708E-1;4.742383957E-1
1.225975113E0;-2.838134170E-1;-1.463838816E-1;-5.420951843E-1
1.244007340E0;-5.836402178E-1;-3.264039159E-1;-3.733110428E-1
1.262060196E0;5.173356533E-1;1.497020721E-1;6.777849197E-1
1.280092300E0;1.014717460E0;2.657914162E-1;6.937952042E-1
1.298146317E0;2.220741808E-1;2.060142756E-1;-5.263395309E-1
1.316182755E0;-1.062189937E-1;-1.000298262E-1;-7.303123474E-1
1.334221390E0;-2.915659547E-2;2.869429588E-1;-2.030839920E-1
1.352268693E0;6.182798743E-1;4.409266710E-1;5.860233307E-1
1.370302993E0;7.411147356E-1;1.519640684E-1;4.647293091E-1
1.388346451E0;7.043591142E-1;1.870535612E-1;-4.413013458E-1
1.406390091E0;-2.419450879E-2;5.024315119E-1;3.444862366E-2
1.424431046E0;-8.674753904E-1;5.076096058E-1;1.937408447E-1
1.442476395E0;-1.329351664E0;6.198859215E-2;-1.647307396E0
1.460513749E0;1.292223454E0;1.658068776E0;3.988943100E-1
1.478552323E0;-1.386663795E0;1.002431750E0;-8.585367203E-1
1.496586075E0;6.267380714E-1;1.861933470E-1;3.917579651E-1
1.514639541E0;-1.431168318E-1;7.091922760E-1;-1.223154068E-1
1.532683121E0;-1.704871953E-1;1.208037376E0;1.009969711E-1
1.550718582E0;5.284062624E-1;1.251134515E0;7.664804459E-1
1.568757828E0;3.342857063E-1;7.156825066E-1;-1.321316719E0
1.586804093E0;5.487909913E-1;5.006757975E-1;2.552032471E-3
1.604846878E0;7.690767050E-1;1.333914876E0;-2.188034058E-1
1.622889664E0;9.049412012E-1;-3.258621693E-2;3.720035553E-1
1.640925125E0;7.022774220E-1;7.232919931E-1;-4.946460724E-1
1.658963333E0;1.910163760E-1;1.032549858E0;-7.271022797E-1
1.677016190E0;3.580113649E-1;2.907595634E-1;5.710563660E-1
1.695052445E0;2.187708467E-1;5.469231606E-1;-5.380001068E-1
1.713097244E0;3.269255161E-2;6.028052568E-1;-1.548328400E-1
1.731132095E0;1.927264333E-1;3.001027107E-1;5.518321991E-1
1.749173661E0;1.017453969E-1;1.637316942E-1;-2.200851440E-1
1.767215714E0;-1.171646595E0;2.983375788E-1;-4.022321701E-1
1.785260819E0;-8.485624790E-1;1.263082862E0;2.003612518E-1
1.803302932E0;-7.359490991E-1;2.065893650E0;-7.021942139E-1
1.821340957E0;-1.119392514E0;1.346165538E0;-1.449671745E0
1.839381119E0;-8.248547912E-1;1.986042738E0;3.331718445E-1
1.857428116E0;-1.060247421E-3;1.073043227E0;8.569650650E-1
1.875467850E0;3.452926278E-1;9.714019299E-1;3.065567017E-1
1.893512100E0;5.334428549E-1;2.050233841E0;-1.664432526E0
1.911548843E0;7.117289305E-1;1.947253585E0;-1.736869812E-1
1.929587967E0;2.267978787E-1;1.604462385E0;-5.975532532E-1
1.947634597E0;8.896306157E-1;2.726524353E0;8.929443359E-2
1.965675247E0;2.480717599E-1;2.770171642E0;2.877092361E-1
1.983717911E0;-6.268692017E-1;3.857700348E0;-1.022909164E0
2.001760879E0;-1.476114154E0;4.287412643E0;-1.403890610E0
2.019788834E0;-1.133409262E0;3.301712513E0;-3.568944931E-1
2.037842545E0;-1.418517709E0;3.772829533E0;-5.025320053E-1
2.055882462E0;-7.299739718E-1;3.412289619E0;-1.134099960E0
2.073926102E0;-3.702509403E-1;4.046903610E0;-3.710385799E0
2.091967118E0;-9.702044725E-1;1.750742078E0;-8.001060486E-1
2.110002884E0;-9.679425955E-1;-6.323051453E-2;3.904481888E0
2.128051284E0;-2.323876619E-1;2.443391085E-1;1.182068825E0
2.146090408E0;7.335525751E-1;6.219906807E-1;2.075929642E-1
2.164122635E0;-1.543878317E-1;1.243653297E-1;-1.252496719E0
2.182174759E0;-8.195126057E-1;-2.745857239E-1;-2.758398056E-1
2.200212357E0;-4.391652346E-1;-2.320011139E0;7.158441544E-1
2.218257645E0;1.335625291E0;-2.763385773E0;1.124330521E0
2.236296707E0;2.189921141E0;3.071190834E0;4.453086853E-1
2.254341812E0;1.243628860E0;-7.029305696E-1;-1.207155228E0
2.272383133E0;4.737506509E-1;-7.032074928E-1;6.279640198E-1
2.290419083E0;-1.738024831E0;3.655605316E-1;-3.015170574E0
2.308466140E0;2.465473413E0;-1.700475931E0;4.036961555E0
2.326511856E0;-3.468147516E-1;-5.638091564E-1;-9.513158798E-1
2.344548172E0;9.209740162E-1;-1.106807351E0;1.124763489E-1
2.362591386E0;-8.541787863E-1;-1.469800711E0;1.366587639E0
2.380626297E0;-7.126708031E-1;-1.915443182E0;-6.900968552E-1
2.398668900E0;4.091501832E-1;-2.103803396E0;1.712238312E0
2.416708267E0;1.600431085E0;-1.334000945E0;1.497602463E-1
2.434755936E0;1.052853346E0;-2.025582552E0;1.001986504E0
2.452798660E0;3.279706836E-1;-1.126624823E0;8.296012878E-2
2.470834793E0;7.654176354E-1;-1.620380521E0;1.910514832E-1
2.488875320E0;1.224590540E-1;-5.608338118E-2;1.111450195E-1
2.506921036E0;1.450603485E0;-8.107223511E-1;-5.030126572E-1
2.524964188E0;6.493889689E-1;5.959746242E-1;4.744939804E-1
2.543001969E0;-7.538779974E-1;1.567520022E0;-2.785704136E0
2.561042801E0;-2.158679962E-1;4.149556756E-1;1.443449974E0
2.579083634E0;-3.186468482E-1;1.393559694E0;-8.497047424E-2
2.597129715E0;1.411876917E0;1.670485735E-1;6.910963058E-1
2.615170243E0;2.086055756E0;1.141859770E0;1.187692642E0
2.633209549E0;1.011688948E0;8.105093241E-1;-1.060665131E0
2.651250138E0;5.904696584E-1;5.833702087E-1;5.329895020E-1
2.669291092E0;1.555726290E0;1.278064251E0;-6.845197678E-1
2.687338028E0;2.063889265E0;1.161019206E0;1.247157097E0
2.705377640E0;1.921350837E0;-5.133538842E-1;2.638025284E-1
2.723423050E0;6.048156619E-1;3.936355114E0;-6.791419983E-1
2.741458573E0;7.565119267E-1;-8.035910130E-2;-5.216159821E-1
2.759502091E0;5.813206434E-1;2.586372137E0;1.419124603E-1
2.777547684E0;-3.320898414E-1;2.532124043E0;-3.431582928E0
2.795586319E0;1.369462729E0;1.345744014E0;1.789750099E0
2.813629654E0;-6.763002276E-1;2.271692514E0;-1.602136612E0
2.831670914E0;6.838011742E-2;-4.913831949E-1;1.734734535E0
2.849706375E0;4.280678332E-1;1.355461597E0;9.222450256E-1
2.867754654E0;6.549462676E-1;8.312059641E-1;-1.430292130E0
2.885793778E0;6.349955797E-1;6.210850477E-1;6.179008484E-1
2.903837540E0;2.812024355E-1;7.386398315E-2;-1.108561516E0
2.921871658E0;3.849582970E-1;5.901544094E-1;1.006250381E0
2.939915482E0;-3.890819550E-1;2.860893011E-1;-1.144551277E0
2.957961441E0;1.275080442E-1;-5.322659016E-2;5.384063721E-2
2.976007766E0;-3.306255937E-1;-7.547748089E-2;-2.687454224E-1
2.994044266E0;-5.085232258E-1;9.924390316E-1;-1.280042648E0
3.012085282E0;-1.437457800E-1;-7.858142853E-1;-1.771448612E0
3.030125748E0;-1.337712526E0;6.761591434E-1;1.196547508E0
3.048169755E0;7.603529692E-1;-2.096559763E0;1.438516617E0
3.066207474E0;-2.524570823E-1;-7.404233217E-1;8.541774750E-2
3.084253433E0;-1.875081778E0;-1.588757038E-1;-2.086166859E0
3.102295303E0;-7.293139696E-1;-1.214132786E0;9.793577194E-1
3.120331437E0;-9.177463055E-1;-9.181286097E-1;-3.779010773E-1
3.138375321E0;-3.042366743E0;1.882179499E0;-1.591625214E-1
3.156418046E0;-3.429251015E-1;-2.729651332E-1;2.867784500E-1
3.174461685E0;-1.950139284E0;-4.707336426E-3;-1.794407845E0
3.192508987E0;-1.621777862E-1;-2.092790127E0;-1.747020721E0
3.210539505E0;2.641062737E0;1.403841138E0;-4.168472290E-1
3.228578995E0;-1.038380504E0;-1.902985454E0;-3.531293869E-1
3.246630752E0;8.810933232E-1;-4.525771141E0;2.195891380E0
3.264669510E0;-3.332336426E0;3.539038181E0;-1.963535786E0
3.282711319E0;-2.308362484E0;1.457833171E0;-7.085037231E-1
3.300753311E0;-3.584436178E-1;1.274421930E0;1.218745232E0
3.318794021E0;-2.194770336E0;-1.548789978E0;1.035704613E0
3.336835770E0;8.533905745E-1;-3.910696030E0;3.744076729E0
3.354878067E0;2.113614559E0;2.252205372E0;-2.490863800E-1
3.372917251E0;-1.127257228E0;9.098190069E-1;3.754491806E-1
3.390963394E0;5.219904780E-1;-2.284203291E0;6.174860001E-1
3.409002518E0;-2.199068546E0;8.029286861E-1;-4.149723053E0
3.427044571E0;-1.730132818E0;6.266669035E-1;3.860902786E-1
3.445086258E0;-4.251378477E-1;4.665654898E-1;4.211090088E0
3.463127579E0;-7.206736803E-1;-1.199098945E0;1.502418518E0
3.481169266E0;-1.725294590E-1;-1.687536240E-1;1.096084595E0
3.499215714E0;-1.960193872E0;1.939852238E-1;-5.496702194E-1
3.517253006E0;-3.563884497E0;1.305190802E0;-1.533405304E0
3.535294022E0;-1.011580467E0;8.751163483E-1;-6.514501572E-1
3.553336136E0;-2.058951378E0;6.248538494E-1;1.326640129E0
3.571377762E0;1.905266047E-1;3.348255157E-1;7.959527969E-1
3.589425003E0;-2.471529245E-1;-3.923884630E-1;-6.780471802E-1
3.607460769E0;8.118295670E-1;-2.447701693E-1;-2.929077148E-1
3.625502823E0;-6.707882881E-1;-1.542862654E-1;5.937757492E-1
3.643544327E0;4.269313216E-1;1.154514909E0;-1.227490425E0
3.661586319E0;1.992821693E-3;-6.948723197E-1;-1.204578400E0
3.679627517E0;8.676202893E-1;-1.310049295E0;7.489910126E-1
3.697669022E0;1.046206594E0;-1.162923694E0;6.155424118E-1
3.715711136E0;1.353789806E0;-2.221152782E-1;1.689100266E-1
3.733747635E0;-2.242142558E-1;-1.313757896E0;-6.802387238E-1
3.751792129E0;5.569594502E-1;7.502419949E-1;4.588003159E-1
3.769837967E0;6.594076157E-1;5.009752512E-1;4.003028870E-1
3.787877884E0;3.911920190E-1;5.738986731E-1;6.147832870E-1
3.805919571E0;8.111236095E-1;1.220092177E0;-9.201660156E-1
3.823961319E0;4.105496407E-2;2.751062632E0;1.419907570E0
3.842002517E0;-6.784103513E-1;6.457304955E-2;-7.530384064E-1
3.860044571E0;5.196300745E-1;1.351627111E0;1.289482117E-1
3.878072342E0;9.952970743E-1;-1.952829242E0;-7.678327560E-1
3.896127517E0;1.138040423E0;-6.878443360E-1;1.364379883E0
3.914169632E0;6.611671448E-1;2.090686321E0;-3.356521606E0
3.932208267E0;-1.056821346E0;-1.987732887E0;2.657193184E0
3.950256608E0;7.333260775E-1;1.459309459E0;1.282698631E0
3.968291092E0;2.344369173E0;-7.851746678E-1;3.834619522E-1
3.986336564E0;2.490496874E0;1.937061787E0;9.832382202E-3
4.004378006E0;-2.762993872E-1;3.129465580E0;-7.362689972E0
4.022420060E0;-9.861560464E-1;-4.618803263E-1;1.887989044E-2
4.040461319E0;-4.681029916E-1;-3.346232176E-1;2.999312401E0
4.058498490E0;1.489430904E0;2.045786381E0;1.388727188E0
4.076543046E0;1.067442894E0;2.028166771E0;6.775283813E-2
4.094588761E0;-4.183188081E-1;1.105678558E0;-1.912182808E0
4.112616287E0;-1.787587047E0;-1.761109829E-1;-1.584424973E-1
4.130670121E0;-1.450338960E-1;1.692276001E0;-4.699897766E-1
4.148711747E0;4.842411876E-1;1.357774377E0;9.646902084E-1
4.166753861E0;5.617603064E-1;1.827054143E0;6.223058701E-1
4.184792008E0;-6.476845741E-1;9.765121937E-1;-8.042659760E-1
4.202840103E0;-1.139530063E0;1.749764323E0;-7.658510208E-1
4.220878495E0;-3.340332210E-1;2.125160933E0;-1.178303719E0
4.238920853E0;2.928797603E-1;1.679593801E0;8.863735199E-2
4.256961808E0;6.279239655E-1;2.680287123E0;-1.099246025E0
4.275000259E0;7.165698409E-1;1.354041815E0;-2.047515392E0
4.293049454E0;-1.136108398E0;-1.440274715E-2;2.231437683E0
4.311087845E0;-3.164590001E-1;9.586611986E-1;2.470936775E0
4.329128983E0;1.746718168E0;2.586641788E0;1.135358810E-1
4.347171097E0;1.148521066E0;1.315640807E0;-1.164149284E0
4.365212784E0;-2.076611757E0;-2.087201118E0;-8.065280914E-1
4.383254837E0;2.163992167E0;6.367696762E0;-2.740880013E0
4.401292556E0;1.361972332E0;2.709015131E0;-2.893015862E0
4.419322404E0;-5.177410841E-1;-7.589340210E-3;4.755834579E0
4.437383438E0;8.412587643E-2;3.455321789E-1;-1.414079666E-1
4.455421769E0;1.831476212E0;3.079016685E0;9.619626999E-1
4.473462783E0;5.289571881E-1;1.008984804E0;-1.650873184E0
4.491505021E0;-6.223857403E-1;4.171742201E-1;-1.231846809E0
4.509546830E0;2.274117470E-1;8.320350647E-1;-1.601898193E0
4.527588761E0;8.888085485E-1;2.199586630E-1;2.776424408E0
4.545628982E0;1.672397614E0;1.554728270E0;1.436737061E0
4.563670731E0;1.996380091E0;1.155154943E0;-1.192231178E0
4.581715042E0;2.095578313E-1;-9.568434954E-1;-3.011322021E-2
4.599756058E0;5.785973072E-1;-7.913541794E-2;5.967512131E-1
4.617796769E0;1.986759186E0;8.315081596E-1;-1.867303848E-1
4.635827286E0;2.258760929E0;-1.235457420E0;6.775007248E-1
4.653880203E0;-2.676424682E-1;-1.019176483E0;3.453545570E0
4.671923538E0;2.761984825E0;1.391964555E0;6.875257492E-1
4.689964310E0;1.343028307E0;-2.934720039E0;2.113039017E0
4.708005386E0;1.531118035E0;1.080130577E0;-1.851005554E-1
4.726048843E0;1.674916744E0;-2.833622456E0;-1.586503029E0
4.744089981E0;6.027418375E-2;-4.695014000E0;1.362603188E0
4.762131485E0;1.928849697E0;-4.968689680E-1;-7.426815033E-1
4.780156449E0;1.253235936E0;-6.653243303E-1;8.443355560E-2
4.798211930E0;1.436966419E0;-1.578209043E0;9.205656052E-1
4.816260453E0;4.649915099E-1;-1.483920097E0;-8.704557419E-1
4.834298783E0;1.652909040E0;1.386733055E-1;-2.417445183E0
4.852340652E0;9.010416269E-1;-1.043142200E0;-2.769464493E0
4.870382523E0;2.346203923E-1;-2.225478172E0;1.128750801E0
4.888421097E0;9.756132364E-1;-1.280923605E0;1.933341026E0
4.906465653E0;2.206599474E0;-1.132323503E0;1.072496414E0
4.924507767E0;1.569669366E0;-3.383035183E0;1.488045692E0
4.942548660E0;1.112299919E0;3.127712011E-1;-3.996496201E-1
4.960580582E0;3.403606653E0;-1.906932473E0;2.527151108E-1
4.978632644E0;1.000925303E-1;-2.553313732E0;3.026371002E-1
4.996675248E0;6.190836430E-1;-1.214796305E0;-8.529129028E-1
5.014716630E0;9.881984591E-1;6.950287819E-1;2.287680626E0
5.032759049E0;1.002769470E0;7.560920715E-2;-8.609151840E-1
5.050800187E0;-6.139870882E-1;-1.596290827E0;4.850645065E-1
5.068829422E0;-1.215810776E0;-6.083627939E-1;-3.439092636E-1
5.086881241E0;-5.864402652E-1;-4.072800875E-1;1.291218758E0
5.104929214E0;-6.647865176E-1;7.909834385E-1;7.218151093E-1
5.122967667E0;-8.837718964E-1;8.172873259E-1;-1.717473507E0
5.141009659E0;-1.593630314E0;3.564647436E-1;-1.388864517E-1
5.159039750E0;-1.081480265E0;2.127207041E0;-4.458030701E0
5.177093460E0;-1.262379646E0;1.187936425E0;3.769493103E-2
5.195134903E0;-1.357728243E0;1.322234154E0;3.551836014E0
5.213177323E0;3.138157725E-1;1.572174549E0;1.131421089E0
5.231218888E0;4.459141195E-2;-5.217444897E-1;7.026004791E-2
5.249261002E0;2.860843539E-1;-4.006695747E-2;-1.095660210E0
5.267302384E0;2.612290382E-1;4.418983936E0;-3.656766891E0
5.285344376E0;2.319250107E0;-1.000816822E-1;-9.285354614E-1
5.303379349E0;1.118615866E-1;1.663308263E0;1.726844788E0
5.321425980E0;3.410166740E0;2.086270809E0;8.548307419E-1
5.339471756E0;2.203963518E0;1.515325189E0;2.437487602E0
5.357511979E0;-3.144544363E-2;1.198088884E0;-4.473578930E0
5.375553544E0;-9.825831056E-1;2.678607941E0;-5.939807892E-1
5.393595658E0;3.215292692E-1;8.124415874E-1;1.342570305E0
5.411637162E0;8.285853863E-1;1.475037336E0;1.524578094E0
5.429679031E0;9.967981577E-1;1.532021999E0;-8.087472916E-1
5.447720902E0;-3.363325000E-1;2.397347927E0;-2.733870506E0
5.465764236E0;-2.141979218E0;1.005600691E0;-1.689219475E0
5.483802688E0;-1.653731227E0;5.382460356E-1;2.081819534E0
5.501847427E0;3.828619719E-1;1.921537876E0;-1.694555283E-1
5.519888566E0;1.364665031E0;-2.820897818E0;-1.597596169E0
5.537930680E0;7.465828657E-1;7.650480270E-1;2.694147110E0
5.555972000E0;-5.950945020E-1;1.446743011E0;2.401783943E0
5.574014054E0;-9.292675853E-1;-2.328493595E0;2.201645851E0
5.592044205E0;-3.308067620E-1;6.553536654E-1;-2.498272419E0
5.610095047E0;4.674665928E-1;-1.126209497E0;-4.818534851E-1
5.628142593E0;-5.356941819E-1;-2.704368353E0;2.356907845E0
5.646181778E0;-8.772996664E-1;-4.196381569E-1;2.873954773E-1
5.664223832E0;-1.101102114E0;2.429976463E0;-1.840592384E0
5.682253861E0;-1.764207482E0;-9.655971527E-1;-4.885783672E0
5.700307022E0;-2.226651907E0;-1.838690400E0;1.941585541E-1
5.718346146E0;-4.591976404E-1;-1.331555843E0;2.837115288E0
5.736391251E0;-1.763678551E0;5.646377802E-1;3.433742523E-1
5.754433304E0;-2.555532753E-1;4.635556936E-1;-1.630065918E0
5.772474747E0;-1.868426919E0;-3.142568588E0;-1.882855415E0
5.790517045E0;-2.058032513E0;-1.876708269E-1;1.310597420E0
5.808558732E0;-2.092651844E0;5.300905704E-1;3.175821304E-1
5.826588883E0;-5.549479723E-1;3.144958019E-1;1.151566505E0
5.844639481E0;-5.199782252E-1;-4.301397800E0;2.156444550E0
5.862687515E0;-2.323067665E0;2.728476048E0;7.641677856E-1
5.880722062E0;-2.170442820E0;1.317481399E0;-2.071490765E0
5.898768326E0;-5.030843019E-1;-5.224034309E0;-2.867505074E0
5.916809890E0;-3.004704952E0;-1.017420292E0;3.220476151E0
5.934852066E0;-2.065270424E0;-1.308829069E0;4.406309128E-1
5.952893937E0;-6.092783809E-1;7.442399263E-1;2.480578423E0
5.970924515E0;-1.647732258E-1;1.653484464E0;-2.226282597E0
5.988973099E0;-2.982162476E0;-3.013570786E0;1.775209427E0
6.007024307E0;-8.271051645E-1;-2.417693138E0;-2.141437531E-1
6.025061661E0;1.387347579E0;4.421368837E-1;-1.446160316E0
6.043104019E0;1.232061505E0;2.425303936E0;1.484403610E-1
6.061145156E0;-3.247826695E-1;-2.338824272E-1;-8.270072937E-2
6.079187455E0;-5.465905070E-1;-1.356144667E0;-9.217805862E-1
6.097229142E0;1.461991072E-1;4.306845665E-1;3.195886612E-1
6.115271500E0;1.413819790E0;2.180406570E0;2.168323517E0
6.133312821E0;6.746481657E-1;3.434763432E0;-2.842132092E0
6.151343461E0;-4.055984020E-1;8.153842688E-1;-3.872138023E0
6.169397171E0;-2.222098589E0;2.564592361E0;9.170351028E-1
6.187439408E0;-1.531650662E0;2.700621128E0;1.242078781E0
6.205469436E0;1.096740961E-1;-2.329082012E0;1.041299820E0
6.223522904E0;1.155914783E0;2.785479069E0;-9.693880081E-1
6.241564835E0;-4.874981046E-1;2.767914772E0;6.520996094E-1
6.259606949E0;-1.207165241E0;3.532718420E-1;3.421842575E0
6.277645279E0;-4.003131390E-2;3.222718954E0;-2.894039154E0
6.295693618E0;4.059458971E-1;3.394190311E0;-1.356746674E0
6.313732621E0;8.032953739E-1;2.766259670E0;-1.560516357E-1
6.331775162E0;9.401936531E-1;4.049562216E-1;-9.457883835E-1
6.349798478E0;1.687881708E0;9.695743322E-1;1.500765800E0
6.367855484E0;1.171928525E0;1.493347287E0;2.348368645E0
6.385903152E0;1.188799620E0;1.919781685E0;2.372581482E0
6.403939773E0;2.323121786E0;2.384573698E0;-2.509084702E0
6.421986649E0;1.875077963E0;1.990470529E0;-2.744108200E0
6.440026322E0;4.451409578E-1;-2.104004622E0;6.235609055E-1
6.458068070E0;3.844211578E0;1.936085820E0;-1.173518181E0
6.476110367E0;1.368006945E0;1.371414900E0;-8.583068848E-2
6.494139725E0;1.235796452E0;6.480158567E-1;3.510995865E0
6.512192276E0;1.356849432E0;1.752374172E-1;-2.267104149E0
6.530238785E0;1.650079727E0;8.406553268E-1;-5.388183594E-1
6.548278824E0;6.204047799E-1;-2.203428030E0;7.611370087E-1
6.566319474E0;2.671157122E0;-1.556409478E0;1.601654053E0
6.584361710E0;8.809684515E-1;-1.269619465E-1;-2.595148087E-1
6.602403763E0;1.509001493E0;-8.907640576E-1;1.705894470E-1
6.620446060E0;3.388450742E-1;-2.595511675E0;-1.321727753E0
6.638475296E0;1.782483816E0;1.282206774E0;-1.681607723E0
6.656528763E0;1.089319706E0;-9.097487926E-1;-8.174705505E-1
6.674572159E0;1.909526110E0;-1.993625283E0;1.365547180E-1
6.692613663E0;1.708855271E0;-1.652609229E0;-6.878337860E-1
6.710655289E0;2.572770834E0;-3.070764065E0;1.550560951E0
6.728697403E0;1.142506599E0;-4.756929874E0;1.246595383E0
6.746739212E0;1.814872503E0;-2.886906624E0;-2.072353363E-1
6.764781754E0;1.434974968E-1;-1.909821987E0;5.509681702E-1
6.782822892E0;1.090934426E-1;-3.011640787E0;-1.232398987E0
6.800850479E0;2.838765383E-1;-1.673899174E0;-1.089526176E0
6.818905472E0;5.718527436E-1;-2.216470242E0;1.041858673E0
6.836949478E0;-1.853712201E-1;-1.479528666E0;3.552057266E0
6.854990799E0;1.357463717E0;2.785526276E0;-5.928354263E-1
6.873030045E0;4.889962077E-1;1.698630333E0;-2.856189728E0
6.891072220E0;4.397690296E-2;9.782752991E-1;-5.526719570E0
6.909119827E0;-5.838218927E-1;-1.696018815E0;1.553707123E0
6.927158646E0;2.193597078E0;-3.325200081E-1;3.100633621E0
6.945200821E0;1.878905296E0;6.559851170E-1;3.053188324E-1
6.963242936E0;1.209165096E0;1.980909348E0;-6.873521805E-1
6.981285111E0;6.971849799E-1;-1.713933468E0;1.693819046E0
6.999326248E0;-1.772476673E0;1.710450649E-1;-1.789281845E0
7.017370621E0;7.772768736E-1;1.287869096E0;-8.035764694E-1
7.035410476E0;-1.830520928E-1;-5.693641901E-1;3.456760406E0
7.053453140E0;7.386356592E-1;1.329844475E0;-1.296872139E0
7.071494583E0;5.534811020E-1;-5.343513489E-1;-3.933107376E0
7.089536698E0;-6.529114246E-1;-1.115693927E0;1.600135803E0
7.107578202E0;7.927614450E-2;3.765496016E-1;1.579646111E0
7.125620865E0;1.756797552E0;-1.386675835E-1;6.518363953E-1
7.143662308E0;1.313026786E0;-2.029950142E0;2.233236313E0
7.161704484E0;6.723783612E-1;-3.345634937E0;1.096473694E0
7.179746781E0;8.962965012E-2;-1.856563807E0;-2.928619385E-1
7.197788529E0;-4.768156707E-1;1.168688297E0;-2.954864502E-2
7.215830033E0;1.307081580E-1;8.223986626E-2;6.465702057E-1
7.233871597E0;-7.950686216E-1;5.359387398E-2;-6.788625717E-1
7.251904922E0;-8.648872375E-1;3.604596853E-1;6.686782837E-1
7.269956497E0;-3.267807066E-1;1.851540804E-1;1.431573868E0
7.287997940E0;-5.579727888E-1;1.403212190E0;-2.244266510E0
7.306040238E0;-3.104144931E-1;-1.049610019E0;-3.354625702E-1
7.324081070E0;5.730550289E-1;9.858196974E-1;-1.103010178E-1
7.342125687E0;-2.908027470E-1;-7.655602694E-1;-2.332949162E0
7.360165908E0;6.486701965E-2;-2.973885536E-1;-8.873691559E-1
7.378207657E0;-4.297802746E-1;-3.055196285E0;-5.730743408E-1
7.396235916E0;7.589763999E-1;-1.111861706E0;4.903314590E0
7.414296768E0;5.049571991E-1;-4.242510796E-1;-4.583282471E-1
7.432333634E0;-4.115554690E-1;7.248187065E-2;-1.373181343E0
7.450375931E0;-5.074611902E-1;-1.392562032E0;1.259708405E-2
7.468414566E0;-3.506068587E-1;-1.069837928E0;7.023534775E-1
7.486459915E0;5.005720258E-1;-4.594814777E-2;1.458335876E0
7.504501602E0;5.648211241E-1;6.267762184E-2;7.220706940E-1
7.522543900E0;-8.754730225E-1;1.366979718E0;-2.747811317E0
7.540585648E0;-1.952467918E0;3.020232916E-1;-4.011877537E0
7.558625992E0;-2.240722895E0;-1.057902575E0;6.901817322E-1
7.576671280E0;-1.278176785E0;-1.798310280E-1;2.112716675E0
7.594700455E0;7.857437134E-1;2.539258480E0;-1.667782784E0
7.612753495E0;1.578055620E-1;2.984539986E0;-7.489001274E0
7.630795914E0;-2.303584576E0;-1.262563705E1;1.121591282E1
7.648832474E0;-1.551564932E0;2.449821711E0;1.594388008E0
7.666879654E0;1.692023277E0;2.040374517E0;-2.872591972E0
7.684915360E0;1.230388403E0;-1.632601261E0;4.232096672E0
7.702960404E0;-1.003677607E0;1.891606808E0;-2.506755829E0
7.721008500E0;2.720224857E-1;1.653772593E0;-1.477839470E0
7.739047074E0;-2.453004599E0;-2.468819141E0;3.142291069E0
7.757089554E0;9.234220386E-1;-7.445771098E-1;1.396104813E0
7.775119828E0;-6.339840889E-1;2.643727541E0;-6.147117615E-1
7.793173294E0;-2.129012346E0;1.792117834E0;-1.081567764E0
7.811215287E0;9.016569853E-1;2.525550842E0;-3.540141582E0
7.829257523E0;-6.715444326E-1;1.505166054E0;-9.058094978E0
7.847299454E0;-3.603616714E0;3.374925852E-1;5.254754066E0
7.865341019E0;-6.148923635E-1;-2.238213778E0;1.392184925E1
7.883383255E0;1.427579403E0;2.179451942E0;-1.226667404E0
7.901425248E0;-8.720332384E-1;-2.502256155E0;7.342729568E-1
7.919450455E0;2.032393456E0;4.306754112E0;-5.352224827E0
7.937506974E0;-1.611101627E0;1.370458961E0;-1.801300049E-2
7.955552689E0;1.757316351E0;4.279142857E0;4.878051758E0
7.973593155E0;-2.291376114E0;-1.674602270E0;-3.250862122E0
7.991635330E0;5.310894251E-1;-2.556357861E0;9.548482895E-1
8.009676651E0;6.624068022E-1;7.513091564E-1;-1.962022781E-1
8.027718949E0;4.961961508E-1;-6.697365046E-1;-1.841080189E0
8.045760941E0;-5.490732193E-2;-2.296824217E0;1.923112869E0
8.063790420E0;1.719514132E0;2.453404188E0;4.375297546E0
8.081845413E0;-6.677299738E-1;-3.431028366E0;-1.310270309E0
8.099886979E0;-9.029418230E-2;1.639916420E0;-1.413901329E0
8.117928849E0;7.592791319E-1;1.818225384E-1;-1.013529778E0
8.135971146E0;3.096725941E-1;-9.908010960E-1;1.246386528E0
8.154011490E0;-5.891975164E-1;-1.355683804E0;1.534982681E0
8.172051834E0;9.069512486E-1;-3.239377737E-1;1.528087616E0
8.190101089E0;8.353862166E-1;-1.714183331E0;-1.828807354E0
8.208144242E0;5.967984200E-1;7.949018478E-1;-2.804586887E0
8.226180741E0;9.767516851E-1;-6.559945345E-1;-5.429077148E-1
8.244222184E0;7.312638164E-1;-2.432875156E0;2.737002373E0
8.262264664E0;-1.961485147E-1;1.624516249E-1;1.011384010E0
8.280306839E0;3.709681630E-1;-7.889798284E-1;-3.752746582E-1
8.298331985E0;3.557771444E-2;-3.278760910E-1;-1.077525139E0
8.316387650E0;1.071485519E0;-3.497679234E-1;-7.833509445E-1
8.334435379E0;1.645496368E0;-1.814073801E0;1.878059387E0
8.352474930E0;4.573132992E-1;-2.919017076E-1;1.192395210E0
8.370516007E0;4.280571043E-1;-2.809729576E-1;-5.370025635E-1
8.388558548E0;1.725901663E-1;-2.434651852E-1;-6.924839020E-1
8.406600541E0;5.542227030E-1;-6.970909834E-1;-2.335510254E-1
8.424642838E0;1.887023449E-1;8.746138811E-1;1.478596687E0
8.442684037E0;3.960960805E-1;8.074302673E-1;1.392145157E-1
8.460723526E0;6.081777811E-1;-2.127850056E-1;-8.325242996E-1
8.478765823E0;-1.128801703E-2;-2.753099203E-1;1.121139526E-2
8.496810501E0;7.806322575E-1;-1.120583773E0;1.776824951E0
8.514852249E0;3.908895254E-1;7.279020548E-1;2.280416489E0
8.532894120E0;5.209295154E-1;1.764554381E0;-3.216838837E-1
8.550936295E0;4.617762268E-1;-1.464194059E-1;-1.532945633E0
8.568978531E0;-1.096320391E0;-2.127993107E-2;-1.463211060E0
8.587019669E0;4.194258898E-2;2.592920065E-1;1.484659195E0
8.605060380E0;-2.242925763E-1;1.582674623E0;-4.864883423E-2
8.623106034E0;-1.024313092E0;-7.639288902E-3;-1.867701054E0
8.641146500E0;-4.453582466E-1;-9.986298084E-1;-3.876686096E-3
8.659187638E0;9.962159395E-1;3.573280573E-1;-1.634210587E0
8.677230179E0;-1.103653312E-1;1.470903158E-1;2.415084839E-2
8.695272171E0;7.757281512E-2;-1.067428112E0;1.314909935E0
8.713314469E0;-1.532148123E-1;1.697223186E-1;5.312452316E-1
8.731347061E0;-1.080442786E0;1.188827634E0;-9.404516220E-1
8.749394608E0;-9.789143801E-1;1.953756809E-2;4.800004959E-1
8.767443436E0;-7.119415402E-1;-7.023988962E-1;4.703073502E-1
8.785482132E0;-8.854364753E-1;5.677052736E-1;-9.648780823E-1
8.803523574E0;2.451868206E-1;-2.832150459E-1;1.415443420E0
8.821559342E0;-8.200618029E-1;-2.350021362E0;3.521018028E0
8.839607804E0;9.649189711E-1;-5.028157234E-1;2.318722725E0
8.857649918E0;9.283343554E-1;5.203542709E-1;-3.244416237E0
8.875691300E0;6.846475601E-1;-4.154316902E0;-2.040493488E0
8.893733780E0;-2.232955992E-1;-2.541134357E-1;1.506443024E-1
8.911775895E0;2.046968639E-1;-1.377423763E0;-1.426413536E0
8.929818070E0;-1.000547409E0;-2.463099718E0;1.751296043E0
8.947859574E0;-2.656263709E-1;9.085390568E-1;-2.416591644E-1
8.965901322E0;-2.095990777E-1;-8.662969470E-1;-2.609586716E-1
8.983941299E0;4.899629354E-1;-8.259948492E-1;7.335281372E-1
9.001988052E0;-6.645272374E-1;-1.436345220E0;1.176114082E0
9.020027053E0;1.315135241E0;-1.113390923E-2;9.981422424E-1
9.038069535E0;1.651067883E-1;-1.895738840E0;-2.452211380E-1
9.056111466E0;7.510815561E-2;-2.355914593E0;2.762285233E0
9.074153824E0;1.010880709E0;-3.110311031E-1;-5.462503433E-1
9.092190628E0;9.526180029E-1;3.192636967E-1;4.850769043E-1
9.110241836E0;-5.930213928E-1;-8.918023109E-2;-5.649061203E-1
9.128278152E0;1.177189231E0;-2.075626373E0;-1.458117485E0
9.146324356E0;-5.861852169E-1;-8.671224117E-2;1.948116302E0
9.164363175E0;-4.739717543E-1;-2.396296263E-1;2.157187462E0
9.182405472E0;7.356079221E-1;5.015753508E-1;2.462759018E-1
9.200447464E0;-1.015431166E0;1.485715032E0;-3.618976593E0
9.218489456E0;-3.506621420E-1;2.228722572E-1;2.737331390E-2
9.236530960E0;4.355899394E-1;1.086131454E0;2.846546173E-1
9.254573136E0;-9.986440539E-1;-1.876682997E0;1.829377174E0
9.272612259E0;3.096910119E-1;1.552812099E0;2.367698669E0
9.290660416E0;1.030216098E0;7.924702168E-1;-3.302614212E0
9.308694229E0;2.920880616E-1;-1.032753944E0;-2.934043884E0
9.326741227E0;-4.257567525E-1;-5.337041616E-1;-1.235350609E0
9.344778275E0;1.496417046E0;-1.671593428E0;2.703477859E0
9.362822464E0;-8.254315853E-1;-9.525717497E-1;3.077354431E0
9.380869766E0;7.797503471E-2;4.127210379E-1;1.608743668E-1
9.398909134E0;1.381977797E0;1.292334795E-1;-2.018627644E0
9.416950882E0;-1.385331631E0;1.199502826E0;-1.666604042E0
9.434993119E0;-1.934283674E-1;5.072294474E-1;3.262057304E0
9.453034805E0;-4.166594148E-1;1.514732838E-1;9.044818878E-1
9.471076920E0;-4.450893998E-1;-1.768534780E0;1.943178177E-1
9.489109513E0;-7.117024660E-1;-5.251436234E-1;2.761400223E0
9.507158462E0;2.093134165E0;3.691774607E-1;3.209524155E-1
9.525205216E0;3.085714579E-1;8.819890022E-2;-1.379864693E0
9.543244889E0;1.185130596E0;1.994887352E0;-4.855696678E0
9.561276322E0;-1.109515429E0;-2.853105783E0;-1.491140366E0
9.579329056E0;-5.932337046E-1;-3.115227222E-1;5.062127113E0
9.597370560E0;-2.978032827E-2;-1.261641979E-1;6.420440674E-1
9.615412674E0;4.789137840E-2;2.104830027E0;-1.455373764E0
9.633454667E0;-8.883447051E-1;-9.370835423E-1;-3.443099499E0
9.651496720E0;1.204697013E0;-5.413626432E-1;2.381327629E0
9.669538285E0;-1.216116250E-1;-6.478418112E-1;1.016062737E0
9.687580460E0;-9.024780989E-2;-1.464610815E0;5.309570312E0
9.705622513E0;2.119813442E0;1.396245241E0;-1.964937210E0
9.723664810E0;4.454168081E-1;-3.886368275E0;-1.879271507E0
9.741706192E0;4.850195646E-1;1.647438645E0;-7.070293427E-1
9.759748551E0;1.134735584E0;-1.651938558E0;-1.699296474E0
9.777790177E0;-7.594060302E-1;-2.025896788E0;3.854109764E0
9.795828506E0;-5.662551522E-1;-6.876093149E-1;-6.324176788E-1
9.813877517E0;-4.515141249E-2;-2.284105301E0;-3.272886276E-1
9.831917374E0;-2.907794714E-1;-7.242586017E-1;-9.106311798E-1
9.849958451E0;3.856008649E-1;-1.364354849E0;1.171572685E0
9.867984879E0;1.972460747E-2;-1.440216303E-1;1.827371597E0
9.886039871E0;-1.216473937E0;-7.735715508E-1;-1.562057495E0
9.904086624E0;-1.203704476E0;1.485557795E0;-1.044533730E0
9.922126236E0;-7.228114009E-1;1.803737879E-1;-1.211478233E0
9.940168228E0;-4.577030838E-1;-6.545885205E-1;3.172060966E0
9.958209854E0;6.535975933E-1;3.597423553E0;4.230480194E-1
9.976252152E0;1.895444393E-1;-1.289601088E0;-2.592132568E0
9.994294388E0;-1.010031819E0;-1.135616541E0;-8.358955383E-1
1.001232436E1;5.159944296E-1;4.743281603E-1;8.243684769E-1
1.003037599E1;-3.520113826E-1;2.618098259E-1;1.063269615E0
1.004841811E1;-1.093364716E0;1.195651770E0;-1.723383427E0
1.006646217E1;-1.114983857E-1;-9.449767470E-1;2.473669052E-1
1.008450435E1;-1.042194128E0;1.174332857E0;-7.634868622E-1
1.010254579E1;3.015917540E-2;-6.444331408E-1;-1.348726273E0
1.012057607E1;-2.330337048E0;-1.128773808E0;7.126813889E0
1.013862502E1;2.085159302E0;3.871294975E0;-7.065372467E-1
1.015666011E1;-2.901805162E0;6.491053104E-1;-3.579315186E0
1.017471230E1;1.083194494E0;1.369119644E0;-2.431009769E0
1.019275703E1;-1.078518033E0;-7.542212605E-1;9.397640228E-1
1.021079787E1;-4.795244038E-1;-1.669454575E-2;1.802458763E0
1.022883998E1;-5.186230540E-1;-1.623244762E0;1.283174515E0
1.024688130E1;4.906841516E-1;1.197280765E0;-1.025397301E0
1.026492354E1;-1.294128656E0;-2.222465277E-1;-3.725766659E0
1.028296578E1;-6.492812037E-1;-1.572810173E0;2.751128197E0
1.030100777E1;1.714605570E0;4.311833382E0;-5.375289440E0
1.031904945E1;-1.074643016E0;-2.742451191E0;4.550323486E-1
1.033709126E1;-3.080403090E0;-1.174165130E0;4.614280701E0
1.035513350E1;1.474858522E-1;1.980124831E0;-1.826610565E0
1.037317598E1;-1.971536279E-1;-3.323285580E0;-1.239116669E0
1.039120827E1;-1.210456133E0;-3.536174297E0;6.211187363E0
1.040925893E1;2.159788370E0;1.531860590E0;3.784749031E0
1.042730196E1;-6.287375689E-1;1.662270665E0;-1.918442726E0
1.044534370E1;-5.178528428E-1;-1.634543896E0;-7.115106583E-1
1.046338521E1;-1.376856804E0;1.861763000E-2;-5.354251862E-1
1.048142720E1;-1.186500192E-1;-2.939677238E-2;7.593355179E-1
1.049946895E1;-5.174989700E-1;2.530920029E0;-2.250659943E0
1.051751143E1;-9.024885893E-1;5.637471676E-1;-6.275428772E0
1.053555263E1;-4.602904916E-1;-1.997917414E0;4.039983749E0
1.055359340E1;-9.025573730E-3;-7.418310642E-2;9.032317162E0
1.057163893E1;1.404029131E-2;-5.571000576E-1;-6.186752319E-1
1.058967946E1;2.173156023E0;6.434360981E0;9.318656921E-1
1.060772084E1;-2.186517119E-1;-4.317127228E0;-1.138214111E0
1.062576314E1;-9.978652000E-1;1.977708578E0;8.866786957E-2
1.064380428E1;-6.905485392E-1;8.050776720E-1;-4.737213612E0
1.066184798E1;1.596160531E-1;-9.742697477E-1;1.977894783E0
1.067988838E1;1.186261535E0;1.308349252E0;7.511358261E-1
1.069792879E1;2.351049781E-1;-2.134172201E0;-1.780010223E0
1.071597463E1;-9.772830009E-1;-1.787619114E0;2.873510361E0
1.073401485E1;8.143970966E-1;-6.689799428E-1;3.590676308E0
1.075205684E1;1.609767437E0;7.562646866E-1;-1.285558701E0
1.077008693E1;-2.363948822E-1;-4.545320272E-1;-3.199570656E0
1.078814076E1;6.506830454E-1;3.989685059E0;-3.585425377E0
1.080618288E1;-7.194030285E-1;-2.321097374E0;3.658451080E0
1.082422426E1;2.534641623E-1;2.020654440E0;1.770481110E0
1.084226650E1;1.835594773E-1;1.509416223E0;-5.109556675E0
1.086030855E1;9.997314811E-1;1.398601294E0;-2.145236492E0
1.087834718E1;-1.096063375E0;1.345838308E-1;4.215593338E-1
1.089639217E1;1.042004824E0;-2.408311605E0;1.694322586E0
1.091441951E1;-7.592239976E-2;-1.284586668E0;-6.217288971E-2
1.093247353E1;-3.712755740E-1;-6.794062853E-1;2.371624947E0
1.095052119E1;6.787171364E-1;3.135187626E-1;1.677373886E0
1.096856001E1;-1.911354959E-1;5.646399260E-1;-2.730569363E0
1.098660225E1;-2.681269348E-1;-2.729545832E-1;-8.699951172E-1
1.100464430E1;-2.017193139E-1;9.904962778E-1;-2.964820385E0
1.102268642E1;-1.046525836E0;-1.954903126E0;2.282216072E0
1.104072157E1;9.276634455E-2;-8.460333943E-1;3.472988129E0
1.105875801E1;6.648911238E-1;2.126076221E0;-8.451375961E-1
1.107681215E1;-7.783119678E-1;1.126344442E0;-1.529076576E0
1.109485426E1;-2.902338505E-1;-2.028356552E0;-1.276418686E0
1.111289595E1;-3.588584960E-1;-3.531162739E-1;1.817243576E0
1.113093794E1;8.671929240E-1;1.779344797E0;2.110912323E0
1.114898018E1;4.398609996E-1;1.404328942E0;-2.907077789E0
1.116702242E1;-1.183579922E0;7.276062965E-1;-2.724754810E0
1.118506361E1;-1.082212806E0;3.464198112E-1;-1.541261673E-1
1.120310567E1;-5.400398374E-1;-2.320994854E0;4.731361389E0
1.122114925E1;-2.261376977E-1;2.823584080E-1;2.234391212E0
1.123918886E1;6.621155739E-1;1.128551245E0;-2.336627007E0
1.125723134E1;-9.497567415E-1;-2.820113659E0;-1.961933136E0
1.127527388E1;-1.957601190E0;-6.892844439E-1;-6.243782043E-1
1.129330800E1;1.508066654E-1;-1.215530396E0;1.122361183E0
1.131135603E1;-1.621814370E-1;-8.160973787E-1;1.693687439E-1
1.132940120E1;-2.762560844E-1;-1.198951006E0;-1.065874100E-1
1.134744160E1;-2.150977254E-1;2.736961842E-2;7.931938171E-1
1.136548335E1;1.063532233E-1;-2.224180698E-1;-1.126035690E0
1.138352583E1;-1.101643324E0;-1.798577309E0;7.078866959E-1
1.140156734E1;2.035135031E-2;3.729512691E0;-6.932071686E0
1.141960933E1;-1.335772753E0;-3.356515408E0;-1.372813225E0
1.143763936E1;-8.480919600E-1;-1.660666943E0;5.001233101E0
1.145569350E1;1.039833069E0;2.572340488E0;1.216212273E0
1.147373512E1;-1.101750731E-1;1.226536155E0;1.187792778E0
1.149177730E1;-2.006417513E0;-1.495862722E0;-2.327661514E0
1.150981898E1;-2.045502186E0;-1.429282665E0;1.091706276E0
1.152786159E1;-4.994089007E-1;7.243347168E-1;2.465705872E0
1.154590273E1;-3.402568698E-1;8.067348003E-1;-5.652456284E-1
1.156394392E1;-1.010669827E0;6.024805307E-1;-8.613796234E-1
1.158198805E1;-1.320244074E0;4.045383930E-1;-1.289233208E0
1.160002925E1;-1.933109045E0;-2.309627295E0;3.386480331E0
1.161807082E1;-3.034272790E-1;1.828058124E0;-1.690702438E-1
1.163611195E1;-2.519331574E-1;7.143119574E-1;-2.282756329E0
1.165415590E1;-1.705185890E0;-5.001111507E0;2.300634384E-1
1.167218098E1;-8.008685112E-1;1.440054178E0;-2.013959885E-1
1.169023842E1;2.263945341E-1;1.670665860E0;5.236034393E-1
1.170828389E1;-2.018041849E0;-5.705882311E-1;3.789084435E0
1.172632271E1;-6.651267409E-1;7.631959915E-1;-2.195682526E0
1.174436244E1;-1.386098862E0;-1.357625008E0;1.035646439E0
1.176240889E1;-4.787329435E-1;4.611527920E-1;-1.317615509E-1
1.178044844E1;-8.851304054E-1;-1.752902627E0;-1.459751129E0
1.179849043E1;-8.746601343E-1;-2.705002308E0;1.771240234E0
1.181652681E1;-1.345093250E-1;-1.280279994E0;1.685783386E0
1.183457192E1;-1.077342033E-1;-1.838951111E-1;3.159334183E0
1.185261861E1;-4.607772827E-2;1.452937484E0;-1.652678013E0
1.187065840E1;-1.926258087E0;-9.660191536E-1;-7.261466980E-1
1.188870070E1;-1.574489474E0;-1.181337595E0;3.994140625E-1
1.190674214E1;-2.058489323E-1;1.768500686E0;6.053085327E-1
1.192478432E1;-5.474755764E-1;2.407499552E-1;2.532279968E0
1.194282613E1;-1.447059035E0;4.058207273E-1;-3.671379089E-1
1.196086934E1;-6.182520390E-1;2.337834358E0;-3.827123165E0
1.197890956E1;-1.822816968E0;2.448581457E-1;-3.731417179E0
1.199695210E1;-3.268375397E0;-5.676325798E0;1.295486450E0
1.201499410E1;3.399952650E-1;-1.268234372E0;4.277084351E0
1.203303639E1;1.282946825E0;9.695529938E-1;3.505653381E0
1.205107777E1;8.778862953E-1;-2.995630503E-1;-1.955051422E-1
1.206912007E1;-1.742592335E0;1.013888836E0;-3.888786316E0
1.208716182E1;-1.638891697E0;-1.394699693E0;-2.771682739E-1
1.210520406E1;-6.209319830E-1;2.875444889E-1;2.758870125E0
1.212324550E1;1.200945377E-1;2.476224422E0;-9.402341843E-1
1.214128755E1;1.920636892E-1;3.728532314E0;-7.380715847E0
1.215932979E1;-1.710471988E0;-4.043347359E0;9.818611145E-1
1.217737178E1;-3.656365871E-1;-2.213536501E0;7.449799538E0
1.219541402E1;3.642158508E-1;7.219439745E-1;2.454531670E0
1.221345259E1;1.184484839E0;-4.725492001E-2;2.654666901E-1
1.223150038E1;7.141349316E-1;-3.261815310E0;-1.564602852E0
1.224953981E1;8.074973822E-1;3.918123484E0;-4.806195736E0
1.226758144E1;-1.795629501E0;6.236938238E-1;-4.439730644E0
1.228562324E1;-2.586606503E0;-1.623543501E0;2.493745804E0
1.230366548E1;-6.190538406E-4;-3.508768082E-1;1.379241943E-1
1.232170778E1;6.507527828E-1;-7.730066776E-2;3.745822906E-1
1.233974013E1;9.063565731E-2;-1.832068324E0;3.188420296E0
1.235778877E1;1.034785628E0;5.173046589E-1;3.766345978E-1
1.237583559E1;4.960313439E-1;-1.831765175E0;-1.806539059E0
1.239387459E1;-9.049162269E-1;2.777191162E0;-1.058085442E0
1.241191780E1;-5.741667151E-1;3.892935753E0;-1.876075745E0
1.242995924E1;-5.390342474E-1;-1.703525305E0;2.277626038E0
1.244800111E1;1.798313856E-2;-3.536630869E-1;-7.131452560E-1
1.246604341E1;3.956929445E-1;3.121984005E-2;-1.704120159E0
1.248407271E1;5.788210630E-1;-9.148560762E-1;-8.257627487E-1
1.250212709E1;-1.233636141E-1;-4.079011917E0;-9.680376053E-1
1.252016902E1;-2.296051979E-1;-2.067851067E0;3.781761169E0
1.253821083E1;1.345758438E0;1.629151106E0;1.238483429E0
1.255625118E1;8.353116512E-1;9.120254517E-1;-1.335470200E0
1.257429506E1;-7.972629070E-1;5.096546412E-1;-2.526288986E0
1.259233809E1;-4.755821824E-1;2.443459034E-1;-1.063528061E-1
1.261037892E1;7.513388991E-1;-1.920108199E0;3.157367706E0
1.262841689E1;4.410177469E-1;5.561835766E-1;7.917318344E-1
1.264646278E1;1.098770976E0;3.036365509E-1;-6.482582092E-1
1.266450465E1;1.000561714E-1;-1.262869954E0;-2.754201889E-1
1.268254683E1;-1.333926022E-1;-1.255788565E0;-2.629175186E-1
1.270058833E1;9.214893579E-1;-1.155757904E0;2.155468941E0
1.271861861E1;5.768103600E-1;-3.290148973E-1;-2.329282761E-1
1.273667226E1;7.822883129E-1;-5.480984449E-1;1.210747719E0
1.275471480E1;6.371092796E-1;1.155627012E0;-3.122624874E0
1.277275624E1;-9.438426495E-1;-1.031396508E0;-1.510381699E0
1.279079738E1;-5.713539124E-1;-1.389676809E0;1.386130333E0
1.280884151E1;1.142128229E0;-7.953500748E-2;5.359458923E-1
1.282688252E1;1.964232326E0;1.400736094E0;-1.914008141E0
1.284492397E1;-5.525928736E-1;-2.739795923E0;-1.485897064E0
1.286296046E1;-8.073192835E-1;-1.434444189E-1;1.226278305E0
1.288100514E1;7.526642084E-1;1.278891563E-1;-4.064464569E-2
1.289905336E1;4.954780340E-1;-2.035561800E-1;1.222042084E0
1.291709193E1;6.411409378E-2;7.478213310E-2;-9.646358490E-1
1.293513417E1;3.422462344E-1;-1.382436752E-1;9.832572937E-1
1.295317629E1;-4.453521669E-1;-1.030318499E0;1.288949013E0
1.297121144E1;-8.912061155E-2;1.213579774E0;2.142123222E0
1.298925966E1;8.740172982E-1;1.707195640E0;-1.039191246E0
1.300729024E1;-6.905075312E-1;-6.168103218E-2;-1.161744118E0
1.302534389E1;-6.593425274E-1;1.988651752E-1;-1.466122627E0
1.304338649E1;-2.730279565E-1;-8.326920867E-1;1.450871468E0
1.306142763E1;4.825646281E-1;6.554317474E-2;-6.711931229E-1
1.307947017E1;-3.255790174E-1;-1.669277668E0;-1.950360775E0
1.309751192E1;-4.584053755E-1;1.706598997E-1;9.254217148E-1
1.311555415E1;-1.794862747E-1;-1.007292747E0;1.572509766E0
1.313359560E1;5.137078762E-1;-2.149517536E0;4.982487679E0
1.315163802E1;1.044800878E-2;2.184004307E0;7.201194763E-1
1.316967976E1;-6.716281176E-2;1.351045609E0;-2.755121231E0
1.318772200E1;-9.599804282E-1;-1.817246556E0;-2.010220051E0
1.320576357E1;-6.379268169E-1;-6.671442986E-1;3.958072662E-1
1.322380501E1;7.378381491E-1;-4.745185375E-1;7.134056091E-1
1.324183925E1;2.733787894E-1;-1.060843825E0;-2.364349365E-1
1.325988979E1;2.129285634E-1;-1.451978683E0;6.491947174E-2
1.327793135E1;-8.088603020E-1;-1.304418802E0;-2.737312317E-1
1.329597359E1;-6.738538742E-1;-9.058967829E-1;-8.712291718E-1
1.331401558E1;4.381921291E-1;-8.550714850E-1;4.203157425E-1
1.333205977E1;-5.876960754E-1;-5.294888020E-1;1.711799622E0
1.335009730E1;6.159105897E-1;3.083086967E0;-5.265092850E-1
1.336814162E1;-1.175661802E0;1.825956106E-1;-3.162561893E0
1.338617964E1;-1.765688777E0;6.403731108E-1;-1.336158752E0
1.340422432E1;-1.016894341E0;-1.985846043E0;1.371641159E-1
1.342226875E1;3.179460764E-1;-9.255748391E-1;-6.482248306E-1
1.344030946E1;7.251799107E-2;-1.328303814E0;1.056016922E0
1.345834786E1;1.720246673E-1;-2.203261852E0;2.771035194E0
1.347639082E1;2.748538852E-1;-1.896965265E0;-2.333374023E-1
1.349443794E1;-5.083529353E-1;-6.881085634E-1;1.167516708E-1
1.351247719E1;2.010862827E-1;2.830442190E-1;-1.796493530E-1
1.353050856E1;4.087746143E-3;-6.321426630E-1;-7.585163116E-1
1.354856142E1;-7.844626904E-3;9.372887611E-1;-9.643640518E-1
1.356660310E1;-8.966199160E-1;-5.453273058E-1;3.578789711E0
1.358464516E1;-1.819952130E-1;3.845485926E0;-1.488392830E0
1.360268715E1;-5.487373471E-1;-5.316517353E-1;-4.624080181E0
1.362072951E1;-1.288517118E0;-3.144645691E0;-3.124777317E0
1.363877065E1;-2.032479286E0;-1.127518177E0;1.139326096E0
1.365681270E1;7.120318413E-1;-1.154978037E0;4.983778954E0
1.367485494E1;6.065222025E-1;1.148985624E0;1.768829346E0
1.369289742E1;6.327800751E-1;2.331816435E0;-2.588131428E0
1.371093868E1;-9.313051105E-1;-7.203627825E-1;-2.769004822E0
1.372898091E1;-2.219138622E0;-9.790354371E-1;1.426658630E-1
1.374702315E1;-6.821908951E-1;4.548747540E-1;1.003361702E0
1.376505318E1;1.177063465E0;-8.360723853E-1;1.366353989E0
1.378310689E1;6.515721679E-1;5.104116201E-1;-1.007324219E0
1.380114888E1;-4.197679162E-1;1.464638710E-1;-1.869196892E0
1.381919057E1;-1.886822462E0;-1.759153128E0;1.244570732E0
1.383723018E1;7.986792922E-1;-1.167669773E0;1.341975212E0
1.385527754E1;3.645356894E-1;-2.622180700E0;-7.821483612E-1
1.387331691E1;5.415194631E-1;8.825430870E-1;1.717529297E-1
1.389135878E1;2.681587934E-1;5.656775236E-1;5.837621689E-1
1.390939626E1;-9.718173742E-1;1.196517587E0;-1.102728844E0
1.392743953E1;-1.506408930E0;4.931076765E-1;-2.437906265E-1
1.394547615E1;2.259922028E-2;-4.639185429E0;6.652513504E0
1.396352681E1;6.531184912E-1;1.875683427E0;1.785105705E0
1.398156874E1;-5.530388951E-1;8.651686907E-1;-5.333713055E0
1.399961055E1;-1.628882885E0;-4.202229023E0;-1.730455399E0
1.401765254E1;-1.313625097E0;-9.223774672E-1;9.401292801E-1
1.403569460E1;7.424557209E-1;9.501305819E-1;4.098491669E-1
1.405373647E1;-4.714881182E-1;4.641621113E-1;1.082304001E0
1.407177846E1;2.713112831E-1;1.420210004E0;-7.636947632E-1
1.408982057E1;-1.932644129E0;-9.718207121E-1;-1.599029541E0
1.410786250E1;-1.030735373E0;-2.336801291E-1;-1.065892220E0
1.412590474E1;-5.639193058E-1;1.792372346E0;-3.920221329E-1
1.414394514E1;-3.238720298E-1;-3.204592705E0;3.641826630E0
1.416198976E1;-1.195732355E-1;-1.256456137E0;1.419353485E0
1.418003053E1;-2.190369368E-1;-1.537111998E-1;8.878707886E-3
1.419807252E1;-1.477683306E0;-1.606423736E0;1.414913177E0
1.421611409E1;-1.215294838E0;-6.225216985E-1;-1.194664001E0
1.423415529E1;-1.067024946E0;-1.610080123E0;4.156651497E0
1.425219923E1;-1.680725813E-1;8.215008736E0;-3.193121910E0
1.427024086E1;-2.134756088E0;2.444364548E0;-7.004262924E0
1.428828883E1;-2.283935070E0;-5.614177704E0;-1.957982063E0
1.430632436E1;-1.815789700E0;-3.837999105E-1;1.656799316E0
1.432436635E1;4.801304340E-1;-1.822053194E-1;1.911440849E0
1.434240871E1;2.089285851E-2;1.348518610E0;4.532252312E0
1.436045015E1;8.784579039E-1;1.295740485E0;-2.655263901E0
1.437849208E1;-1.642048359E0;-1.371896386E0;-1.051089287E0
1.439653438E1;-2.956525803E0;-5.333379507E-1;7.123584747E-1
1.441457662E1;-1.056892276E0;-7.006108165E-1;4.123908043E0
1.443261794E1;2.711877823E-1;-2.378206253E-1;2.516240120E0
1.445065633E1;1.042620540E0;6.934736729E0;-9.290227890E0
1.446870583E1;-1.581453800E0;-3.747169018E0;-4.182818890E0
1.448674147E1;-1.773819804E0;-6.693991661E0;9.150283813E0
1.450478896E1;5.646021366E-1;-6.164463043E0;1.068191528E-1
1.452282808E1;8.849499226E-1;1.859447241E0;5.615095139E0
1.454087007E1;-2.188718319E-1;8.817392588E-1;-7.719211578E-1
1.455891255E1;3.935021162E-1;-4.212154865E0;5.719787598E0
1.457695351E1;-1.384198666E-1;2.747534513E0;8.653354645E-2
1.459499550E1;-1.762731791E0;5.891711712E-1;-5.121062756E0
1.461303859E1;-2.690618515E0;7.172733545E-1;4.725166321E0
1.463108034E1;1.000759482E0;2.057895184E0;-1.469440460E0
1.464912202E1;-7.847661376E-1;1.519523978E0;8.202190399E-1
1.466716371E1;-2.027510643E0;-4.320943356E0;5.760548592E0
1.468520601E1;-1.167389750E0;-1.329540610E0;3.631943703E0
1.470324831E1;1.420648813E0;-3.239449263E-1;-1.999743462E0
1.472128969E1;-5.341668725E-1;3.228397369E0;-1.126073360E1
1.473933144E1;-9.133048058E-1;-8.069073677E0;2.667374611E0
1.475737404E1;4.574415684E-1;-7.600920796E-1;5.268902779E0
1.477541628E1;-3.523903489E-1;3.547887802E-1;9.904861450E-3
1.479345766E1;2.142401934E-1;-1.545040846E0;2.214650154E0
1.481149971E1;-7.172179222E-2;2.875161171E0;-7.936762333E0
1.482954189E1;-1.002261281E0;-4.630843163E0;-1.292678833E0
1.484758400E1;-2.197572708E0;-1.104046822E0;4.764803886E0
1.486562569E1;9.485006332E-2;-9.557459950E-1;1.422001839E0
1.488366859E1;2.695463896E-1;6.728655100E-1;5.735950470E-1
1.490170869E1;-1.017809987E0;-4.401965141E-1;-5.217076778E0
1.491975197E1;-1.108505607E0;-1.237363219E0;-2.008156776E0
1.493779317E1;-2.230571747E0;-1.022203326E0;3.205096245E0
1.495582442E1;1.124242067E0;-8.739471436E-1;1.521181107E0
1.497387483E1;1.216992140E0;1.627175331E0;2.010226250E0
1.499192238E1;1.282492638E0;-4.388190508E-1;-1.542129517E0
1.500996138E1;-1.334158659E0;1.925568819E0;-2.667624474E0
1.502800362E1;5.283692479E-1;-1.063629389E0;-9.074247360E0
1.504604567E1;-4.537872314E0;7.578315735E-1;6.927760124E0
1.506408662E1;1.653868914E0;-3.646990299E0;8.978262901E0
1.508213026E1;3.999347687E0;1.488951921E0;-2.892088413E0
1.510017128E1;1.061370373E-1;1.917698264E0;-6.153669357E-1
1.511821498E1;-8.778777719E-1;-1.013371706E0;-3.945026398E0
1.513625398E1;-1.877834797E0;2.939724922E-2;4.352267265E0
1.515429701E1;9.325185418E-1;6.449648142E-1;-3.790406227E0
1.517233925E1;5.788673759E-1;-2.687640190E-1;-7.597665787E-1
1.519038142E1;-1.050569057E0;-8.491142988E-1;3.472936630E0
1.520842012E1;-1.391553879E-2;1.613298535E0;8.553323746E-1
1.522646498E1;3.221099377E-1;9.697920084E-1;-1.361968994E0
1.524450704E1;-1.377635241E0;-2.366012812E0;-2.510213375E0
1.526254952E1;2.858913839E-1;7.721984386E-2;-2.210660458E0
1.528058083E1;5.792201757E-1;2.648743153E0;-3.913650513E-1
1.529863271E1;1.866940022E0;1.156526804E-1;1.080971718E0
1.531667525E1;5.264225602E-1;3.652545214E-1;-4.290359974E0
1.533471694E1;7.793294191E-1;-4.930642605E0;4.184188843E-1
1.535275929E1;-6.091305614E-1;-2.742145061E-1;4.401034355E0
1.537080074E1;1.998316169E0;2.164468050E0;2.253079414E0
1.538883833E1;2.115042448E0;-5.114226341E-1;6.003103256E-1
1.540688484E1;-7.380462885E-1;4.261803627E-1;-4.322353840E0
1.542492738E1;2.346280515E-1;-9.198909402E-1;-2.053089142E-1
1.544296864E1;4.387318492E-1;-8.431540728E-1;-6.372480392E-1
1.546101088E1;2.179164648E0;-4.015365124E0;4.625670433E0
1.547903804E1;6.885024905E-1;-9.079220891E-1;7.368928909E0
1.549709212E1;5.411874294E0;5.807361603E0;-6.163075447E0
1.551513924E1;-8.606555462E-1;-1.907987595E0;-9.695752144E0
1.553317861E1;-1.323581815E0;-2.990402460E0;3.498516083E-1
1.555122072E1;9.365620464E-2;-1.495770335E0;-1.161223412E0
1.556926314E1;2.171547651E0;-6.955126762E0;7.964415550E0
1.558730434E1;2.680305243E0;5.198824883E0;8.414192200E-1
1.560534670E1;1.654332042E0;2.502465010E0;-4.698289394E0
1.562337636E1;-9.583305120E-1;-3.726160526E0;5.958243370E0
1.564142684E1;1.139276028E-1;-2.270579815E0;1.441059017E1
1.565947640E1;2.313598633E0;-4.196420908E-1;-3.440944195E0
1.567751466E1;8.650978804E-1;-1.504759669E0;8.772121429E0
1.569555647E1;3.480899334E0;1.276145458E0;-2.270397186E0
1.571359865E1;6.310843825E-1;5.876330853E0;-7.955359936E0
1.573164009E1;-3.537703753E-1;-4.844431400E0;1.846282959E0
1.574968227E1;1.245531797E0;-3.354752302E0;1.823039055E0
1.576772438E1;2.997384548E0;1.030991077E0;2.325458527E0
1.578576650E1;1.933443189E0;-9.445909858E-1;2.666839600E0
1.580380727E1;1.286030054E0;2.310021877E0;-1.342353821E0
1.582185115E1;5.153941512E-1;1.734489441E0;-3.897735596E0
1.583989253E1;-6.524454355E-1;-1.268815160E0;8.953733444E-1
1.585793068E1;6.773485541E-1;-2.173204422E0;1.540657997E0
1.587597597E1;1.492335200E0;1.810845971E0;2.224284172E0
1.589401698E1;2.195184231E0;3.322650909E0;1.437310219E0
1.591206148E1;7.834329009E-1;-1.598372459E0;-2.188109875E0
1.593010249E1;-4.447401762E-1;8.689868450E-2;-4.117165089E0
1.594814400E1;-8.629691005E-1;-2.285239458E0;4.291915894E-2
1.596618623E1;1.288149595E0;-8.077739477E-1;2.963240623E0
1.598422798E1;2.169184685E0;1.563509107E0;-2.239513397E0
1.600225832E1;1.176162362E-1;2.956585407E0;-5.070428848E0
1.602030989E1;-1.170280576E0;-6.412808418E0;-5.426530838E-1
1.603835231E1;-5.655896664E-2;1.968306422E0;1.357401848E0
1.605639595E1;1.178099632E0;2.853792667E0;-6.657829285E-1
1.607443819E1;7.186311483E-2;1.159320474E0;5.390176773E-1
1.609247963E1;-1.178616285E-2;-5.481274128E-1;-1.043991089E0
1.611052193E1;-9.373499155E-1;-3.827142000E0;3.640080452E0
1.612856374E1;1.179619193E0;2.305598259E-1;2.307739258E0
1.614660585E1;8.624129295E-1;-7.910716534E-2;-1.012069702E0
1.616464510E1;7.426577806E-2;-1.063058138E0;4.588851929E-1
1.618269246E1;5.413067341E-2;-2.699559450E0;-2.412348747E0
1.620072188E1;-1.256182075E0;1.688674688E-1;-2.882347107E-1
1.621876906E1;9.738312662E-2;1.790179014E0;-3.087295532E0
1.623681532E1;-6.304915547E-1;-6.617485881E-1;-2.713436604E0
1.625485762E1;-9.166190624E-1;-5.109469414E0;-3.999328613E-1
1.627289961E1;1.893817186E-1;4.648206711E0;2.190561295E-1
1.629094185E1;-1.961778402E-1;-2.272128105E0;5.152680397E0
1.630898329E1;-2.742694020E-1;9.984861612E-1;1.420331955E0
1.632702565E1;-3.422621489E-1;2.083629370E0;-3.787116051E0
1.634506758E1;-4.656360149E-1;-2.468249798E-1;2.178812027E-1
1.636310982E1;-1.301002383E0;-7.268083096E-2;7.313823700E-1
1.638115102E1;4.715388119E-1;-6.492349625E0;6.819992065E0
1.639919362E1;2.425197065E-1;-1.746350765E0;6.748338699E0
1.641723524E1;1.900227308E0;3.556869030E-1;-2.407753944E0
1.643527785E1;-2.733345628E-1;-4.814707279E0;-2.952454090E0
1.645331972E1;-2.228982210E0;-1.262445569E0;-1.530472755E0
1.647136104E1;-2.133697569E-1;-7.618610263E-1;6.792545319E-2
1.648940352E1;-2.140915096E-1;-8.082479239E-1;2.515153885E0
1.650744582E1;1.543895245E0;3.090855360E0;-1.479318619E0
1.652549019E1;-7.095179558E-1;3.564516068E0;-5.551068306E0
1.654352644E1;-1.361263871E0;-5.524133682E0;-1.099935055E1
1.656157448E1;-3.165903330E0;4.558602810E0;1.027445793E0
1.657961354E1;3.879584670E-1;-4.312945843E0;9.808800697E0
1.659765517E1;3.080113649E0;-8.695403934E-1;2.096268654E0
1.661569716E1;7.483301163E-1;-6.935513020E-2;-4.141254425E-1
1.663373952E1;-2.324846685E-1;-1.381341577E0;-2.483395100E0
1.665178175E1;-1.082215786E0;1.140168190E0;3.964465141E0
1.666982289E1;2.905036211E-1;-2.008400679E0;-8.733739853E-1
1.668786220E1;1.052912712E0;4.683667421E-1;1.782493591E-1
1.670591042E1;1.639875412E0;-1.832584381E0;-9.389657974E-1
1.672394850E1;-2.159298658E-1;-3.750314713E-1;-9.421968460E-1
1.674199184E1;-2.067023516E-2;-1.291664004E0;4.877004623E-1
1.676003310E1;6.520086527E-1;2.977200747E-1;6.341762543E-1
1.677807497E1;5.182416439E-1;-1.165313601E0;-2.524209976E0
1.679611739E1;-1.271726847E0;-2.931678295E-2;-8.604745865E-1
1.681415712E1;1.257441759E0;4.024541855E0;-1.299607277E0
1.683220082E1;-1.305293560E0;2.352247238E-1;5.798227310E0
1.685024348E1;-4.834194481E-1;3.590617180E0;-2.235356808E0
1.686828902E1;6.193334460E-1;2.487607956E0;-4.384728432E0
1.688632710E1;-7.869961858E-2;-6.697481871E-1;7.192659378E-1
1.690436415E1;-3.714013100E-1;1.046834946E0;9.947605133E-1
1.692241115E1;-1.453515887E-1;-2.093878984E0;2.421651840E0
1.694045332E1;1.494580030E0;4.644417763E-2;2.916564941E-1
1.695849477E1;1.029622793E0;-2.039703608E0;-1.848864079E0
1.697653706E1;3.601360321E-2;-1.153011322E-1;-4.366655827E0
1.699457906E1;-1.690250635E0;-3.533298016E0;1.282193184E0
1.701262154E1;1.536297798E-2;-2.731853485E0;5.648521423E0
1.703066280E1;9.560022354E-1;1.116513491E0;1.377019882E-1
1.704870485E1;6.691480875E-1;5.778455734E0;-6.369680405E0
1.706674678E1;-1.430244327E0;-2.236987352E0;-5.975873470E0
1.708478944E1;-1.678765178E0;2.643451691E-1;4.957761765E-1
1.710283076E1;-4.757993519E-1;8.365828991E-1;2.359713554E0
1.712086110E1;8.072153330E-1;-1.530524015E0;2.962501526E0
1.713891493E1;2.337838650E0;1.170352101E0;-1.969070435E-1
1.715695729E1;7.665272951E-1;-2.047158241E0;-6.035032272E-1
1.717499837E1;-6.059468985E-1;1.820083618E0;-3.994283676E0
1.719303835E1;-1.745407104E0;-4.984920025E0;1.579627991E0
1.721108412E1;-2.895395756E-1;-1.126465559E0;8.687980652E0
1.722912373E1;2.669401646E0;1.825444221E0;-7.445583344E-1
1.724716652E1;1.587856531E0;1.601569891E0;-9.153976440E-1
1.726520894E1;-5.512570143E-1;1.188158631E0;-3.586858273E0
1.728325069E1;-2.218041897E0;-3.949072361E-1;2.235830307E0
1.730129298E1;5.647909641E-2;3.486464977E0;-9.457607269E-1
1.731933430E1;7.515798807E-1;-5.032783747E-1;-1.646257401E0
1.733737648E1;1.179864168E0;-8.978664875E-2;9.956674576E-1
1.735541860E1;1.054469824E0;-1.832668781E-1;-1.955021381E0
1.737346089E1;-5.130897164E-1;-3.805595636E-1;-1.817007065E-1
1.739150246E1;-7.798298597E-1;-1.933029652E0;-2.746629715E-1
1.740954482E1;-3.506026268E-1;-1.091305971E0;4.134624481E0
1.742757423E1;9.929285645E-1;2.729060650E-1;1.433032990E0
1.744562892E1;1.092654824E0;2.002300501E0;-3.739595413E-1
1.746367030E1;-1.207078218E0;2.171890259E0;-2.367006302E0
1.748171254E1;-2.665648222E0;-1.065265894E0;4.620236397E0
1.749975447E1;1.123651564E-1;7.016522408E0;-4.756620884E0
1.751779677E1;1.237955093E0;1.787111759E-1;-6.111092091E0
1.753583827E1;2.046020031E-1;-3.588514805E0;3.021326065E-1
1.755387972E1;-1.207859516E0;-2.505603790E0;4.887234688E0
1.757192421E1;1.207888126E0;-3.261079073E0;5.046663284E-1
1.758996181E1;1.829388380E0;7.584037781E-1;3.775967598E0
1.760800905E1;8.141231537E-1;-1.887911320E0;-4.493703365E0
1.762604823E1;-6.589548588E-1;-5.970901251E-1;1.406875610E0
1.764409053E1;-6.646234989E-1;-3.432608366E0;-1.440279961E0
1.766213277E1;2.249763608E-1;-1.560309768E0;6.403635025E0
1.768017427E1;1.636736393E0;1.142390847E0;2.325646400E0
1.769821626E1;2.582349062E0;-2.375576973E0;-1.164854050E0
1.771625575E1;3.082138002E-1;-6.172419786E-1;-4.962626457E0
1.773430086E1;-9.325376749E-1;-3.637731552E0;-2.051453114E0
1.775234444E1;2.034446001E-1;-3.684605122E0;3.536744118E0
1.777038417E1;2.666820765E0;-8.797025681E-1;-1.264076233E-1
1.778842305E1;4.138441384E-2;-4.939596176E0;-2.589881420E0
1.780646877E1;2.824943066E-1;-1.165848851E0;1.778918266E0
1.782450990E1;5.102445483E-1;-3.947381973E-1;1.258835793E0
1.784255220E1;7.665619850E-1;2.682520151E-1;-5.308656693E-1
1.786059810E1;-3.888682723E-1;-3.997309208E-1;-3.699280262E0
1.787863319E1;4.121440053E-1;-2.814123631E-1;1.150218964E0
1.789668092E1;1.289112717E-1;-9.966089129E-1;9.216709137E-1
1.791472011E1;2.138283491E0;-2.051670313E0;1.716360092E0
1.793276241E1;7.544019222E-1;-3.092208624E0;1.948650360E0
1.795080281E1;3.473880291E-1;-1.344949365E0;5.372619629E-1
1.796884584E1;7.469372153E-1;-3.140461445E-2;8.466415405E-1
1.798688808E1;4.625505805E-1;-1.020483375E0;-4.330425262E-1
1.800493019E1;-2.516574860E-1;-2.661375523E0;-2.777452469E-1
1.802297243E1;-2.789514065E-1;-1.719391346E0;5.243110657E-1
1.804101375E1;1.887433529E-1;-6.656692028E-1;-1.240399361E0
1.805905586E1;5.963522792E-1;-4.411223412E0;2.273039818E0
1.807709816E1;6.323469281E-1;1.214917302E0;-1.107810020E0
1.809514003E1;1.584430575E0;2.447983742E0;-3.363166809E0
1.811317909E1;-6.926882267E-1;-2.395759106E0;2.683897018E-1
1.813122664E1;-1.397280693E0;-6.973814964E-2;4.162130356E-1
1.814926576E1;4.918970764E-1;-9.211587906E-2;7.033452988E-1
1.816730830E1;1.165338159E0;3.005146980E-3;7.248430252E-1
1.818534956E1;8.607804775E-1;-1.244497776E0;-2.060375214E-1
1.820339186E1;-1.542414904E0;-5.130676270E0;2.362492561E0
1.822143398E1;1.364761591E0;-4.372469425E0;4.418817520E0
1.823947578E1;1.662207603E0;-5.055590630E0;5.811997414E0
1.825751448E1;1.110752463E0;-4.985238910E-1;2.512351990E0
1.827556282E1;1.905360520E-1;-4.483901858E-1;-2.211179733E0
1.829360170E1;-9.709843397E-1;-8.353594542E-1;-3.802919388E-1
1.831164406E1;-1.057293177E0;1.619537950E0;-3.936019421E0
1.832968575E1;-1.899839938E-1;-1.508237362E0;-7.442065239E0
1.834772774E1;-2.044448614E0;-6.262178898E0;1.192664528E1
1.836576967E1;2.179386139E0;-1.404458284E0;1.172053623E1
1.838379945E1;2.075828075E0;-1.300864220E-1;-6.427612305E-1
1.840185127E1;-5.927430987E-1;1.668090820E-1;-3.652962208E0
1.841989876E1;-2.951442242E0;-1.885696054E0;-2.034509182E0
1.843793770E1;-1.458606124E0;1.462793231E0;-7.373237610E-2
1.845597987E1;5.438333750E-1;-1.820627451E-1;4.022026062E-1
1.847401149E1;1.857493520E-1;-2.323112965E0;2.647684097E0
1.849206410E1;2.533116579E0;4.131130219E0;-1.562877655E0
1.851010487E1;-1.443738699E0;-1.311079502E0;-5.127913475E0
1.852814772E1;-3.504179478E0;-2.329932690E0;-1.195011139E-1
1.854618916E1;-1.015287280E0;-5.088359118E-1;-6.173133850E-2
1.856423140E1;8.654125333E-1;-2.731727839E0;5.857864380E0
1.858227339E1;1.257869720E0;-1.463280559E0;2.801270485E0
1.860031563E1;7.464468479E-2;9.856729507E-1;-1.123353004E0
1.861835469E1;-2.230859995E0;-5.178836584E-1;-1.161644936E0
1.863639912E1;-1.908422709E0;-7.347957492E-1;-2.587934971E0
1.865444154E1;1.697126627E-1;1.415591717E0;-1.708143711E0
1.867248366E1;1.865371466E0;7.292611599E-1;-1.572744370E0
1.869052504E1;-3.180798590E-1;-2.821055889E0;1.254787445E-1
1.870856734E1;-5.377088189E-1;2.517378330E-1;5.261106491E-1
1.872660933E1;1.111828089E-1;1.754683256E-1;9.517478943E-1
1.874465163E1;-4.490677118E-1;2.452628613E-1;-1.042191505E0
1.876268038E1;-1.242682934E0;6.605291367E-1;-1.915514469E0
1.878073494E1;-2.102863789E0;7.843923569E-1;-1.170597076E0
1.879877736E1;-1.090901017E0;7.800798416E-1;1.643905640E0
1.881681929E1;1.516898155E0;-2.183016539E-1;4.855995178E-1
1.883486110E1;-1.150941253E-1;-2.984623909E0;-2.210171223E0
1.885290291E1;-5.367648602E-1;-1.247530937E0;4.505043030E-1
1.887094508E1;3.541726470E-1;-1.170270920E0;4.471626282E-1
1.888898726E1;1.064804196E0;2.806614637E-1;1.165589333E0
1.890701680E1;3.949205279E-1;-1.103003621E0;1.579826355E0
1.892507106E1;-3.726009727E-1;-3.012684107E0;2.436043739E0
1.894311287E1;1.918050647E-1;7.233568430E-1;-9.650468826E-1
1.896115529E1;1.891896725E-1;1.247216940E0;-9.706068039E-1
1.897919643E1;-1.088516235E0;-5.415094495E-1;3.929319382E-1
1.899723067E1;-4.822760820E-1;-3.256455421E0;-5.196981430E-1
1.901527803E1;8.280016780E-1;2.839668989E-1;-1.642978668E0
1.903332594E1;4.366725683E-2;-6.633659005E-1;-3.863143921E-2
1.905136440E1;-4.548343420E-1;-2.065453291E0;2.301061630E0
1.906940669E1;5.340309739E-1;1.245646477E-1;5.324707031E-1
1.908744893E1;9.759721756E-1;-7.005475760E-1;1.573810577E-1
1.910549092E1;-2.346398681E-1;-4.366170168E-1;-1.367542267E0
1.912353236E1;-2.999357581E-1;-1.968343735E0;8.558454514E-1
1.914157448E1;1.416831255E0;-2.047509432E0;6.831298828E0
1.915961421E1;1.326491237E0;-6.964175701E-1;1.182700157E0
1.917766109E1;2.187984943E0;-4.557215571E-1;-3.826331139E0
1.919570033E1;1.485128701E-2;-2.079536676E0;-4.892961502E0
1.921374257E1;-8.433862925E-1;-1.455598712E0;4.916543961E-1
1.923178468E1;6.835182905E-1;-4.876354933E-1;4.152822495E-1
1.924982686E1;2.175516605E0;1.541744590E0;-6.035995483E-2
1.926786836E1;2.973504066E0;1.361019015E0;-3.917951584E-1
1.928589839E1;-1.966060512E-2;-1.528323770E0;-1.293213844E0
1.930395052E1;2.748311758E-1;-4.365054965E-1;1.538085938E-2
1.932199666E1;1.664817810E0;-2.576611996E0;-3.134727478E-2
1.934003609E1;2.897459269E0;-1.019078732E0;4.006175041E0
1.935807857E1;2.999900341E0;-2.120465994E0;1.918223381E0
1.937612026E1;2.556026220E0;2.744380236E0;-2.797914982E0
1.939416286E1;4.111754596E-1;-1.908277750E0;-4.428796768E0
1.941220247E1;-3.259589076E-1;-4.731848240E0;3.495631218E0
1.943024782E1;1.614507318E0;1.095083356E0;2.695381165E0
1.944828853E1;2.394122601E0;-7.266669869E-1;9.507894516E-1
1.946633284E1;2.496383905E0;1.065622449E0;-2.341222763E-1
1.948437074E1;6.062645912E-1;-9.963437319E-1;-2.807347775E0
1.950241542E1;-4.874007702E-1;-1.921508074E0;-2.193355560E-1
1.952045284E1;1.708364964E0;-1.019750237E-1;1.934961319E0
1.953849806E1;2.835170746E0;-3.243171215E0;3.208420753E0
1.955653969E1;3.334857464E0;1.679461002E0;2.056952477E0
1.957458192E1;6.867232323E-1;-8.206570148E-2;-4.206406116E0
1.959262404E1;-1.008861780E0;-6.411619186E-1;5.185127258E-1
1.961066621E1;6.274777651E-1;-4.610972404E-1;-3.565254211E-1
1.962870766E1;1.248285294E0;3.721952438E-3;1.287635803E0
1.964674996E1;2.011008978E0;4.600668550E-1;1.063909531E-1
1.966479170E1;1.394243956E0;-5.824407935E-1;2.381515503E-1
1.968283522E1;-4.264246225E-1;-2.749275684E0;1.641836166E0
1.970087465E1;3.063878715E-1;8.795515895E-1;1.884080887E0
1.971891792E1;1.826724291E0;1.623670101E0;-1.161225319E0
1.973695967E1;7.311549187E-1;-3.380577564E-1;-1.404197693E0
1.975500197E1;-1.360422611E0;-8.821277022E-1;-1.353889465E0
1.977304329E1;-4.213330746E-1;-1.439003110E0;3.894844055E-1
1.979108571E1;4.758372307E-1;9.401905537E-1;1.005306244E0
1.980912538E1;1.461279631E0;-4.935674369E-1;6.204795837E-1
1.982716817E1;5.036157370E-2;-2.354524136E0;9.199571609E-1
1.984521309E1;2.742232382E-1;1.629140377E0;-2.680794716E0
1.986325368E1;-5.668638349E-1;-9.596725702E-1;1.105330467E0
1.988129561E1;-7.649571300E-1;2.071061134E-1;1.206604958E0
1.989932588E1;1.742667437E0;4.014837742E-1;1.246259689E0
1.991737770E1;3.228716850E-1;-1.259354591E0;-8.736610413E-2
1.993542287E1;-5.980202556E-1;7.289097309E-1;-1.004650116E0
1.995346340E1;-1.001233578E0;-3.379274368E0;4.072006226E0
1.997150282E1;1.028373599E0;-5.182559490E-1;8.405189514E-1
1.998955012E1;2.539961338E0;2.177116632E0;-4.403806686E0
2.000758949E1;-1.354641199E0;-1.065459967E0;-4.754164219E0
2.002563130E1;-2.277210236E0;6.255230427E0;-3.437324524E0
2.004367336E1;2.250128984E0;-2.012964010E0;1.033610058E1
2.006171553E1;1.065673351E0;-8.470041275E0;-1.524045944E0
2.007975697E1;1.316019416E0;3.482421875E0;-8.087314606E0
2.009779903E1;-2.580240726E0;-4.122819424E0;-5.777227879E0
2.011584151E1;-7.278500497E-2;-3.612842083E0;7.341027260E0
2.013388203E1;2.737784863E0;2.874644995E-1;-7.396589756E0
2.015192622E1;-1.808202147E0;-1.239743829E0;-2.806558609E0
2.016996718E1;-1.209036827E0;-4.039917946E0;4.875499725E0
2.018799757E1;1.689963341E0;2.101669312E0;2.385261536E0
2.020605086E1;2.019825220E0;-5.433623195E-1;6.219129562E-1
2.022409334E1;1.376170635E0;-6.984863281E-1;-1.714235306E0
2.024213515E1;-1.195856214E0;-2.258958101E0;-6.073827744E-1
2.026017720E1;3.944518864E-1;-7.261617184E-1;2.853657722E0
2.027821895E1;2.041698694E0;1.409831524E0;3.485097885E-1
2.029624947E1;8.066034317E-2;-3.754138470E0;3.224321365E0
2.031430202E1;1.731943846E0;1.710104585E0;-9.916315079E-1
2.033233437E1;8.540256619E-1;-1.403257847E0;-4.430034637E0
2.035038783E1;2.552539706E-1;-2.687305808E-1;-3.176474094E0
2.036842409E1;-9.287625551E-1;6.546300054E-1;-5.840533257E0
2.038647115E1;8.608955145E-1;-2.457160950E-1;5.858263016E0
2.040451344E1;3.713340998E0;-2.358154297E0;-1.734281540E0
2.042255190E1;1.484421372E0;4.082922935E0;-1.570715904E0
2.044058199E1;-6.435399652E-1;-2.850285769E0;-3.549379349E0
2.045864156E1;-4.963868260E-1;3.301966786E-1;-4.117451191E0
2.047668111E1;1.640210599E-1;9.431808591E-1;6.845121384E-1
2.049472279E1;7.073550224E-1;-3.898496151E0;3.060721397E0
2.051276485E1;4.438942909E0;9.454456568E-1;3.782543182E0
2.053080684E1;3.601724148E0;-4.551425934E0;-4.089456558E0
2.054884914E1;-1.079012394E0;-1.534111738E0;1.371829033E0
2.056689034E1;1.567421913E0;-8.933042288E-1;2.898950577E-1
2.058492866E1;3.143167973E0;-1.209677696E0;-2.131396294E0
2.060297896E1;3.226030350E0;-8.863598108E-2;2.547323227E0
2.062101704E1;6.622498631E-1;8.695951700E-1;1.060879707E0
2.063905849E1;2.764247417E0;-2.315508127E0;2.215751648E0
2.065710060E1;-5.523417592E-1;1.672864914E0;-4.080936432E0
2.067514272E1;2.407977581E0;7.408520579E-1;1.343324661E0
2.069318501E1;9.957288504E-1;-2.302847862E0;2.569446564E0
2.071123164E1;3.720855951E0;2.322015762E0;-4.782123566E-1
2.072926460E1;4.617170811E0;2.056791306E0;-3.222391129E0
2.074731471E1;1.368496418E0;-3.722744942E0;-2.328958035E0
2.076535298E1;-2.362991333E0;-2.335582495E0;4.488341331E0
2.078339442E1;1.208916187E0;3.143413067E0;1.942968369E-1
2.080142330E1;5.185665607E0;5.087635517E-1;-4.208423615E0
2.081947823E1;7.011771202E-3;-5.325446606E0;-1.107094765E0
2.083752077E1;1.252517223E0;-1.001139641E0;5.061054230E-1
2.085556239E1;1.833936214E0;-2.952650309E0;4.249363899E0
2.087360170E1;2.184996605E0;1.272985697E0;2.912303925E0
2.089164943E1;5.035563469E0;1.267491102E0;-4.686158180E0
2.090968874E1;-5.576014519E-3;1.006736755E-1;-2.781692505E0
2.092773036E1;-4.746001959E-1;-7.556672692E-1;-5.275058746E-2
2.094577681E1;1.628330112E0;2.604433298E0;2.010272026E0
2.096381184E1;3.005626678E0;3.001403809E0;-6.693925858E-1
2.098185951E1;4.099379539E0;-3.491175890E0;4.783980370E0
2.099989809E1;6.098589897E-1;7.735398769E0;-4.677277565E0
2.101794014E1;2.899460793E0;-5.384425163E0;8.577423096E-1
2.103598232E1;-3.472394943E-1;-2.711286306E0;5.203818321E0
2.105402467E1;1.932050228E0;3.196656704E0;-5.611749172E0
2.107206612E1;2.732746124E0;-3.175543785E0;2.700942993E0
2.109010811E1;-6.709005833E-1;-1.582636237E-1;-6.394281387E-1
2.110814644E1;-1.692958713E0;8.082941771E-1;-1.190668106E0
2.112619624E1;5.267875791E-1;-3.106273651E0;3.438247681E0
2.114423287E1;1.020812869E0;2.920895100E0;-5.047791958E0
2.116227748E1;-4.253237247E-1;2.024102449E0;-6.587375164E0
2.118031807E1;-2.195835590E0;5.260664463E0;-9.739120483E0
2.119835695E1;2.087285995E0;-2.223903090E-1;-1.197059441E1
2.121640175E1;3.838427782E0;-1.477851009E1;1.813055611E1
2.123443135E1;-7.388610363E0;1.368733692E1;-4.921655178E0
2.125248586E1;6.422827840E-1;-7.143090248E0;-3.383836269E0
2.127052901E1;1.416896725E1;1.925026131E1;1.946922684E1
2.128856996E1;-3.306252003E0;2.220462322E0;-2.932971191E1
2.130661226E1;-6.606828690E0;-6.542017937E0;-1.484654999E1
2.132464204E1;-3.046734333E-1;-1.287836742E1;2.581273270E1
2.134269624E1;-7.773491859E0;1.303148985E0;-4.093509674E1
2.136074257E1;1.254393578E1;1.005930328E1;-1.949470997E0
2.137877980E1;-1.447356939E0;-1.549737573E0;1.479804993E0
2.139682094E1;1.395697832E0;8.167976379E0;-7.783203125E-1
2.141486519E1;2.407852411E-1;-1.657770348E1;-1.536990166E0
2.143290578E1;-2.560590744E0;-5.098592281E0;2.968397141E0
2.145094789E1;2.997695923E0;1.750120401E0;-1.042255020E1
2.146898586E1;-3.334753513E-1;2.988453627E0;-8.687593460E0
2.148702913E1;-1.218074441E0;-1.258566856E0;1.206622601E1
2.150507668E1;-2.573375702E0;-4.911283255E-1;-1.052257252E1
2.152311592E1;-8.003633022E-1;-1.500118494E0;1.632998466E0
2.154115767E1;2.364192963E0;-2.244416237E0;2.849967957E0
2.155920015E1;1.705547810E0;8.100470901E-1;-4.830263615E0
2.157724117E1;5.246665478E-1;-2.696265459E0;3.827282906E0
2.159528365E1;-1.160387278E0;4.452350140E0;-1.561164856E0
2.161331093E1;-4.076510668E-1;2.678780556E0;-3.002842426E0
2.163136787E1;3.261047840E0;-8.260504007E-1;2.086603165E0
2.164940944E1;-1.315702200E-1;2.513964653E0;-3.064517975E0
2.166745155E1;-9.530053139E-1;1.829454184E0;9.858312607E-1
2.168549361E1;1.515849352E0;-7.183679342E-1;3.112947464E0
2.170353596E1;2.459773540E0;1.389248848E0;5.528545380E-2
2.172157729E1;2.746745944E-1;-2.477288961E0;4.967565536E-1
2.173961928E1;1.393619180E0;-3.504601240E0;1.719073296E0
2.175765572E1;-6.953823566E-2;4.050330639E0;-2.086824417E0
2.177570271E1;1.335794210E0;-1.771805286E-1;2.148990631E-1
2.179374641E1;-2.963701487E-1;-4.015666962E0;6.040859222E-2
2.181178755E1;-1.952588439E0;-9.785261154E-1;-2.248317719E0
2.182982955E1;-5.323168039E-1;-2.828561306E0;2.032365799E-1
2.184786836E1;-3.651742935E-1;-2.150141239E0;-7.766780853E-1
2.186591090E1;-7.901507378E0;2.914047241E1;-3.230851650E0
2.188395979E1;3.005741358E0;4.836149693E0;-3.433828354E-1
2.190199538E1;5.211031437E0;-1.557178497E1;1.198686695E1
2.192003920E1;-4.603940964E0;3.551418781E0;4.012480736E0
2.193808077E1;-1.856416702E0;9.952147484E0;-1.279307079E1
2.195612349E1;8.123600006E0;-3.453672409E0;9.493604660E0
2.197416402E1;-9.341381192E-1;-1.875159860E0;6.745882034E0
2.199219728E1;-2.756855011E0;4.006608963E0;-9.999750137E0
2.201024727E1;3.741290569E0;2.282335758E0;1.903356552E0
2.202828993E1;4.904209971E-1;1.324883223E0;5.992221832E-2
2.204633302E1;1.021599174E0;2.347184181E0;-5.387680531E0
2.206437520E1;-5.146002769E-1;-1.573604226E0;7.584352493E-1
2.208241664E1;-7.437880039E-1;1.231282902E1;-9.721488953E-1
2.210045870E1;3.025750399E0;3.523266077E0;-4.754375458E0
2.211850087E1;8.768790960E-1;-3.240269184E0;7.300174713E0
2.213652760E1;7.633050680E-1;6.410187483E-1;-1.287136078E-1
2.215458455E1;3.024305582E0;3.064696312E0;-1.442098618E0
2.217262697E1;2.293828249E0;2.896713257E0;7.677478790E-1
2.219066890E1;1.284616709E0;8.455295563E-1;-4.759751320E0
2.220871120E1;2.427275032E-1;-6.308592558E-1;1.825638771E0
2.222675258E1;2.767597437E0;2.278499603E-1;4.333019257E-2
2.224479488E1;4.506969929E0;-4.661252499E-1;1.830182076E0
2.226283663E1;3.048089743E0;-2.019733191E0;1.854475975E0
2.228086690E1;2.032342434E0;1.279415011E0;7.302446365E-1
2.229891298E1;1.974753141E0;-3.340084553E-1;-1.911623955E0
2.231696529E1;2.528721809E0;3.280607462E-1;-1.659967899E0
2.233500465E1;2.925281525E0;-2.410612822E0;1.268929482E0
2.235304689E1;1.925709963E0;-2.303376198E-1;2.132571220E0
2.237107558E1;2.536664009E0;-1.052522779E0;-5.337934494E-1
2.238912758E1;1.236713529E0;3.260165453E-1;-3.080492020E-1
2.240717549E1;-8.740301728E-1;-4.836988449E-2;-1.248747826E0
2.242521462E1;3.153970480E0;-4.399746656E-1;2.214635849E0
2.244325624E1;3.987992764E0;-3.025590181E0;6.250457764E-1
2.246129854E1;3.908975363E0;-1.370494246E0;-3.942203522E-2
2.247934029E1;1.795548439E0;-3.255285978E0;-1.172019958E0
2.249738234E1;2.305211425E-1;-3.138348818E0;1.161207199E0
2.251540736E1;1.763533235E0;-2.695201397E0;1.407858849E0
2.253346400E1;1.621342897E-1;-1.035918713E0;-4.827213287E-1
2.255151045E1;-2.110511661E-1;-7.611197233E-1;-8.580541611E-1
2.256955055E1;-1.167902231E0;-9.317637086E-1;-4.566268921E-1
2.258759218E1;-4.365396500E-1;-4.959999919E-1;-4.833774567E-1
2.260563423E1;5.103468895E-3;-4.247843027E-1;-1.724492073E0
2.262367622E1;7.360016704E-1;1.957339048E0;-1.366975784E0
2.264171846E1;5.663681030E-2;-4.603702426E-1;7.540016174E-1
2.265975948E1;-2.498009205E-1;2.277783394E0;1.916832924E0
2.267780190E1;5.940579772E-1;-6.585991383E-2;5.512962341E-1
2.269584395E1;-2.081613541E-1;3.133900404E0;-1.116181374E0
2.271388545E1;2.671574354E-1;1.617419124E0;-2.299557686E0
2.273192848E1;1.923083067E-1;2.226398468E0;2.278478622E0
2.274995894E1;-1.342155695E0;1.928715348E0;-2.514118195E0
2.276800954E1;-1.809000969E-3;6.710810184E0;4.009502411E0
2.278605653E1;-5.084604025E-1;-3.922767639E-1;-3.005840302E0
2.280409560E1;8.846827745E-1;4.265695572E0;2.643311501E0
2.282213765E1;-6.708096266E-1;9.802446365E-1;-2.846198082E0
2.284017970E1;-5.851598978E-1;3.228861332E0;1.396694183E0
2.285822188E1;-1.250720501E0;1.645359039E0;-3.442626953E0
2.287625929E1;6.762808561E-1;3.213941574E0;3.136854172E-1
2.289430031E1;9.325230122E-2;-9.946371317E-1;-1.032026291E0
2.291234645E1;4.683244228E-1;-1.278975129E0;4.583930969E-1
2.293039156E1;-6.148964167E-1;-1.282310486E0;1.333553314E0
2.294842769E1;8.358328938E-1;-8.837216496E-1;7.292938232E-1
2.296647353E1;6.782050729E-1;-1.458948851E0;8.110523224E-2
2.298451582E1;1.178493738E0;-2.016969681E0;1.291370392E-1
2.300255763E1;9.028756022E-1;-8.335831165E-1;-2.926959991E-1
2.302059926E1;6.008659005E-1;8.212038279E-1;-2.816476822E-1
2.303864107E1;2.833875120E-1;7.357040644E-1;1.427707672E-1
2.305667934E1;-5.103135109E-1;2.415605783E-1;4.197416306E-1
2.307472975E1;-2.102399468E-1;1.840089440E0;7.956981659E-1
2.309276698E1;3.705120087E-2;4.330694675E-2;-4.627628326E-1
2.311080934E1;-7.870423794E-2;7.364845276E-1;6.079711914E-1
2.312885152E1;8.932584524E-2;1.698484421E-1;-3.256921768E-1
2.314689351E1;7.714910507E-1;-5.577497482E-1;9.788589478E-1
2.316493495E1;1.405327082E0;-6.729784012E-1;-2.777557373E-1
2.318297700E1;9.534217119E-1;-9.866416454E-2;-1.043408394E0
2.320101918E1;4.003170431E-1;-5.832989216E-1;-7.206974030E-1
2.321906160E1;4.774678946E-1;5.036116838E-1;-1.218461990E-1
2.323710292E1;4.392447770E-1;1.944240332E-1;5.961055756E-1
2.325514516E1;9.782574177E-1;7.108104229E-2;1.522005081E0
2.327317043E1;8.866941929E-1;9.722187519E-1;-1.066056252E0
2.329121724E1;-1.343022883E-1;1.825141788E0;-1.946339130E0
2.330927071E1;-4.403021932E-1;1.299783468E0;4.956817627E-2
2.332731313E1;2.104556561E-2;1.949323297E0;2.613792419E-1
2.334535500E1;8.371602893E-1;2.833579540E0;-7.552700043E-1
2.336339717E1;3.828289807E-1;2.633436918E0;-1.555337906E-1
2.338143861E1;-1.385608763E-1;1.528790832E0;-7.078990936E-1
2.339948097E1;-1.332050413E-1;2.329886436E0;6.513557434E-1
2.341752266E1;1.301488519E0;1.025810838E0;-6.906032562E-2
2.343556203E1;1.615581036E0;1.237705231E0;9.094429016E-2
2.345360963E1;1.281857133E0;1.323204279E0;-2.912979126E-1
2.347163704E1;7.855455279E-1;-1.852627993E-1;-6.669855118E-1
2.348969057E1;4.407357574E-1;-5.247559547E-1;-4.473819733E-1
2.350773286E1;5.473430753E-1;-3.319187164E-1;2.105245590E-1
2.352577431E1;1.673045278E0;-9.691607952E-1;8.447570801E-1
2.354381575E1;4.458595514E-1;-1.005711794E0;4.619178772E-1
2.356185732E1;1.405937374E-1;-2.868793964E0;1.438829422E0
2.357990053E1;-1.099813059E-1;-2.266546726E0;1.355986595E0
2.359794234E1;2.299155742E-1;-7.130241394E-1;-1.193351746E-1
2.361598457E1;7.351541519E-2;6.461689472E-1;-1.081938744E0
2.363402650E1;-3.184136748E-1;-7.245326042E-2;-7.869014740E-1
2.365206789E1;-4.375579953E-1;8.848848343E-1;3.055686951E-1
2.367011079E1;3.468370438E-2;1.032041907E0;-1.242226601E0
2.368815230E1;-5.652841926E-2;5.556797981E-1;-1.463062286E0
2.370619429E1;-3.568736911E-1;1.145563126E-1;-1.754760742E-1
2.372423647E1;-3.016304970E-1;-1.044417620E0;1.593410492E0
2.374227803E1;-3.962460756E-1;-9.623100758E-1;-3.899898529E-1
2.376032002E1;-1.392996311E0;4.805064201E-1;5.820560455E-1
2.377835841E1;-2.575061321E0;1.889231205E-1;-1.354752541E0
2.379638936E1;-2.425171852E0;-1.026556730E0;3.833618164E-1
2.381444783E1;-1.723565936E0;-6.290358305E-1;1.379374504E0
2.383248903E1;-4.853985906E-1;-2.620179653E-1;1.320426941E0
2.385052998E1;-8.291006088E-5;1.870599985E0;-1.078366280E0
2.386857222E1;-7.397508621E-1;1.158514142E0;-4.984121323E-1
2.388661366E1;-1.565846443E0;2.051628590E0;-1.139707565E-1
2.390465596E1;-1.178901434E0;2.010773420E0;-1.063620567E0
2.392269795E1;-7.216817737E-1;1.040954947E0;6.750698090E-1
2.394074001E1;-1.450618744E0;6.207350492E-1;2.945613861E-2
2.395877962E1;-1.617567301E0;-5.756731033E-1;1.264457703E0
2.397682570E1;-1.718427181E0;-9.208134413E-1;-5.473041534E-2
2.399486568E1;-5.682014227E-1;-2.316423655E-1;6.930456161E-1
2.401290810E1;-4.883435369E-1;2.743099928E-1;-9.926061630E-1
2.403094948E1;-9.366860986E-1;-3.742719889E-1;4.500589371E-1
2.404897987E1;-1.474007249E0;-1.015756607E0;6.943607330E-1
2.406703365E1;-1.110543847E0;-1.149881363E0;1.582362175E0
2.408507277E1;-6.370142102E-1;-1.209623694E0;7.072496414E-1
2.410311446E1;-5.401350856E-1;1.201457977E-1;3.132238388E-1
2.412116249E1;-1.140685081E-1;-3.679194450E-1;6.862840652E-1
2.413920113E1;-2.740957737E-1;7.064778805E-1;-2.676391602E-1
2.415724385E1;4.303889275E-1;3.749390841E-1;-5.667657852E-1
2.417527333E1;-8.427615166E-1;-4.944677353E-1;-4.582319260E-1
2.419332741E1;3.191375732E-2;-7.456564903E-2;-3.597154617E-1
2.421136934E1;-4.207093120E-1;6.655184031E-1;8.689670563E-1
2.422941158E1;-3.100984097E-1;1.129952550E0;-2.288103104E-1
2.424745210E1;-1.160298228E0;5.975959301E-1;-7.754898071E-1
2.426549629E1;-9.806953073E-1;2.281020164E0;-4.102497101E-1
2.428353706E1;-1.406303048E-1;5.364229679E-1;-1.116655350E0
2.430157954E1;2.702848911E-1;6.248891354E-2;-2.108869553E-1
2.431960951E1;3.047694564E-1;7.536876202E-2;3.060722351E-1
2.433765913E1;1.544277906E0;5.416527987E-1;6.065330505E-1
2.435570894E1;2.141242027E0;1.195329666E0;1.159572601E-1
2.437374721E1;1.358164072E0;1.130193710E0;-4.240589142E-1
2.439178883E1;1.085687757E0;2.089366913E0;-1.528576851E0
2.440983095E1;2.148556709E-2;1.190020204E0;-1.301715851E0
2.442787300E1;-1.502740383E-1;3.110340118E0;6.745023727E-1
2.444591524E1;1.354489684E0;2.163345337E0;-6.446456909E-2
2.446395851E1;1.323322892E0;1.777359128E0;-6.891918182E-1
2.448199641E1;9.953043461E-1;1.837303638E-1;-1.587156296E0
2.450004201E1;1.286756992E0;-6.624200344E-1;5.830163956E-1
2.451808327E1;1.205590963E0;-8.348518610E-1;8.912868500E-1
2.453612434E1;2.159612656E0;-2.712409496E-1;9.350395203E-2
2.455416676E1;2.336397648E0;-6.538336277E-1;-2.434301376E-1
2.457220577E1;1.015036106E0;-5.742065907E-1;-5.374593735E-1
2.459025362E1;3.231648505E-1;-6.462684870E-1;-6.490488052E-1
2.460828822E1;-5.007144809E-2;-2.385119200E-1;-6.499061584E-1
2.462633461E1;-3.202689886E-1;-1.897459507E0;9.681415558E-1
2.464437672E1;-2.624804080E-1;-2.634543657E0;1.652915955E0
2.466241896E1;9.222718477E-1;-2.266654968E-1;-1.246967316E-1
2.468046034E1;8.482880592E-1;-6.712055206E-2;-7.445888519E-1
2.469849239E1;4.159120321E-1;-6.051210165E-1;1.581668854E-2
2.471654286E1;1.496345043E0;-3.378696442E-1;1.280895233E0
2.473458809E1;2.422266006E0;3.880668879E-1;-4.188823700E-2
2.475262819E1;2.410586834E0;1.209100246E0;-1.702318668E0
2.477067030E1;1.911106944E0;1.944749355E0;-9.152822495E-1
2.478871236E1;7.144058943E-1;-9.964334965E-2;-3.033065796E-1
2.480675465E1;5.926031470E-1;2.515963316E-1;2.655611038E-1
2.482479604E1;3.380834460E-1;1.225250125E0;1.239452362E-1
2.484283791E1;3.411289752E-1;1.105742335E0;-6.617546082E-2
2.486087544E1;-7.236465216E-1;1.002171755E0;-1.377677917E0
2.487892665E1;-1.251662970E0;1.410564184E-1;-5.353155136E-1
2.489696059E1;-7.439258099E-1;1.526035428E0;3.191785812E-1
2.491500905E1;-6.967517138E-1;1.657995462E0;-7.375202179E-1
2.493304793E1;-1.922237873E-2;1.906908512E0;-1.258173943E0
2.495109041E1;-3.760538995E-1;-2.415223122E-1;-1.798809528E0
2.496913173E1;-7.372977734E-1;-5.206196308E-1;1.456428528E0
2.498717378E1;-2.651297450E-1;-1.746406555E0;1.577406883E0
2.500521645E1;9.090330005E-1;-1.549409151E0;9.264020920E-1
2.502325758E1;9.190825224E-1;-1.210730076E0;-6.746673584E-2
2.504129952E1;1.798059046E-2;-1.241881847E0;-1.151685715E0
2.505934151E1;-2.739930153E-1;-1.217854857E0;-1.114782333E0
2.507738374E1;-1.458669603E-1;-2.417329788E0;1.173158646E0
2.509542598E1;2.968080044E-1;-1.687507510E0;8.545970917E-1
2.511346742E1;5.686373711E-1;-4.098407030E-1;4.741048813E-1
2.513150948E1;7.325385213E-1;-7.579922676E-2;6.243906021E-1
2.514954872E1;-1.369279027E0;4.793568850E-1;-2.455648422E0
2.516759694E1;-1.652833104E0;-3.742104769E-1;8.076591492E-1
2.518563539E1;-1.903539419E0;3.433547020E-1;1.677360535E-1
2.520367751E1;-9.890673757E-1;1.444514632E0;-1.017404556E0
2.522172554E1;2.886334062E-1;2.840527296E-1;-5.953311920E-2
2.523975868E1;5.300708413E-1;-3.612347841E-1;-4.422864914E-1
2.525780586E1;5.745653510E-1;-7.190608978E-2;2.091979980E-1
2.527584523E1;1.178333163E-2;6.118320227E-1;-3.766918182E-2
2.529388637E1;2.138261199E-1;4.670635462E-1;-3.990573883E-1
2.531193062E1;6.708782911E-2;1.093637228E0;-3.202877045E-1
2.532997090E1;8.134904504E-2;1.641667366E0;-1.323928833E-1
2.534801314E1;5.130785704E-1;2.050543785E0;-4.443845749E-1
2.536605519E1;1.372265220E-1;1.200722456E0;1.301593781E0
2.538409572E1;2.857314348E-1;1.011682749E0;1.149663925E-1
2.540214046E1;3.177687526E-1;-1.621035337E-1;-7.067193985E-1
2.542018080E1;1.034912705E0;-6.559664011E-1;1.214398384E0
2.543822316E1;-8.689957857E-2;-1.547923088E0;9.198341370E-1
2.545626527E1;1.209221125E0;-1.179776669E0;5.642299652E-1
2.547430659E1;9.520626664E-1;-6.855430603E-1;-2.482776642E-1
2.549234877E1;7.457032800E-1;-2.185678959E0;8.366851807E-1
2.551039089E1;3.153600097E-1;-1.982988238E0;1.064899445E0
2.552842982E1;-7.035789490E-1;-2.873124123E0;9.497900009E-1
2.554647463E1;-4.514567852E-1;-9.931768775E-1;-6.008310318E-1
2.556451698E1;-9.055671096E-1;-9.045026302E-1;-8.470087051E-1
2.558255879E1;-6.608295441E-2;-3.798549175E-1;4.095296860E-1
2.560058913E1;8.440017700E-2;3.412977457E-1;2.932405472E-1
2.561864223E1;2.185966969E-1;-4.682879448E-1;1.299396515E0
2.563668453E1;4.556922317E-1;1.301950693E0;-3.626804352E-1
2.565472646E1;1.125397682E0;2.084522724E0;-1.583052635E0
2.567276888E1;-2.769797742E-1;9.360523224E-1;6.314697266E-1
2.569081044E1;-5.054380298E-1;1.677074194E0;-4.035091400E-1
2.570885249E1;-2.021222413E-1;2.659349442E-1;1.719522476E-1
2.572689442E1;-7.379961610E-1;-2.202074528E-1;6.137113571E-1
2.574493654E1;-1.549269915E0;3.429305553E-1;1.213326454E0
2.576297652E1;-1.106611013E0;9.046509266E-1;4.664669037E-1
2.578102211E1;-1.201637864E0;-4.881954193E-1;-2.039237976E0
2.579906246E1;-2.068020821E0;1.698985219E0;-2.704935074E-1
2.581710445E1;-9.836612940E-1;2.173447132E0;-1.240265846E0
2.583514595E1;-1.711732149E-1;-7.304166555E-1;1.015134811E0
2.585318813E1;-3.890311718E-2;-2.367020845E-1;-8.874034882E-2
2.587123042E1;7.008159161E-1;-8.897575736E-1;-6.836633682E-1
2.588926808E1;6.821137667E-2;-2.510658503E0;5.736618042E-1
2.590731380E1;6.736655235E-1;-2.022290707E0;1.452219963E0
2.592535622E1;-2.711580098E-1;-2.167424440E0;1.438626289E0
2.594339815E1;4.849950671E-1;2.623586655E-1;-2.096627712E0
2.596144038E1;-1.985539198E-1;-1.390939116E0;-1.732749939E-1
2.597948531E1;-8.578404188E-1;-1.014875531E0;5.622138977E-1
2.599752162E1;1.476601362E-1;-5.612355471E-1;4.245271683E-1
2.601556807E1;4.033700228E-1;9.477429390E-1;2.131586075E-1
2.603360817E1;-4.865416586E-1;1.975227356E0;-8.031654358E-1
2.605164955E1;-1.705870628E0;2.029850245E0;-6.523065567E-1
2.606969185E1;-6.630975008E-1;1.635588765E0;-1.112099648E0
2.608773384E1;-1.226679802E0;1.256394625E0;2.101459503E-1
2.610577614E1;-4.624835849E-1;7.722734213E-1;-1.948404312E-1
2.612381227E1;-3.737038374E-2;2.769187927E0;-1.507557869E0
2.614186159E1;3.489378691E-1;-3.230744600E-1;-4.230899811E-1
2.615990089E1;-7.178401947E-1;3.792821169E-1;-1.275033951E-1
2.617794362E1;1.096314907E0;8.801047802E-1;1.516505241E0
2.619598524E1;5.803370476E-1;-2.323679924E-1;-4.444332123E-1
2.621402748E1;2.908812165E-1;5.474567413E-2;-2.189438343E0
2.623206954E1;-2.430476546E-1;-1.061227083E0;1.090021133E0
2.625011183E1;1.935083866E-1;-1.463530064E-1;1.203120232E0
2.626815321E1;1.610949039E-1;-1.366449118E0;1.836297989E0
2.628619521E1;2.939148545E-1;5.391770601E-1;3.209877014E-2
2.630423763E1;1.229833126E0;1.209686995E-1;-1.495473862E0
2.632227974E1;5.727655888E-1;-1.000415444E0;1.496381760E0
2.634032069E1;4.721589684E-1;-1.526439548E0;-1.036630630E0
2.635836006E1;2.500497103E-1;-1.054437160E0;3.048343658E-1
2.637640523E1;4.385797381E-1;-2.893168926E-1;4.505224228E-1
2.639444746E1;4.889222682E-1;-1.180314302E0;3.636636734E-1
2.641249080E1;7.655341625E-1;-1.592962146E0;-1.167745590E-1
2.643052834E1;7.905168533E-1;-1.423654914E0;1.111976624E0
2.644857613E1;4.347767532E-1;-1.096985340E0;2.151001930E0
2.646661519E1;1.301806450E0;8.346179724E-1;-5.820207596E-1
2.648465694E1;9.310239553E-1;7.745766640E-2;-3.007082462E0
2.650268282E1;-3.463122845E-1;-5.497488976E-1;-5.523948669E-1
2.652074281E1;7.216603756E-1;-3.860596418E-1;1.348503113E0
2.653878298E1;-6.739646196E-2;8.921447992E-1;1.683179855E0
2.655682491E1;6.302336454E-1;1.362835288E0;5.984115601E-1
2.657486678E1;-3.202153742E-1;1.345609784E0;-2.759400845E0
2.659290895E1;-1.351674080E0;4.954704046E-1;-1.477531433E0
2.661095113E1;-1.280942917E0;-1.960547805E0;-3.276300430E-1
2.662899263E1;1.915690303E-2;6.778073311E-2;1.057534218E0
2.664702321E1;5.268573761E-1;5.695568323E-1;-1.063131332E0
2.666507558E1;2.689495683E-2;8.836638927E-2;-2.040160656E0
2.668312007E1;-7.411258221E-1;-1.096572876E0;-8.798198700E-1
2.670116029E1;-1.607452333E-1;-1.726621866E0;2.231626511E0
2.671920265E1;6.290999055E-2;-1.059276700E0;1.247728348E0
2.673724428E1;-3.438092470E-1;-5.728161335E-2;-1.428211212E0
2.675528682E1;4.703422487E-1;1.066136360E-2;-1.555347443E-1
2.677332826E1;-1.712038070E-1;-9.896678925E-1;4.788913727E-1
2.679137038E1;-7.227945328E-1;-1.158798575E0;7.990016937E-1
2.680941225E1;5.249835253E-1;-1.211391687E0;-1.486568451E-1
2.682745461E1;3.513231874E-1;-1.447577715E0;8.928041458E-1
2.684549605E1;-2.879863381E-1;-1.473006129E0;1.212167740E-1
2.686353847E1;-1.301004589E-1;-8.564811349E-1;-3.409776688E-1
2.688158009E1;1.454237103E-1;-9.553794265E-1;-9.249801636E-1
2.689962227E1;-7.044282556E-2;-3.828284740E-1;-3.888988495E-2
2.691766396E1;-1.087094188E0;1.126672149E0;-8.234891891E-1
2.693570601E1;-6.709331870E-1;4.675660133E-1;1.377342224E0
2.695374825E1;-3.231868744E-1;1.121094584E0;2.044954300E-1
2.697179024E1;-1.310383081E0;7.304080725E-1;-2.319011211E0
2.698983144E1;-9.955782294E-1;9.439500570E-1;9.209260941E-1
2.700787404E1;4.583805799E-2;-4.450380802E-2;2.286443710E-1
2.702591255E1;-5.133402348E-2;-6.792100668E-1;2.265282631E0
2.704395393E1;3.430035114E-1;-1.636256576E0;-7.960367203E-1
2.706200386E1;5.516186357E-1;4.563417435E-1;-2.576076031E0
2.708004201E1;-5.112940073E-2;-1.226154327E0;-1.842832565E-1
2.709808345E1;7.373179793E-1;6.030933857E-1;2.016319275E0
2.711612593E1;-6.402099133E-2;6.529556513E-1;-2.555656433E-2
2.713416737E1;-1.271192431E-1;2.176905155E0;-1.237957954E0
2.715220973E1;1.034720540E-1;3.376177549E-1;-1.676006317E0
2.717024135E1;-9.238066673E-1;3.188127279E-1;3.385162354E-2
2.718828731E1;-2.414264679E-1;4.149192572E-1;2.496243477E0
2.720633839E1;3.750629425E-1;2.425118685E-1;1.788525581E0
2.722437758E1;8.740453124E-1;-9.487593174E-2;-1.228987694E0
2.724241939E1;1.139543056E-1;-1.197224140E0;-1.504257202E0
2.726044997E1;-1.384286880E-1;-1.035718203E0;1.802507401E0
2.727850301E1;1.535984278E-1;-1.910842776E0;1.476018906E0
2.729654530E1;6.074317694E-1;-3.221257925E-1;2.268850327E0
2.731458742E1;3.667395115E-1;-1.614784718E0;-1.188542366E0
2.733262764E1;-5.662927628E-1;-4.287999868E-1;-1.837621689E0
2.735067281E1;-5.931647420E-1;-2.186975479E0;4.270887375E-1
2.736871309E1;-8.060096502E-1;-1.064051509E0;1.548428535E0
2.738675203E1;3.684508801E-2;-5.520982742E-1;3.632392883E-1
2.740480531E1;2.161522508E-1;-7.655082345E-1;4.267530441E-1
2.742283461E1;-5.775932074E-1;-6.719043255E-1;-1.094056129E0
2.744087318E1;-1.073124766E0;-5.327357054E-1;5.205345154E-2
2.745891304E1;-3.894548714E-1;1.502633095E-2;8.233966827E-1
2.747696535E1;4.532808661E-1;-7.300820351E-1;1.841190338E0
2.749500642E1;5.676405430E-1;3.314105272E-1;2.528896332E-1
2.751304878E1;3.340287209E-1;1.156352878E0;-2.373354912E0
2.753109084E1;-9.600031972E-1;-1.556739330E0;5.188503265E-1
2.754913277E1;-8.710801601E-1;-9.694568515E-1;2.456212044E0
2.756717152E1;-1.687853336E-1;-4.401333332E-1;3.247718811E-1
2.758521974E1;-1.426311731E0;8.739913702E-1;4.395914078E-1
2.760325844E1;-1.674656391E0;3.478422165E-1;-9.914112091E-1
2.762130098E1;-1.913131475E0;-1.122562528E0;9.963016510E-1
2.763934224E1;-1.571185946E0;2.113773346E0;2.898874283E-1
2.765738417E1;-2.899957895E-1;2.102266550E-1;2.437429428E-1
2.767542653E1;-2.752822638E-1;6.308482885E-1;-8.145332336E-2
2.769346864E1;-4.701792896E-1;-4.809882641E-1;-1.063271523E0
2.771150990E1;-1.277307272E-1;-9.888588786E-1;2.089874268E0
2.772955251E1;-1.901983619E-1;-7.995070815E-1;1.501210213E0
2.774759419E1;-2.772569656E-2;1.194338799E-1;-7.961940765E-2
2.776563643E1;-1.229482770E0;-2.064561844E-1;-1.505188942E0
2.778366817E1;-1.499906301E0;-1.560146332E0;-4.827117920E-1
2.780171718E1;-1.733208537E0;-8.987018466E-1;6.005802155E-1
2.781976509E1;-4.314155579E-1;-1.512145996E0;2.569826126E0
2.783780446E1;3.560109138E-1;-1.234902143E0;2.520788193E0
2.785584554E1;1.831798553E-1;-1.436486244E-1;-1.413215637E0
2.787388716E1;-2.470164895E-1;-9.170719385E-1;8.432865143E-2
2.789193068E1;2.415947318E-1;-9.405877590E-1;1.003640175E0
2.790997212E1;7.533401847E-1;-3.752477169E-1;-3.504009247E-1
2.792800331E1;5.553272963E-1;-5.009055138E-3;7.445240021E-1
2.794605629E1;1.754289269E-1;3.963124752E-2;-1.369866371E0
2.796409718E1;-1.222934604E0;-6.349102259E-1;-2.883749008E-1
2.798214015E1;3.463893533E-1;2.866538763E-1;1.041001320E0
2.800018129E1;-8.990639448E-2;2.094952106E0;-9.984712601E-1
2.801822359E1;-1.256520748E-1;1.603784919E0;-1.440356255E0
2.803626277E1;-5.151240826E-1;6.815017462E-1;3.702926636E-2
2.805430910E1;-5.782612562E-1;1.310933113E0;6.945190430E-1
2.807235243E1;6.253445745E-1;1.007492304E0;-4.939899445E-1
2.809038826E1;-1.259356737E-2;-1.004533052E0;-2.320425510E0
2.810843300E1;-7.653197646E-1;-2.282865047E-1;-2.097091198E0
2.812647554E1;2.735859156E-1;-6.803652048E-1;2.068335533E0
2.814451698E1;5.422499776E-1;-1.602098942E-1;1.027823448E0
2.816254707E1;9.936815500E-1;4.342912436E-1;7.544612885E-1
2.818060079E1;1.554590464E-2;9.629670382E-1;-5.660972595E-1
2.819864326E1;1.024780273E0;-4.951595068E-1;-3.869800568E-1
2.821668446E1;9.055444002E-1;6.330341101E-1;-1.582077026E0
2.823472810E1;9.618384242E-1;3.423464298E-1;5.552244186E-1
2.825276784E1;6.985327005E-1;-8.685016632E-2;3.339939117E-1
2.827081105E1;7.666676641E-1;-1.430479765E0;1.510230064E0
2.828885243E1;1.074407339E0;4.282002449E-1;-1.094010353E0
2.830689058E1;2.233230770E-1;-8.186955452E-1;-1.212988853E0
2.832493550E1;-3.216885924E-1;7.041212320E-1;-2.060313702E0
2.834298024E1;7.179502249E-1;-3.267777443E0;-8.859920502E-1
2.836102040E1;-2.169299126E0;7.745456696E-2;8.084671974E0
2.837906215E1;3.153258324E0;3.429867983E0;-2.390281200E0
2.839710445E1;-1.377420068E0;-1.662604213E0;-8.202178001E0
2.841514674E1;-1.148611069E0;-3.467425585E0;4.297504425E-1
2.843318813E1;-8.002322912E-1;-1.698477268E0;-4.938879013E-1
2.845122994E1;1.285657048E0;2.131513357E-1;3.843151093E0
2.846927174E1;1.827855825E0;1.382657409E0;4.980106354E-1
2.848731484E1;1.734532714E0;2.123869658E-1;1.824898720E0
2.850535585E1;6.847472787E-1;-5.663406849E-2;-5.726890564E-1
2.852339815E1;6.949524581E-2;-2.452754974E-1;-2.649308205E0
2.854143990E1;-6.028835177E-1;-1.919422030E0;4.919357300E-1
2.855948244E1;8.630824089E-1;7.772153378E0;4.362583160E-1
2.857752327E1;1.211874962E0;-3.152682781E0;3.020420074E-1
2.859556587E1;-8.589214683E-1;-2.770073891E0;9.360914230E-1
2.861360463E1;2.668046951E-1;2.110590458E0;-3.426509380E0
2.863165309E1;-4.873853326E-1;-2.261274815E0;2.743118286E0
2.864969136E1;-1.495973110E0;2.607304573E0;-1.639305115E0
2.866773378E1;2.588848770E-1;2.333945036E-1;-2.847259521E0
2.868576613E1;-9.213016033E-1;-2.940728664E-1;3.918565750E0
2.870381502E1;6.370854378E-1;-2.171477079E-1;-1.837247849E0
2.872186202E1;-5.228816271E-1;2.031586170E-1;-7.966232300E-1
2.873990108E1;-8.235715032E-1;1.657127261E0;-1.923006058E0
2.875794331E1;-7.005636692E-1;-4.481893778E-1;2.406692505E-2
2.877598555E1;-1.956165433E-1;-2.265960455E0;2.240372658E0
2.879402681E1;-6.662830710E-3;-3.273187876E-1;7.103919983E-2
2.881206868E1;1.892808676E-1;-5.188454390E-1;-5.666208267E-1
2.883011140E1;-6.041141748E-1;-4.327040911E-1;-1.036693573E0
2.884815236E1;9.206409007E-2;-1.307757020E0;1.249895096E-1
2.886619563E1;6.682326794E-1;-1.901935101E0;1.727508545E0
2.888423677E1;7.010735869E-1;-7.655645013E-1;-3.908023834E-1
2.890227925E1;8.292762637E-1;-1.497347236E0;1.260090828E0
2.892032100E1;3.934434056E-1;3.885544538E-1;-4.382953644E-1
2.893835878E1;-9.240317345E-2;3.719166517E-1;-3.633813858E-1
2.895640205E1;-5.690426230E-1;-5.357041359E-1;-7.950782776E-1
2.897444911E1;-1.059708834E0;7.105988264E-1;1.158129692E0
2.899248897E1;-7.065268755E-1;1.284804702E0;1.907230377E0
2.901053023E1;4.382592142E-1;1.721594572E0;-1.455043793E0
2.902857222E1;-3.971227407E-1;-8.808222413E-1;-7.691888809E-1
2.904661415E1;-6.251385212E-1;1.770443916E-1;5.046091080E-1
2.906464162E1;7.475908399E-1;1.269859910E0;-1.530820847E0
2.908269789E1;1.098888636E0;-6.396204233E-1;5.799503326E-1
2.910074019E1;7.661141157E-1;-1.623749852E0;-8.530263901E-1
2.911878218E1;6.425923705E-1;4.349577427E-2;-1.376342773E-1
2.913682539E1;9.285432100E-1;4.115229845E-1;5.687589645E-1
2.915486446E1;1.875497103E-1;1.701455593E0;-2.438678741E-1
2.917290755E1;2.505772114E-1;3.210570812E-1;-1.147667885E0
2.919094972E1;1.805099547E-1;3.168537617E-1;5.822610855E-1
2.920897365E1;1.613943875E-1;9.195567369E-1;-1.635033607E0
2.922702937E1;3.161311150E-3;6.718192101E-1;5.673494339E-1
2.924507960E1;1.717422307E-1;6.081727743E-1;-3.517065048E-1
2.926311757E1;-9.478196502E-2;-4.023283720E-1;-7.555732727E-1
2.928115962E1;3.288708925E-1;-9.403327107E-1;-6.570148468E-2
2.929920119E1;3.036241531E-1;-2.275519848E0;1.839812279E0
2.931724306E1;4.372462034E-1;-3.406151533E-1;5.803470612E-1
2.933528499E1;2.084617019E-1;-1.285274744E0;1.366927147E0
2.935332741E1;6.109780073E-2;-1.825952291E0;-5.344734192E-1
2.937136995E1;-1.814879179E0;-4.440219402E-1;-1.926573277E0
2.938940993E1;-1.025806546E0;-1.468307376E0;5.544338226E-1
2.940745308E1;-4.829213321E-1;-1.287519813E0;1.005432129E0
2.942549507E1;8.160423040E-1;-8.148649335E-1;2.149953842E0
2.944352510E1;9.596711397E-1;-5.529856682E-1;1.088497162E0
2.946157875E1;5.104845166E-1;3.446290493E-1;1.556815147E0
2.947962056E1;5.338141918E-1;1.843322635E0;-1.686279774E0
2.949766255E1;-5.948334932E-2;5.644683838E-1;-2.251980782E0
2.951570436E1;-5.808993578E-1;-1.186190605E0;3.022036552E0
2.953374635E1;4.395447373E-1;2.337596416E0;6.766738892E-1
2.955178828E1;1.643807888E-1;2.044274807E-1;-1.269701958E0
2.956983058E1;-1.661988974E0;3.707401752E-1;-2.633277893E0
2.958786220E1;-1.917510748E0;-1.902510881E0;9.545364380E-1
2.960591127E1;-6.819031239E-1;-1.721918583E-2;1.588241577E0
2.962396071E1;3.184187412E-1;9.345459938E-2;1.688250542E0
2.964199654E1;1.027483940E-1;1.191945553E0;-1.648658276E0
2.966003944E1;-5.443480611E-1;-1.538691282E0;-1.180756569E0
2.967808174E1;-9.838044643E-1;-6.926804781E-1;7.452583313E-1
2.969612373E1;5.175877810E-1;-2.972264290E-1;5.140419006E-1
2.971416597E1;3.614836335E-1;9.524321556E-2;9.358873367E-1
2.973220479E1;1.787364483E-1;-2.643905640E0;2.129526138E-1
2.975025056E1;-5.433669686E-1;-1.505139351E0;1.644701004E0
2.976828975E1;1.293362379E-1;2.657717466E-1;9.257411957E-2
2.978633376E1;2.628803253E-1;-4.249321222E-1;-1.452543259E0
2.980437489E1;4.087700844E-1;-1.270809531E0;-1.472930908E-1
2.982240523E1;4.778280854E-1;-1.180894256E0;-1.890964508E-1
2.984045912E1;1.117961884E0;-1.129948854E0;4.980459213E-1
2.985849635E1;1.187013388E0;-8.819095492E-1;1.573065758E0
2.987654262E1;4.878081083E-1;-3.537863493E-1;-2.439336777E-1
2.989458510E1;-3.489603996E-1;2.209218025E0;-2.276197433E0
2.991262691E1;-4.954490960E-1;-6.505091190E-1;-1.532317162E0
2.993066890E1;-1.589000225E0;-4.900856018E-1;2.083767891E0
2.994871059E1;1.899772882E-2;5.626183748E-1;3.997049332E-1
2.996674336E1;7.180491686E-1;1.061066031E0;6.074934006E-1
2.998479463E1;-5.184998512E-1;-8.699390292E-1;-1.498148918E0
3.000283662E1;5.198862553E-1;-8.126544952E-2;3.065557480E-1
3.002087788E1;4.276989996E-1;-9.056615829E-2;8.025770187E-1
3.003891744E1;1.474439383E0;4.497228861E-1;2.465163231E0
3.005696474E1;9.782236814E-1;6.125646830E-1;-1.386322975E0
3.007500410E1;5.400791168E-1;1.020771027E0;-3.951616764E0
3.009304549E1;4.229082167E-1;-4.583818913E-1;-1.461874962E0
3.011108766E1;1.373355985E-1;-9.929618835E-1;7.966346741E-1
3.012912758E1;9.845514894E-1;3.574937582E-1;1.132918358E0
3.014717427E1;1.600245714E0;-1.254512072E-1;-2.562999725E-2
3.016521333E1;3.210812211E-1;-1.117013693E-1;4.080944061E-1
3.018325557E1;7.128989697E-1;-8.072970510E-1;9.905767441E-1
3.020129750E1;3.282965422E-1;7.254846096E-1;-2.104864120E-1
3.021933931E1;8.065736294E-2;4.879791737E-1;-1.049155235E0
3.023738100E1;3.594493568E-1;-1.302859902E0;-9.864597321E-1
3.025541426E1;4.193261564E-1;-2.085196972E0;1.578589439E0
3.027346498E1;3.627591729E-1;-1.761230588E0;2.522348404E0
3.029150734E1;1.059637308E0;-1.518621445E0;3.226051331E-1
3.030954872E1;4.194324613E-1;-2.124245882E0;-4.970426559E-1
3.032759102E1;-6.005706191E-1;-1.128538370E0;-1.930918694E0
3.034563814E1;-2.920271754E-1;2.633155584E-1;-1.064935684E0
3.036367494E1;1.188684583E0;6.604049206E-1;1.159477234E0
3.038171620E1;4.177318513E-1;5.361475945E-1;-4.257221222E-1
3.039975856E1;9.106855989E-1;5.823255777E-1;-1.320674896E0
3.041780019E1;-1.129279584E-1;-1.380550861E-2;-1.985166073E0
3.043584273E1;-4.549111128E-1;1.678632498E0;2.065243721E0
3.045388307E1;3.787056506E-1;2.239725590E0;-2.416677475E0
3.047192702E1;-3.937315345E-1;-1.419348955E0;-3.021450043E-1
3.048997389E1;-8.234581351E-1;-1.050901413E-1;2.386053085E0
3.050800679E1;2.624295950E-1;1.880661249E-1;2.358967781E0
3.052605482E1;3.418295085E-1;1.540591478E0;8.334913254E-1
3.054409389E1;-5.700113773E-1;-3.531579971E-1;-2.398455143E0
3.056213576E1;-1.466028690E0;-1.832736373E0;7.059326172E-1
3.058017787E1;5.692183971E-3;-2.341763973E-1;1.202207565E0
3.059821913E1;4.502856135E-1;2.514275312E-1;8.257751465E-1
3.061626137E1;3.021155894E-1;4.342815876E-1;-6.216630936E-1
3.063429298E1;-1.080339909E0;-1.449290037E0;-1.470790863E0
3.065234535E1;-1.116603374E0;-2.512323856E-1;-1.044561386E0
3.067038692E1;-4.018673599E-1;2.225483656E-1;1.124061584E0
3.068842500E1;1.284103394E-1;4.034523964E-1;1.219710350E0
3.070647090E1;4.577494860E-1;-1.414809346E0;-7.253017426E-1
3.072451283E1;-7.140251398E-1;-2.353365898E0;3.691291809E-1
3.074255440E1;1.852205694E-1;-1.145297647E0;-1.037483215E-1
3.076058461E1;6.574737430E-1;-1.623363972E0;2.333164215E-2
3.077864327E1;-4.937487841E-2;-2.822228909E0;8.595361710E-1
3.079667787E1;-1.847190261E-1;-2.773020744E0;1.245231628E-1
3.081472499E1;-2.564902604E-1;-1.463862300E0;1.060461998E0
3.083276418E1;-1.366380155E-1;-6.836832762E-1;-4.202680588E-1
3.085080605E1;-1.278988481E0;1.491258025E0;-2.147282124E0
3.086883614E1;-1.182287335E0;9.287282228E-1;-6.717929840E-1
3.088688686E1;-1.101671934E0;9.936573505E-1;1.344168663E0
3.090493483E1;-1.135101438E0;9.337021112E-1;5.566005707E-1
3.092297353E1;2.797859311E-1;1.302432179E0;7.380352020E-1
3.094101558E1;8.012020588E-2;2.670962811E-1;-5.223712921E-1
3.095905727E1;7.380541563E-1;6.104481220E-2;5.187978745E-1
3.097709902E1;8.662417531E-1;1.101005316E0;4.152984619E-1
3.099514131E1;4.814954996E-1;1.979601502E0;-1.124252319E0
3.101316219E1;2.078700662E-1;7.397657633E-1;-1.699122906E0
3.103122524E1;-7.612122297E-1;1.215109468E0;4.036073685E-1
3.104926936E1;6.680269837E-1;9.954859018E-1;1.683171272E0
3.106730879E1;4.485461712E-1;9.137344360E-1;2.772673607E0
3.108535127E1;-4.928265512E-1;1.557454348E0;5.876150131E-1
3.110339241E1;-4.910785258E-1;1.699678421E0;-1.372783661E0
3.112142189E1;-1.592278957E0;-1.227439761E0;7.269210815E-1
3.113947621E1;3.184410930E-1;5.387705564E-1;-2.454433441E-1
3.115751851E1;1.288549900E0;-1.340348959E0;-7.326498032E-1
3.117555965E1;5.118202567E-1;-2.517140627E0;-2.442846298E-1
3.119360231E1;1.684687734E-1;-2.703980446E0;-3.042161942E0
3.121164394E1;6.497876644E-1;-2.040480852E0;1.985883713E-1
3.122968630E1;8.870971799E-1;-2.950770378E0;2.444937706E0
3.124771791E1;5.687840581E-1;7.100470066E-1;-6.965951920E-1
3.126576967E1;-3.361615539E-1;-7.496752143E-1;-2.692344189E0
3.128381056E1;-1.542046547E0;-1.024878263E0;2.764358521E-1
3.130185463E1;-6.808424592E-1;6.996672153E-1;2.887077332E-1
3.131989491E1;4.921420217E-1;5.125418901E-1;1.264834404E0
3.133793721E1;3.456909060E-1;1.092497110E0;-3.265638351E-1
3.135597896E1;-1.165231466E-1;4.315042496E-1;7.510185242E-2
3.137402107E1;-2.858417034E-1;2.175447941E-1;1.239480972E-1
3.139205043E1;-4.717672467E-1;1.092299461E0;-1.462831497E0
3.141009017E1;-3.718838394E-1;2.426723242E-1;-7.669124603E-1
3.142814827E1;-7.261918187E-1;1.699133635E0;-1.509902000E0
3.144618868E1;-1.638200581E-1;-5.777331591E-1;8.848762512E-2
3.146423018E1;-9.041568637E-1;9.379491806E-1;-6.511402130E-2
3.148227065E1;-5.214678645E-1;-8.803176880E-2;2.960157394E0
3.150031386E1;1.160590053E-1;-7.449044585E-1;1.567730904E0
3.151835304E1;-2.591503561E-1;2.015066147E0;-1.668259621E0
3.153638557E1;-6.950870752E-1;-1.146048307E0;-1.904607296E0
3.155443691E1;1.445818543E-1;-2.063381195E0;2.557401657E-1
3.157248457E1;-1.458921432E-1;-2.317871571E0;1.067141533E0
3.159052394E1;5.333335996E-1;-1.011640787E0;2.399914742E0
3.160856502E1;5.262511969E-2;-1.275510669E0;9.715929031E-1
3.162659548E1;-7.343251705E-1;-6.494375467E-1;-5.378332138E-1
3.164464906E1;-9.823930860E-1;7.504746914E-1;-3.912254810E0
3.166269130E1;-5.503504276E-1;-1.439119339E0;2.148134232E0
3.168072108E1;1.518366575E0;2.093446255E-2;2.326915741E0
3.169877345E1;1.591064215E0;-5.725038052E-2;-2.068868160E0
3.171681477E1;-1.753681898E-2;-1.921258688E0;-1.521559715E0
3.173486183E1;-1.280007243E0;-8.844916821E-1;-7.755527496E-1
3.175290028E1;5.777507424E-1;1.087840796E0;2.422095299E0
3.177092476E1;4.956133962E-1;1.073200583E0;-5.528030396E-1
3.178898189E1;1.085647941E-1;1.519439220E0;-1.970608234E0
3.180702846E1;-7.824056149E-1;4.878699780E-2;-2.367722988E0
3.182506777E1;-1.678019762E-2;-7.912014127E-1;7.124404907E-1
3.184310976E1;4.772369266E-1;1.618422985E0;1.301440239E0
3.186115157E1;-1.043428779E-1;-8.573753238E-1;2.745793343E0
3.187919405E1;1.058691740E0;-2.240728140E-1;3.901319504E-1
3.189723476E1;-5.038133264E-1;-9.144700170E-1;-4.192695618E-1
3.191527705E1;-3.824342787E-1;3.909292221E-1;1.959980965E0
3.193331892E1;-7.031512260E-2;7.974308729E-1;2.594470978E-2
3.195136134E1;8.098540902E-1;-8.846079707E-1;1.187705994E0
3.196940248E1;3.243457675E-1;1.025737524E-1;1.298273087E0
3.198744496E1;8.304308057E-1;7.613199949E-1;7.508153915E-1
3.200547505E1;-5.978627205E-1;4.797135592E-1;-1.785933971E0
3.202352876E1;-1.183732986E0;7.816843987E-1;-3.578910828E0
3.204156996E1;4.240208864E-2;5.069118738E-1;-1.403296471E0
3.205961195E1;-1.189795732E-1;-1.064931631E0;1.014013290E-1
3.207765224E1;-2.205718458E-1;-2.282975912E-1;1.091526031E0
3.209569795E1;2.102138400E-1;-2.652320862E0;1.926766396E0
3.211373750E1;-1.358751535E0;-3.108134508E0;5.549068451E-1
3.213177974E1;-7.499208450E-1;-1.013343096E0;-9.825563431E-1
3.214982118E1;-1.229039431E0;-9.683201313E-1;-1.585574150E0
3.216786256E1;-9.236471653E-1;-1.717294335E0;-1.330769539E0
3.218590608E1;-1.464910507E-1;-1.690224648E0;8.200502396E-1
3.220394612E1;5.713239908E-1;6.394729614E-1;2.259609222E0
3.222199000E1;1.044409990E0;1.393037200E0;5.447721481E-1
3.224003096E1;7.482069731E-2;1.454781175E0;-1.715561867E0
3.225807216E1;-9.992663860E-1;-2.697238922E-1;-1.284360886E0
3.227611458E1;-7.713200450E-1;1.908485651E0;-1.512889862E-1
3.229415620E1;-1.102251768E0;1.426754236E0;2.137002945E-1
3.231219844E1;-1.616850138E0;-9.431481361E-3;2.065145493E0
3.233023994E1;-6.536440253E-1;4.690467119E-1;1.177091599E-1
3.234828554E1;-1.723258257E0;2.182583809E0;-2.949929237E0
3.236632393E1;-1.340674281E0;1.066426635E0;-1.286137581E0
3.238435591E1;-3.048205972E-1;-6.564646959E-1;1.022935867E0
3.240240730E1;1.035127521E0;-1.137271762E0;5.234527588E-1
3.242044936E1;9.965195060E-1;-9.922651649E-1;1.800441742E-1
3.243849141E1;-3.062243462E-1;-1.842476845E0;5.446929932E-1
3.245653444E1;-1.518893242E0;2.968612909E-1;4.945812225E-1
3.247457387E1;-8.888271451E-1;2.647054195E-1;-4.811878204E-1
3.249261678E1;-6.457821131E-1;-2.391260862E-1;-6.883945465E-1
3.251065889E1;-1.072531939E-2;-1.250798345E0;-8.848953247E-1
3.252869948E1;3.652002811E-1;-1.518034458E0;4.863405228E-1
3.254674080E1;2.999922633E-1;-2.285063744E0;1.762558937E0
3.256478554E1;7.287847996E-1;-9.767550230E-1;2.010829926E0
3.258282637E1;1.472712517E0;2.635812759E-2;2.495069504E-1
3.260085664E1;6.630300879E-1;1.157079935E-1;-1.816292763E0
3.261890974E1;2.320060730E-1;5.098867416E-1;-3.441023827E0
3.263695192E1;-1.018801451E0;-1.295850396E0;2.210948944E0
3.265499342E1;-1.292935610E-1;-2.580177784E-2;3.321347237E0
3.267303572E1;5.618138313E-1;1.187983274E0;4.511785507E-1
3.269107698E1;-2.621777058E-1;8.157542944E-1;-2.058206558E0
3.270911910E1;-1.817918062E0;-1.331146955E0;-1.285027504E0
3.272716103E1;-5.187817812E-1;1.687385917E0;-4.795017242E-1
3.274520332E1;-4.314158261E-1;3.992853165E-1;-6.479616165E-1
3.276323354E1;5.291574597E-1;-8.438042402E-1;2.440386772E0
3.278128676E1;1.017499685E0;-1.693356276E0;8.596630096E-1
3.279932832E1;1.426438332E0;-6.944233775E-1;1.651255608E0
3.281737032E1;1.149146795E0;2.268256903E0;-3.989459515E0
3.283541170E1;-1.506729364E0;-7.273774147E-1;-1.698719501E0
3.285345400E1;-1.040078998E0;-6.540408134E-1;1.937269211E0
3.287149580E1;1.024339437E0;-4.587858915E-1;1.750378609E0
3.288953804E1;1.002346754E0;1.134219170E0;1.240229607E0
3.290756245E1;1.393607855E0;6.119917631E-1;-1.727205753E0
3.292561751E1;-3.117340207E-1;-7.260760069E-1;-8.923454285E-1
3.294366695E1;-2.918854356E-1;-1.592653394E0;3.125467300E-1
3.296170528E1;6.291235089E-1;-1.290463209E0;2.546565056E0
3.297974648E1;9.032009244E-1;-1.493465185E0;1.890565872E0
3.299777705E1;4.742762446E-1;-2.462547541E0;3.809022903E-1
3.301583046E1;7.726404667E-1;-2.164193153E0;6.865043640E-1
3.303387196E1;-3.249395192E-1;-1.590785384E0;9.949331284E-1
3.305191011E1;4.615733027E-2;1.445567489E0;-1.755510330E0
3.306995613E1;3.867697716E-2;-1.062867641E-1;4.895515442E-1
3.308799806E1;5.774525404E-1;4.782218933E-1;8.007936478E-1
3.310603999E1;1.214945793E0;1.048698068E0;-8.479404449E-1
3.312408138E1;2.372579575E-1;1.721086383E0;-1.680633545E0
3.314212343E1;-7.060652971E-1;1.417468071E0;-1.179454803E0
3.316016548E1;-3.495288789E-1;1.484432220E0;-2.000122070E-1
3.317820723E1;9.222537279E-2;-7.757201195E-1;1.743732452E0
3.319624947E1;-2.085664570E-1;1.969685555E-1;8.696966171E-1
3.321429518E1;-8.066169620E-1;-8.922815323E-4;-2.139778137E0
3.323233278E1;-1.495802641E0;6.213052273E-1;-1.050308228E0
3.325037465E1;-8.988388777E-1;5.555218458E-1;-1.684646606E-1
3.326841274E1;-2.382739633E-1;-3.691165924E0;4.299925804E0
3.328644722E1;4.534089863E-1;3.336998224E-1;7.165107727E-1
3.330449715E1;3.186316788E-1;9.758331776E-1;-2.946217060E0
3.332254512E1;-1.310594440E0;-3.369853497E-1;-2.691708565E0
3.334058315E1;-8.232777119E-1;-1.659830570E0;-4.632740021E-1
3.335862569E1;5.146331787E-1;5.552279949E-1;1.538638115E0
3.337666713E1;1.498749375E0;1.857149601E-2;2.083441734E0
3.339470967E1;5.170688033E-1;-3.225164413E0;7.350581169E0
3.341275056E1;-2.278834283E-1;4.734477997E-1;2.944437027E0
3.343079274E1;1.075420260E0;4.744770527E0;-6.247326374E0
3.344883211E1;3.564293683E-1;-3.337144852E-1;-1.027425194E1
3.346687935E1;2.853772640E-1;-5.415592194E0;-7.932968140E-1
3.348491811E1;-4.525780678E-3;-3.801708460E0;2.200190544E0
3.350296040E1;-7.850860357E-1;6.048656702E-1;1.916845322E0
3.352099135E1;1.113908291E0;1.108955979E0;4.831431389E0
3.353904390E1;2.368444681E0;1.032560825E0;-3.783969879E0
3.355708534E1;-1.111610174E0;3.239798546E-2;-8.670091629E-1
3.357512734E1;-7.377618551E-1;2.454519272E0;-1.279851913E0
3.359316933E1;-4.689147472E-1;-1.211967707E0;1.813272476E0
3.361121168E1;5.601401329E-1;-2.007243633E-1;2.359113693E0
3.362925276E1;-1.155494899E-1;1.248206854E0;-2.975378990E0
3.364729482E1;7.875907421E-1;-2.551260471E0;2.246748924E0
3.366532252E1;2.601010501E-1;-4.404058456E-1;2.767372131E-1
3.368337874E1;-3.678731918E-1;-2.413280010E-1;1.592493057E-1
3.370142037E1;1.633443713E0;3.808910847E-1;5.261192322E-1
3.371946230E1;2.054962814E-1;3.657013178E-1;-2.545638561E0
3.373750380E1;1.271098614E0;1.501634955E0;-1.117343903E0
3.375554616E1;-7.238025665E-1;1.090262890E0;-1.961341858E0
3.377358748E1;1.701807976E-2;-3.966178894E-1;7.189559937E-1
3.379162929E1;-5.788894296E-1;-3.665903568E0;4.243921280E0
3.380967110E1;1.102793694E0;-2.474087477E-1;2.753415108E0
3.382771254E1;2.277237177E0;9.376857281E-1;-2.461597443E0
3.384575575E1;-9.698327780E-1;-2.632012367E0;1.667906761E0
3.386379591E1;-7.874952555E-1;-1.013713837E0;-7.319450378E-1
3.388183968E1;-4.445827603E-1;-1.097660780E0;-4.140542030E0
3.389988081E1;-1.133698940E0;-4.582322121E0;1.464405060E-1
3.391792195E1;-8.508197069E-1;-9.374570251E-1;-8.452033997E-2
3.393596400E1;6.130776405E-1;-4.626897573E-1;-3.147840500E-1
3.395400581E1;-2.276705205E-1;-2.308396816E0;1.465053558E0
3.397204518E1;-3.255822361E-1;1.616547585E0;-1.259174347E-1
3.399009212E1;1.751571894E-2;2.027372360E0;-1.988389492E0
3.400813148E1;-7.755786180E-1;9.050220251E-1;4.388446808E-1
3.402617330E1;2.610762119E-1;5.286660194E-1;1.109582901E0
3.404420375E1;6.700659394E-1;2.382970333E0;2.833938599E-2
3.406225673E1;-9.030637741E-1;-2.864849567E-2;-1.617730141E0
3.408029872E1;-1.113420963E0;-1.402217388E0;1.103030205E0
3.409833711E1;-5.452573895E-1;8.105649948E-1;-4.438438416E-1
3.411637972E1;-7.041664720E-1;-1.178040504E0;2.524662018E-1
3.413442561E1;-4.911192954E-1;2.686250210E0;-2.162903309E0
3.415246687E1;-1.202576160E0;-1.406765103E0;1.417274475E-1
3.417050764E1;-2.649925947E-1;-6.423325539E-1;2.712565422E0
3.418854366E1;5.960170031E-1;-1.013932228E-1;2.839279175E-1
3.420658717E1;6.829065084E-2;-1.009548426E0;3.524186134E0
3.422463722E1;-8.251736760E-1;-2.315331936E0;1.300270081E0
3.424267500E1;-3.089115024E-1;-1.065824032E-1;3.228528976E0
3.426071694E1;2.052518725E-1;1.415742397E0;7.787208557E-1
3.427875819E1;4.994657040E-1;9.621385336E-1;-2.733039856E-2
3.429680043E1;-1.761402488E-1;3.008018255E0;-9.207899094E0
3.431484224E1;-2.794039249E-2;-2.486828804E0;-7.917368889E0
3.433288417E1;6.151217222E-2;-1.539608836E0;-2.815566063E0
3.435092397E1;8.929085732E-1;-4.476827621E0;-3.561194897E0
3.436896944E1;-2.568256140E0;2.538617849E-1;1.755207253E1
3.438700966E1;1.590696096E0;1.770491242E0;5.986315727E0
3.440505171E1;4.514811993E0;1.578114152E0;-5.158995628E0
3.442309291E1;-5.098546028E0;-1.145977974E-1;-3.468361855E0
3.444113515E1;4.117196798E-2;-2.008496046E0;-2.578859329E-1
3.445917665E1;-8.420965075E-1;1.982024908E-1;3.483449936E0
3.447721871E1;-1.063275337E0;-8.327448368E-2;-4.289178848E-1
3.449526009E1;4.428911805E-1;-2.262033939E0;2.182782173E0
3.451330220E1;1.485974789E0;2.101680756E0;-3.677274227E0
3.453134413E1;-3.482927680E-1;-7.482026815E-1;-2.716685295E0
3.454938618E1;1.830959916E-1;1.451091290E1;-1.163711548E-1
3.456741542E1;-1.005229950E0;-5.684053421E0;-1.889407635E0
3.458546962E1;3.801389456E0;-3.407804251E0;3.625377655E0
3.460351137E1;-6.962299347E-3;3.748573780E0;-1.789318562E0
3.462155366E1;1.553570986E0;-9.867531657E-1;-1.011347771E0
3.463959163E1;1.370414734E0;-1.948694348E0;6.576935768E0
3.465763960E1;-1.070983648E0;-3.129989624E0;-4.891603947E0
3.467567860E1;-1.204109669E0;-1.115612864E0;3.287032127E0
3.469372060E1;7.882010937E-1;-8.170970082E-1;-1.377174377E0
3.471175801E1;-2.102673054E-2;-2.839832544E0;2.721312523E0
3.472980245E1;1.458100319E0;-9.782269001E-1;1.631240845E-1
3.474784755E1;8.322674036E-1;-3.088889837E0;-1.685469627E0
3.476588783E1;-1.544471025E0;-1.386138678E0;3.156251907E-1
3.478392799E1;9.983267784E-1;-5.561628342E-1;-6.424446106E-1
3.480197218E1;3.282004893E-1;-4.664193392E-1;1.805345535E0
3.482001283E1;5.276218653E-1;2.251998186E-1;4.909706116E-2
3.483805513E1;2.867174149E-2;2.231428146E0;-7.871961594E-1
3.485608485E1;-2.718605697E-1;-1.100815773E0;1.542214394E0
3.487413826E1;1.186672807E0;1.558644056E0;-6.560373306E-1
3.489217915E1;6.490549445E-1;3.281591892E0;-2.250142097E0
3.491022359E1;-8.482854366E-1;-1.411408663E0;8.448429108E-1
3.492826350E1;1.125500500E-1;4.747574329E-1;-4.132690430E-1
3.494630586E1;1.314364374E-1;1.244366169E-2;-1.663656235E-1
3.496434761E1;-6.912972033E-2;-7.335865498E-2;1.412343979E0
3.498238954E1;-7.923767567E-1;-6.472907066E-1;-3.737080574E0
3.500043080E1;-3.615811169E-1;-1.373761535E0;3.166809082E-1
3.501847395E1;-5.588664412E-1;-1.721471906E0;1.369668007E0
3.503651460E1;6.294608116E-3;2.116584778E-1;1.141412735E0
3.505455684E1;3.450428843E-1;-1.285938382E0;1.883515358E0
3.507259798E1;2.269829661E-1;-6.866653562E-1;-1.295200348E0
3.509063423E1;-2.876033783E-1;8.247152567E-1;-1.108927727E0
3.510868178E1;1.539222151E-1;1.679649353E-1;-2.758583069E0
3.512672377E1;-9.933683872E-1;-3.012150526E-1;-5.535440445E-1
3.514476527E1;1.761917174E-1;-1.149797440E0;1.348686218E0
3.516280727E1;1.194291234E0;1.119537354E-1;1.200847626E-1
3.518084908E1;2.061357200E-1;-9.053990245E-1;-9.535694122E-2
3.519889131E1;-5.524445176E-1;3.008106947E-1;-3.201074600E-1
3.521693221E1;4.382799864E-1;-9.509448409E-1;1.153485298E0
3.523496504E1;1.207425594E-1;3.289055824E-2;8.468446732E-1
3.525301143E1;2.498379946E-1;-6.370593905E-1;-8.241043091E-1
3.527106306E1;-9.736225605E-1;3.812062740E-1;-4.541931152E-1
3.528909975E1;-1.342994809E0;-9.758317471E-2;-1.113072395E0
3.530714174E1;-7.559775114E-1;6.880875826E-1;7.605171204E-1
3.532518349E1;1.273856163E-1;-7.673668861E-1;3.597616196E0
3.534322554E1;2.046652555E0;1.425594211E0;-2.377409935E0
3.536126668E1;-3.132207692E-1;2.219618320E0;-6.137620926E0
3.537930855E1;-1.397313237E0;1.348167658E-1;-1.354913712E0
3.539735011E1;-1.949948967E-1;-2.282939434E0;3.624960899E0
3.541539333E1;5.688409805E-1;-2.143571377E-1;1.132609367E0
3.543343398E1;1.406765699E0;-8.290882707E-1;-7.006740570E-1
3.545147597E1;-8.534194231E-1;-1.512804985E0;2.406806946E-1
3.546951778E1;-1.285311878E-1;7.996582985E-2;5.535135269E-1
3.548755971E1;5.496419072E-1;-1.511999846E0;1.774547577E0
3.550560097E1;-2.387540042E-1;-6.515389681E-1;6.308231354E-1
3.552364320E1;2.988522649E-1;-3.538111448E-1;3.767948151E-1
3.554168495E1;7.152250409E-1;-2.037702560E0;-1.794424057E-1
3.555972700E1;-2.692639828E-1;-2.239272833E0;7.975578308E-2
3.557776820E1;2.854814529E-1;3.222184181E-1;3.073244095E-1
3.559581044E1;1.758801937E-2;-1.815810442E0;1.643953323E0
3.561384273E1;1.956485510E-1;-5.559411049E-1;-7.812204361E-1
3.563189217E1;-2.538620830E-1;-1.818561554E-1;-2.177139282E0
3.564993843E1;-1.351034403E0;-1.456180215E0;5.354795456E-1
3.566797768E1;-5.493195653E-1;-1.272010088E0;4.329290390E-1
3.568601943E1;8.606677651E-1;5.926898718E-1;3.878898621E-1
3.570406148E1;1.740650535E-1;3.119835854E-1;-1.965866566E0
3.572210262E1;6.659030914E-3;-5.838439465E-1;-1.138150215E0
3.574014467E1;-5.044172406E-1;1.188961267E-1;-1.538858414E-1
3.575817915E1;9.518181086E-1;1.219082832E0;7.083129883E-1
3.577622792E1;-2.355229855E-2;-3.885853291E-2;2.918939590E-1
3.579427040E1;-2.716538608E-1;-4.277606010E-1;-1.774263382E-1
3.581231184E1;-6.306239367E-1;-7.215166092E-2;7.842655182E-1
3.583035371E1;-7.250928283E-1;2.063775063E0;3.076686859E-1
3.584839229E1;-1.897496283E-1;6.527438164E-1;-6.439905167E-1
3.586643684E1;-1.468086541E-1;1.031825542E-1;-1.591002464E0
3.588447920E1;-1.589730024E0;-1.219138622E0;-4.849958420E-1
3.590251918E1;-5.088678002E-1;-4.453274012E-1;2.688236237E0
3.592056404E1;2.867316604E-1;-7.898423076E-1;7.172880173E-1
3.593860298E1;-4.100569487E-1;-7.033729553E-2;1.827297211E-1
3.595664571E1;3.616256118E-1;4.177806377E-1;-1.412643433E0
3.597468855E1;-5.606450438E-1;3.547495604E-1;-4.105472565E-1
3.599271828E1;3.604945540E-1;4.471112490E-1;-7.288055420E-1
3.601077107E1;4.719248414E-1;-1.754342794E0;4.113988876E-1
3.602881337E1;-1.208060682E-1;-1.415730476E0;1.479397774E0
3.604685512E1;9.032795429E-1;-2.919328213E0;1.428254128E0
3.606489516E1;4.598142505E-1;-6.895265579E-1;8.557052612E-1
3.608294032E1;6.613063216E-1;-1.790598869E0;-1.433785439E0
3.610098012E1;2.811896503E-1;-5.381289721E-1;6.093101501E-1
3.611902217E1;-3.889558911E-1;2.358407974E-1;7.200069427E-1
3.613706996E1;8.373661041E-1;2.376499176E-1;1.410264969E0
3.615510225E1;4.716017246E-1;1.274915099E0;-2.327102184E0
3.617313869E1;-9.144753218E-1;-3.476941586E-1;-2.941665649E-1
3.619117622E1;4.115521908E-2;-8.160133362E-1;9.218244553E-1
3.620923116E1;7.479672432E-1;7.296113968E-1;4.386405945E-1
3.622727254E1;1.607209921E0;9.863659143E-1;-1.687154770E-1
3.624531459E1;-2.080427557E-1;-1.565173745E0;-1.734614372E0
3.626335640E1;-1.058905423E-1;-1.200961709E0;2.229011536E0
3.628139809E1;6.448848248E-1;1.672093987E0;-2.924652100E-1
3.629943697E1;1.374265552E0;3.082784414E-1;-6.980657578E-1
3.631748445E1;-1.438102573E-1;-4.662946463E-1;1.539087296E-1
3.633552333E1;9.192892909E-2;-5.637168884E-1;3.417301178E-2
3.635356587E1;2.607976496E-1;1.428897500E0;1.045168877E0
3.637160676E1;-4.269289374E-1;1.342854619E0;-1.054780960E0
3.638964882E1;-3.933947086E-1;-8.445578218E-1;-1.009708405E0
3.640769057E1;-5.811496973E-1;-1.121025085E-1;-5.366630554E-1
3.642573286E1;3.805673718E-1;1.929775476E-1;3.834285736E-1
3.644377504E1;9.848008156E-1;-2.099883556E-1;1.408763885E0
3.646181490E1;1.040243626E0;-1.901271343E0;-2.829980850E-1
3.647985774E1;9.001515508E-1;-2.395117760E0;-5.672378540E-1
3.649789961E1;-5.547775030E-1;-1.724149227E0;-2.551851273E-1
3.651592958E1;-2.106975019E-1;-1.411974311E0;1.896002769E0
3.653398006E1;3.924644887E-1;9.613646269E-1;-5.131883621E-1
3.655202803E1;9.700873494E-2;1.381131411E-1;-1.395591736E0
3.657006685E1;-3.719657063E-1;-1.654830933E0;7.454175949E-1
3.658810823E1;2.381562889E-1;1.200259328E0;7.010240555E-1
3.660615004E1;1.471882820E0;1.435773730E0;2.115526199E-1
3.662419179E1;7.962815166E-1;4.818866253E-1;1.897258759E-1
3.664223409E1;-1.134052128E-1;-2.182737589E-1;-2.154190540E0
3.666028059E1;-4.612242877E-1;3.142251968E-1;1.199267387E0
